Time stamp(sec),quaternion_0,quaternion_1,quaternion_2,quaternion_3,roll_angular_rate,pitch_angular_rate,yaw_angular_rate,acc_X,acc_Y,acc_Z,mag_X,mag_Y,mag_Z,pressure,altitude
1850.681999,-0.057708740234375,0.0631103515625,0.012298583984375,0.996246337890625,-0.06103515625,0.18310546875,-0.18310546875,0.12744140625,0.016357421875,0.999755859375,-32.0,-241.0,-31.0,101943.0,-5.13200044631958,0,0
1850.689016,-0.0576171875,0.0631103515625,0.012298583984375,0.996246337890625,0.0,0.30517578125,0.0,0.1280517578125,0.017333984375,0.9974365234375,-31.0,-240.0,-32.0,101943.0,-5.13200044631958,0,0
1850.695998,-0.0576171875,0.0631103515625,0.012298583984375,0.996246337890625,0.0,0.0,-0.30517578125,0.1292724609375,0.0179443359375,0.998291015625,-31.0,-240.0,-32.0,101943.0,-5.13200044631958,0,0
1850.702031,-0.0576171875,0.0631103515625,0.012298583984375,0.996246337890625,0.0,0.0,-0.30517578125,0.1292724609375,0.0179443359375,0.998291015625,-31.0,-240.0,-32.0,101943.0,-5.13200044631958,0,0
1850.709018,-0.0576171875,0.0631103515625,0.012298583984375,0.996246337890625,0.0,0.244140625,0.0,0.1287841796875,0.0186767578125,0.9970703125,-31.0,-240.0,-32.0,101943.0,-5.13200044631958,0,0
1850.715998,-0.0576171875,0.0631103515625,0.012298583984375,0.996246337890625,0.1220703125,0.30517578125,0.0,0.126708984375,0.0194091796875,0.9971923828125,-31.0,-240.0,-32.0,101943.0,-5.13200044631958,0,0
1850.722998,-0.0576171875,0.0631103515625,0.012298583984375,0.996246337890625,0.0,0.1220703125,0.0,0.1295166015625,0.0201416015625,0.9974365234375,-31.0,-240.0,-32.0,101943.0,-5.13200044631958,0,0
1850.730018,-0.0576171875,0.0631103515625,0.012298583984375,0.996246337890625,0.1220703125,0.06103515625,0.06103515625,0.1285400390625,0.015380859375,0.9991455078125,-31.0,-240.0,-32.0,101943.0,-5.13200044631958,0,0
1850.737001,-0.0576171875,0.0631103515625,0.0123291015625,0.996246337890625,0.0,0.6103515625,-0.06103515625,0.1273193359375,0.018798828125,0.9986572265625,-31.0,-240.0,-32.0,101943.0,-5.13200044631958,0,0
1850.744018,-0.0576171875,0.0631103515625,0.012298583984375,0.996246337890625,-0.06103515625,0.244140625,0.06103515625,0.128173828125,0.017333984375,0.9981689453125,-31.0,-240.0,-32.0,101943.0,-5.13200044631958,0,0
1850.76502,-0.0576171875,0.063079833984375,0.0123291015625,0.996246337890625,-0.06103515625,0.30517578125,-0.1220703125,0.126953125,0.0186767578125,0.9986572265625,-31.0,-240.0,-32.0,101943.0,-5.13200044631958,0,0
1850.771999,-0.0576171875,0.0631103515625,0.0123291015625,0.996246337890625,0.0,0.1220703125,0.06103515625,0.1278076171875,0.0191650390625,0.9974365234375,-31.0,-240.0,-32.0,101943.0,-5.13200044631958,0,0
1850.779016,-0.0576171875,0.0631103515625,0.0123291015625,0.996246337890625,-0.3662109375,0.3662109375,0.18310546875,0.12841796875,0.0179443359375,0.9993896484375,-31.0,-240.0,-32.0,101943.0,-5.13200044631958,0,0
1850.785998,-0.0576171875,0.0631103515625,0.0123291015625,0.996246337890625,-0.1220703125,0.30517578125,0.06103515625,0.126953125,0.01611328125,0.998291015625,-31.0,-239.0,-33.0,101943.0,-5.13200044631958,0,0
1850.792997,-0.057525634765625,0.0631103515625,0.0123291015625,0.996246337890625,-0.1220703125,0.244140625,0.18310546875,0.130126953125,0.0191650390625,0.9991455078125,-31.0,-239.0,-33.0,101943.0,-5.13200044631958,0,0
1850.799025,-0.057525634765625,0.0631103515625,0.0123291015625,0.996246337890625,-0.1220703125,0.244140625,0.18310546875,0.130126953125,0.0191650390625,0.9991455078125,-31.0,-239.0,-33.0,101943.0,-5.13200044631958,0,0
1850.805998,-0.057525634765625,0.0631103515625,0.0123291015625,0.996246337890625,0.0,0.244140625,0.06103515625,0.1268310546875,0.0186767578125,0.9970703125,-31.0,-239.0,-33.0,101943.0,-5.13200044631958,0,0
1850.812998,-0.057525634765625,0.0631103515625,0.0123291015625,0.996246337890625,-0.1220703125,0.18310546875,-0.1220703125,0.127685546875,0.017333984375,0.9993896484375,-31.0,-239.0,-33.0,101943.0,-5.13200044631958,0,0
1850.820018,-0.057525634765625,0.0631103515625,0.0123291015625,0.996246337890625,0.0,0.30517578125,0.3662109375,0.1295166015625,0.016357421875,0.998779296875,-31.0,-239.0,-33.0,101943.0,-5.13200044631958,0,0
1850.827001,-0.057525634765625,0.0631103515625,0.012298583984375,0.996246337890625,-0.1220703125,0.30517578125,-0.06103515625,0.128173828125,0.0174560546875,0.999267578125,-31.0,-239.0,-33.0,101943.0,-5.13200044631958,0,0
1850.834018,-0.057525634765625,0.0631103515625,0.012298583984375,0.996246337890625,0.06103515625,0.1220703125,0.06103515625,0.1282958984375,0.0146484375,0.9976806640625,-31.0,-239.0,-33.0,101943.0,-5.13200044631958,0,0
1850.840995,-0.057525634765625,0.0631103515625,0.012298583984375,0.996246337890625,-0.1220703125,0.18310546875,-0.06103515625,0.12890625,0.01513671875,0.9970703125,-31.0,-239.0,-33.0,101943.0,-5.133000373840332,0,0
1850.847995,-0.057525634765625,0.0631103515625,0.012298583984375,0.996246337890625,-0.244140625,0.06103515625,0.0,0.1282958984375,0.016845703125,0.9990234375,-31.0,-239.0,-33.0,101943.0,-5.133000373840332,0,0
1850.85502,-0.057525634765625,0.0631103515625,0.012298583984375,0.996246337890625,0.06103515625,0.3662109375,-0.06103515625,0.1279296875,0.0169677734375,0.998779296875,-31.0,-239.0,-33.0,101943.0,-5.133000373840332,0,0
1850.861999,-0.057525634765625,0.0631103515625,0.012298583984375,0.996246337890625,0.0,0.1220703125,0.18310546875,0.1287841796875,0.0167236328125,0.9993896484375,-31.0,-239.0,-33.0,101943.0,-5.133000373840332,0,0
1850.869016,-0.057525634765625,0.0631103515625,0.012298583984375,0.996246337890625,0.06103515625,0.18310546875,0.30517578125,0.1287841796875,0.0189208984375,0.99755859375,-31.0,-239.0,-33.0,101943.0,-5.133000373840332,0,0
1850.875997,-0.057525634765625,0.063140869140625,0.0123291015625,0.996246337890625,0.06103515625,0.18310546875,-0.1220703125,0.12939453125,0.01904296875,0.999267578125,-31.0,-239.0,-33.0,101943.0,-5.133000373840332,0,0
1850.882997,-0.057525634765625,0.063140869140625,0.0123291015625,0.996246337890625,0.06103515625,0.30517578125,-0.18310546875,0.127685546875,0.01611328125,0.9974365234375,-31.0,-239.0,-33.0,101943.0,-5.133000373840332,0,0
1850.889025,-0.057525634765625,0.063140869140625,0.0123291015625,0.996246337890625,0.06103515625,0.30517578125,-0.18310546875,0.127685546875,0.01611328125,0.9974365234375,-31.0,-239.0,-33.0,101943.0,-5.133000373840332,0,0
1850.895998,-0.057525634765625,0.063140869140625,0.012298583984375,0.996246337890625,0.0,0.06103515625,0.06103515625,0.1280517578125,0.0164794921875,0.9991455078125,-32.0,-240.0,-34.0,101943.0,-5.133000373840332,0,0
1850.902997,-0.057525634765625,0.063140869140625,0.012298583984375,0.996246337890625,0.1220703125,-0.06103515625,0.244140625,0.1268310546875,0.0184326171875,1.000732421875,-32.0,-240.0,-34.0,101943.0,-5.133000373840332,0,0
1850.910018,-0.057525634765625,0.063140869140625,0.012298583984375,0.996246337890625,-0.18310546875,0.18310546875,0.30517578125,0.1282958984375,0.0159912109375,0.997314453125,-32.0,-240.0,-34.0,101943.0,-5.133000373840332,0,0
1850.917001,-0.057525634765625,0.063140869140625,0.012298583984375,0.996246337890625,0.1220703125,0.244140625,-0.1220703125,0.128173828125,0.0181884765625,0.997314453125,-32.0,-240.0,-34.0,101943.0,-5.133000373840332,0,0
1850.937995,-0.057525634765625,0.0631103515625,0.0123291015625,0.996246337890625,-0.06103515625,0.244140625,-0.18310546875,0.1285400390625,0.0179443359375,0.996826171875,-32.0,-240.0,-34.0,101943.0,-5.133000373840332,0,0
1850.94502,-0.057525634765625,0.0631103515625,0.0123291015625,0.996246337890625,-0.06103515625,0.1220703125,0.06103515625,0.1279296875,0.0167236328125,0.9969482421875,-32.0,-240.0,-34.0,101943.0,-5.133000373840332,0,0
1850.951999,-0.057525634765625,0.0631103515625,0.0123291015625,0.996246337890625,-0.06103515625,0.244140625,0.0,0.127197265625,0.01806640625,0.99755859375,-32.0,-240.0,-34.0,101943.0,-5.133000373840332,0,0
1850.959016,-0.057525634765625,0.0631103515625,0.012298583984375,0.996246337890625,-0.06103515625,0.244140625,0.1220703125,0.1270751953125,0.0157470703125,0.999267578125,-32.0,-240.0,-34.0,101943.0,-5.133000373840332,0,0
1850.965998,-0.057525634765625,0.0631103515625,0.0123291015625,0.996246337890625,-0.1220703125,0.18310546875,-0.06103515625,0.12890625,0.0184326171875,0.99658203125,-32.0,-240.0,-34.0,101943.0,-5.133000373840332,0,0
1850.972997,-0.057525634765625,0.0631103515625,0.012298583984375,0.996246337890625,-0.06103515625,0.1220703125,-0.18310546875,0.1290283203125,0.0150146484375,1.0,-32.0,-240.0,-34.0,101943.0,-5.133000373840332,0,0
1850.97903,-0.057525634765625,0.0631103515625,0.012298583984375,0.996246337890625,-0.06103515625,0.1220703125,-0.18310546875,0.1290283203125,0.0150146484375,1.0,-32.0,-240.0,-34.0,101943.0,-5.133000373840332,0,0
1850.985998,-0.057525634765625,0.0631103515625,0.012298583984375,0.996246337890625,-0.06103515625,0.30517578125,0.0,0.128173828125,0.017333984375,0.9991455078125,-31.0,-239.0,-32.0,101943.0,-5.133000373840332,0,0
1850.992998,-0.057403564453125,0.0631103515625,0.0123291015625,0.996246337890625,0.1220703125,0.30517578125,-0.06103515625,0.1285400390625,0.0184326171875,0.9967041015625,-31.0,-239.0,-32.0,101943.0,-5.133000373840332,0,0
1851.000018,-0.057403564453125,0.0631103515625,0.0123291015625,0.996246337890625,-0.1220703125,0.18310546875,0.1220703125,0.126708984375,0.0189208984375,0.9984130859375,-31.0,-239.0,-32.0,101943.0,-5.133000373840332,0,0
1851.007001,-0.057403564453125,0.0631103515625,0.012298583984375,0.996246337890625,0.0,0.1220703125,-0.06103515625,0.12890625,0.015869140625,0.9991455078125,-31.0,-239.0,-32.0,101943.0,-5.133000373840332,0,0
1851.028,-0.057403564453125,0.0631103515625,0.012298583984375,0.996246337890625,0.0,0.18310546875,-0.06103515625,0.1268310546875,0.0162353515625,0.997802734375,-31.0,-239.0,-32.0,101943.0,-5.133000373840332,0,0
1851.03502,-0.057403564453125,0.0631103515625,0.012298583984375,0.996246337890625,0.0,0.1220703125,-0.06103515625,0.1270751953125,0.0162353515625,0.998291015625,-31.0,-239.0,-32.0,101943.0,-5.133000373840332,0,0
1851.041999,-0.057403564453125,0.0631103515625,0.012298583984375,0.996246337890625,-0.1220703125,0.42724609375,0.1220703125,0.12841796875,0.0177001953125,0.9964599609375,-31.0,-239.0,-32.0,101943.0,-5.133000373840332,0,0
1851.049016,-0.057403564453125,0.0631103515625,0.012298583984375,0.996246337890625,0.06103515625,0.3662109375,-0.06103515625,0.128662109375,0.017822265625,0.9976806640625,-31.0,-239.0,-32.0,101943.0,-5.133000373840332,0,0
1851.055998,-0.057403564453125,0.0631103515625,0.012298583984375,0.996246337890625,-0.06103515625,0.1220703125,-0.1220703125,0.1275634765625,0.016357421875,0.9981689453125,-31.0,-239.0,-32.0,101943.0,-5.133000373840332,0,0
1851.062997,-0.057403564453125,0.0631103515625,0.012298583984375,0.996246337890625,0.1220703125,0.244140625,-0.06103515625,0.1287841796875,0.0166015625,0.9991455078125,-31.0,-239.0,-32.0,101943.0,-5.133000373840332,0,0
1851.070022,-0.057403564453125,0.0631103515625,0.012298583984375,0.996246337890625,0.18310546875,0.30517578125,0.244140625,0.12744140625,0.0179443359375,0.9976806640625,-31.0,-239.0,-32.0,101943.0,-5.133000373840332,0,0
1851.07605,-0.057403564453125,0.0631103515625,0.012298583984375,0.996246337890625,0.18310546875,0.30517578125,0.244140625,0.12744140625,0.0179443359375,0.9976806640625,-31.0,-239.0,-32.0,101943.0,-5.133000373840332,0,0
1851.082997,-0.057403564453125,0.0631103515625,0.012298583984375,0.996246337890625,0.0,0.30517578125,-0.1220703125,0.126708984375,0.0181884765625,0.99853515625,-30.0,-240.0,-32.0,101943.0,-5.133000373840332,0,0
1851.090018,-0.05718994140625,0.0631103515625,0.01226806640625,0.99627685546875,-0.06103515625,0.244140625,0.06103515625,0.1282958984375,0.016845703125,1.0003662109375,-30.0,-240.0,-32.0,101943.0,-5.133000373840332,0,0
1851.097001,-0.05718994140625,0.0631103515625,0.01226806640625,0.99627685546875,-0.18310546875,0.30517578125,-0.18310546875,0.12646484375,0.017578125,0.997314453125,-30.0,-240.0,-32.0,101943.0,-5.133000373840332,0,0
1851.104018,-0.05718994140625,0.0631103515625,0.012298583984375,0.99627685546875,0.0,0.3662109375,-0.06103515625,0.1265869140625,0.017578125,0.99853515625,-30.0,-240.0,-32.0,101943.0,-5.133000373840332,0,0
1851.110995,-0.05718994140625,0.0631103515625,0.012298583984375,0.99627685546875,0.0,0.06103515625,0.18310546875,0.1302490234375,0.0167236328125,1.0,-30.0,-240.0,-32.0,101943.0,-5.133000373840332,0,0
1851.117995,-0.05718994140625,0.0631103515625,0.01226806640625,0.99627685546875,-0.1220703125,0.244140625,-0.06103515625,0.1273193359375,0.0157470703125,0.9991455078125,-30.0,-240.0,-32.0,101943.0,-5.133000373840332,0,0
1851.12502,-0.05718994140625,0.0631103515625,0.01226806640625,0.99627685546875,0.244140625,0.244140625,0.06103515625,0.126220703125,0.0157470703125,0.9969482421875,-30.0,-240.0,-32.0,101943.0,-5.133000373840332,0,0
1851.131999,-0.05718994140625,0.0631103515625,0.01226806640625,0.99627685546875,0.0,0.244140625,-0.06103515625,0.12744140625,0.0169677734375,0.998291015625,-30.0,-240.0,-32.0,101943.0,-5.133000373840332,0,0
1851.139016,-0.05718994140625,0.0631103515625,0.01226806640625,0.99627685546875,0.18310546875,0.3662109375,0.06103515625,0.12646484375,0.0164794921875,0.999267578125,-30.0,-240.0,-32.0,101943.0,-5.133000373840332,0,0
1851.145998,-0.05718994140625,0.0631103515625,0.01226806640625,0.99627685546875,-0.18310546875,0.42724609375,0.06103515625,0.130615234375,0.0162353515625,0.997802734375,-30.0,-240.0,-32.0,101943.0,-5.133000373840332,0,0
1851.152997,-0.05718994140625,0.0631103515625,0.01226806640625,0.99627685546875,-0.06103515625,0.1220703125,0.06103515625,0.126953125,0.019775390625,0.9991455078125,-30.0,-240.0,-32.0,101943.0,-5.133000373840332,0,0
1851.160022,-0.05718994140625,0.0631103515625,0.01226806640625,0.99627685546875,0.06103515625,0.244140625,-0.06103515625,0.126953125,0.017333984375,0.997314453125,-30.0,-240.0,-32.0,101943.0,-5.133000373840332,0,0
1851.16605,-0.05718994140625,0.0631103515625,0.01226806640625,0.99627685546875,0.06103515625,0.244140625,-0.06103515625,0.126953125,0.017333984375,0.997314453125,-30.0,-240.0,-32.0,101943.0,-5.133000373840332,0,0
1851.172998,-0.05718994140625,0.0631103515625,0.01226806640625,0.99627685546875,-0.06103515625,0.06103515625,0.0,0.1285400390625,0.01708984375,0.9989013671875,-30.0,-240.0,-32.0,101943.0,-5.133000373840332,0,0
1851.180018,-0.05718994140625,0.0631103515625,0.01226806640625,0.99627685546875,-0.1220703125,0.30517578125,0.1220703125,0.1275634765625,0.0181884765625,0.998046875,-30.0,-240.0,-32.0,101943.0,-5.133000373840332,0,0
1851.200995,-0.0570068359375,0.0631103515625,0.01226806640625,0.99627685546875,-0.1220703125,0.06103515625,0.0,0.1260986328125,0.017822265625,0.996337890625,-30.0,-239.0,-34.0,101943.0,-5.133000373840332,0,0
1851.207995,-0.0570068359375,0.0631103515625,0.012237548828125,0.99627685546875,0.06103515625,0.0,0.18310546875,0.1290283203125,0.016357421875,0.9981689453125,-30.0,-239.0,-34.0,101943.0,-5.133000373840332,0,0
1851.21502,-0.0570068359375,0.0631103515625,0.012237548828125,0.99627685546875,0.18310546875,0.48828125,0.06103515625,0.126220703125,0.0167236328125,0.9979248046875,-30.0,-239.0,-34.0,101943.0,-5.133000373840332,0,0
1851.221999,-0.0570068359375,0.0631103515625,0.01226806640625,0.99627685546875,0.18310546875,0.3662109375,0.0,0.1275634765625,0.01953125,0.9971923828125,-30.0,-239.0,-34.0,101943.0,-5.133000373840332,0,0
1851.229016,-0.0570068359375,0.0631103515625,0.01226806640625,0.99627685546875,-0.18310546875,0.244140625,0.1220703125,0.12744140625,0.0174560546875,0.9993896484375,-30.0,-239.0,-34.0,101943.0,-5.133000373840332,0,0
1851.290996,-0.056671142578125,0.063079833984375,0.012237548828125,0.996307373046875,0.244140625,0.1220703125,0.30517578125,0.1278076171875,0.01904296875,0.99658203125,-29.0,-239.0,-34.0,101943.0,-5.133000373840332,0,0
1851.298,-0.056671142578125,0.063079833984375,0.012237548828125,0.996307373046875,0.06103515625,0.30517578125,-0.244140625,0.1282958984375,0.0185546875,0.998291015625,-29.0,-239.0,-34.0,101943.0,-5.133000373840332,0,0
1851.30502,-0.056671142578125,0.063079833984375,0.012237548828125,0.996307373046875,0.06103515625,0.30517578125,0.18310546875,0.12890625,0.017822265625,0.9967041015625,-29.0,-239.0,-34.0,101943.0,-5.133000373840332,0,0
1851.311999,-0.056671142578125,0.063079833984375,0.012237548828125,0.996307373046875,0.06103515625,0.244140625,0.06103515625,0.1265869140625,0.0169677734375,0.9976806640625,-29.0,-239.0,-34.0,101943.0,-5.133000373840332,0,0
1851.319016,-0.056671142578125,0.0631103515625,0.012237548828125,0.996307373046875,0.0,0.30517578125,0.06103515625,0.12744140625,0.0172119140625,0.997314453125,-29.0,-239.0,-34.0,101943.0,-5.133000373840332,0,0
1851.325998,-0.056671142578125,0.0631103515625,0.012237548828125,0.996307373046875,-0.1220703125,0.3662109375,0.3662109375,0.1287841796875,0.017822265625,0.9974365234375,-29.0,-239.0,-34.0,101943.0,-5.133000373840332,0,0
1851.332997,-0.056671142578125,0.0631103515625,0.012237548828125,0.996307373046875,0.1220703125,0.18310546875,0.30517578125,0.1273193359375,0.0174560546875,0.9976806640625,-29.0,-239.0,-34.0,101943.0,-5.133000373840332,0,0
1851.340022,-0.056671142578125,0.063079833984375,0.012237548828125,0.996307373046875,-0.06103515625,0.42724609375,0.0,0.1279296875,0.0194091796875,0.99755859375,-29.0,-239.0,-34.0,101943.0,-5.133000373840332,0,0
1851.347001,-0.056671142578125,0.063079833984375,0.012237548828125,0.996307373046875,0.0,0.18310546875,-0.244140625,0.1268310546875,0.019775390625,0.998779296875,-29.0,-239.0,-34.0,101943.0,-5.133000373840332,0,0
1851.353034,-0.056671142578125,0.063079833984375,0.012237548828125,0.996307373046875,0.0,0.18310546875,-0.244140625,0.1268310546875,0.019775390625,0.998779296875,-29.0,-239.0,-34.0,101943.0,-5.133000373840332,0,0
1851.360018,-0.056671142578125,0.063079833984375,0.012237548828125,0.996307373046875,0.1220703125,0.0,0.1220703125,0.1282958984375,0.0181884765625,0.9984130859375,-29.0,-239.0,-34.0,101943.0,-5.133000373840332,0,0
1851.367001,-0.056671142578125,0.063079833984375,0.012237548828125,0.996307373046875,0.1220703125,0.1220703125,-0.18310546875,0.126708984375,0.017333984375,0.9976806640625,-29.0,-239.0,-34.0,101943.0,-5.133000373840332,0,0
1851.374019,-0.056671142578125,0.063079833984375,0.012237548828125,0.996307373046875,0.1220703125,0.42724609375,0.0,0.1268310546875,0.02001953125,0.997314453125,-29.0,-239.0,-34.0,101943.0,-5.133000373840332,0,0
1851.380995,-0.056671142578125,0.063079833984375,0.012237548828125,0.996307373046875,0.244140625,0.06103515625,-0.244140625,0.1279296875,0.016845703125,0.997802734375,-29.0,-239.0,-34.0,101943.0,-5.133000373840332,0,0
1851.387995,-0.056488037109375,0.063079833984375,0.012237548828125,0.996307373046875,-0.06103515625,0.42724609375,0.06103515625,0.1279296875,0.0194091796875,0.998046875,-30.0,-240.0,-32.0,101943.0,-5.133000373840332,0,0
1851.39502,-0.056488037109375,0.063079833984375,0.012237548828125,0.996307373046875,0.244140625,0.30517578125,-0.1220703125,0.1282958984375,0.017578125,0.9981689453125,-30.0,-240.0,-32.0,101943.0,-5.133000373840332,0,0
1851.401999,-0.056488037109375,0.063079833984375,0.012237548828125,0.996307373046875,0.06103515625,0.30517578125,0.244140625,0.12646484375,0.0174560546875,0.9974365234375,-30.0,-240.0,-32.0,101943.0,-5.133000373840332,0,0
1851.409016,-0.056488037109375,0.063079833984375,0.012237548828125,0.996307373046875,-0.06103515625,0.18310546875,-0.06103515625,0.128173828125,0.017822265625,1.0003662109375,-30.0,-240.0,-32.0,101943.0,-5.133000373840332,0,0
1851.415997,-0.056488037109375,0.063079833984375,0.012237548828125,0.996307373046875,0.06103515625,0.244140625,0.1220703125,0.12744140625,0.01708984375,0.99951171875,-30.0,-240.0,-32.0,101943.0,-5.133000373840332,0,0
1851.422997,-0.056488037109375,0.063079833984375,0.012237548828125,0.996307373046875,-0.18310546875,0.244140625,-0.244140625,0.1290283203125,0.01708984375,0.9976806640625,-30.0,-240.0,-32.0,101943.0,-5.133000373840332,0,0
1851.430022,-0.056488037109375,0.063079833984375,0.01220703125,0.996307373046875,-0.244140625,0.30517578125,-0.244140625,0.127197265625,0.015625,0.998779296875,-30.0,-240.0,-32.0,101943.0,-5.133000373840332,0,0
1851.437001,-0.056488037109375,0.06304931640625,0.01220703125,0.996307373046875,-0.1220703125,0.244140625,-0.1220703125,0.1270751953125,0.0172119140625,0.9970703125,-30.0,-240.0,-32.0,101943.0,-5.133000373840332,0,0
1851.444015,-0.056488037109375,0.063079833984375,0.01220703125,0.996307373046875,0.18310546875,0.244140625,-0.1220703125,0.1295166015625,0.0205078125,0.99755859375,-30.0,-240.0,-32.0,101943.0,-5.133000373840332,0,0
1851.464018,-0.056488037109375,0.063079833984375,0.01220703125,0.996307373046875,0.0,0.244140625,0.30517578125,0.127685546875,0.015869140625,0.99755859375,-30.0,-240.0,-32.0,101943.0,-5.133000373840332,0,0
1851.470995,-0.056488037109375,0.06304931640625,0.01220703125,0.996307373046875,0.18310546875,0.3662109375,0.30517578125,0.1275634765625,0.0184326171875,0.9974365234375,-30.0,-240.0,-32.0,101943.0,-5.133000373840332,0,0
1851.477995,-0.056488037109375,0.06304931640625,0.01220703125,0.996307373046875,-0.1220703125,0.1220703125,0.1220703125,0.1270751953125,0.0167236328125,0.9986572265625,-30.0,-240.0,-32.0,101943.0,-5.133000373840332,0,0
1851.48502,-0.056488037109375,0.06304931640625,0.01220703125,0.996307373046875,0.1220703125,0.30517578125,-0.1220703125,0.1287841796875,0.0155029296875,0.9996337890625,-31.0,-239.0,-32.0,101943.0,-5.13200044631958,0,0
1851.491999,-0.056365966796875,0.063079833984375,0.01220703125,0.996337890625,0.1220703125,0.3662109375,0.0,0.128173828125,0.017578125,0.9991455078125,-31.0,-239.0,-32.0,101943.0,-5.13200044631958,0,0
1851.499016,-0.056365966796875,0.063079833984375,0.01220703125,0.996337890625,0.0,0.3662109375,0.0,0.128173828125,0.0162353515625,0.99853515625,-31.0,-239.0,-32.0,101943.0,-5.13200044631958,0,0
1851.505998,-0.056365966796875,0.063079833984375,0.01220703125,0.996337890625,0.18310546875,0.244140625,0.06103515625,0.1279296875,0.0177001953125,0.9989013671875,-31.0,-239.0,-32.0,101943.0,-5.13200044631958,0,0
1851.512997,-0.056365966796875,0.063079833984375,0.01220703125,0.996337890625,-0.18310546875,0.244140625,-0.06103515625,0.1268310546875,0.0155029296875,0.999267578125,-31.0,-239.0,-32.0,101943.0,-5.13200044631958,0,0
1851.520022,-0.056365966796875,0.063079833984375,0.012176513671875,0.996337890625,0.0,0.1220703125,0.1220703125,0.1280517578125,0.0152587890625,0.9996337890625,-31.0,-239.0,-32.0,101943.0,-5.13200044631958,0,0
1851.527001,-0.056365966796875,0.06304931640625,0.01220703125,0.996337890625,-0.18310546875,0.244140625,0.06103515625,0.12744140625,0.0181884765625,0.9993896484375,-31.0,-239.0,-32.0,101943.0,-5.13200044631958,0,0
1851.534015,-0.056365966796875,0.06304931640625,0.01220703125,0.996337890625,0.1220703125,0.18310546875,0.0,0.127685546875,0.017578125,0.9974365234375,-31.0,-239.0,-32.0,101943.0,-5.13200044631958,0,0
1851.554018,-0.056365966796875,0.06304931640625,0.01220703125,0.996337890625,0.06103515625,0.30517578125,0.06103515625,0.1273193359375,0.015625,0.9991455078125,-31.0,-239.0,-32.0,101943.0,-5.13200044631958,0,0
1851.560995,-0.056365966796875,0.06304931640625,0.01220703125,0.996337890625,0.0,0.42724609375,-0.06103515625,0.127197265625,0.016845703125,0.998046875,-31.0,-239.0,-32.0,101943.0,-5.13200044631958,0,0
1851.568,-0.056365966796875,0.06304931640625,0.012176513671875,0.996337890625,-0.06103515625,0.18310546875,-0.06103515625,0.1270751953125,0.0164794921875,0.9967041015625,-31.0,-239.0,-32.0,101943.0,-5.13200044631958,0,0
1851.57502,-0.056365966796875,0.063018798828125,0.01220703125,0.996337890625,0.1220703125,0.18310546875,0.06103515625,0.1260986328125,0.0177001953125,0.99560546875,-31.0,-239.0,-32.0,101943.0,-5.13200044631958,0,0
1851.581999,-0.056365966796875,0.063018798828125,0.01220703125,0.996337890625,0.1220703125,0.30517578125,0.1220703125,0.12646484375,0.0164794921875,0.997802734375,-31.0,-239.0,-32.0,101943.0,-5.13200044631958,0,0
1851.589016,-0.0562744140625,0.06304931640625,0.012176513671875,0.996337890625,0.3662109375,0.0,0.18310546875,0.129638671875,0.01513671875,0.9986572265625,-31.0,-240.0,-32.0,101943.0,-5.13200044631958,0,0
1851.595998,-0.0562744140625,0.06304931640625,0.012176513671875,0.996337890625,-0.1220703125,0.1220703125,0.0,0.1275634765625,0.017822265625,0.9998779296875,-31.0,-240.0,-32.0,101943.0,-5.13200044631958,0,0
1851.602997,-0.0562744140625,0.063018798828125,0.012176513671875,0.996337890625,0.0,0.244140625,0.30517578125,0.1260986328125,0.017333984375,0.999755859375,-31.0,-240.0,-32.0,101943.0,-5.13200044631958,0,0
1851.610022,-0.0562744140625,0.063018798828125,0.012176513671875,0.996337890625,0.0,0.0,0.0,0.1273193359375,0.0169677734375,0.9984130859375,-31.0,-240.0,-32.0,101943.0,-5.13200044631958,0,0
1851.617001,-0.0562744140625,0.063018798828125,0.012176513671875,0.996337890625,-0.1220703125,0.30517578125,0.0,0.1290283203125,0.019775390625,0.9969482421875,-31.0,-240.0,-32.0,101943.0,-5.13200044631958,0,0
1851.624015,-0.0562744140625,0.06304931640625,0.01220703125,0.996337890625,0.06103515625,0.42724609375,-0.06103515625,0.1292724609375,0.019775390625,0.9984130859375,-31.0,-240.0,-32.0,101943.0,-5.13200044631958,0,0
1851.631,-0.0562744140625,0.063018798828125,0.01220703125,0.996337890625,0.0,0.244140625,-0.1220703125,0.1268310546875,0.0196533203125,0.99755859375,-31.0,-240.0,-32.0,101943.0,-5.13200044631958,0,0
1851.637033,-0.0562744140625,0.063018798828125,0.01220703125,0.996337890625,0.0,0.244140625,-0.1220703125,0.1268310546875,0.0196533203125,0.99755859375,-31.0,-240.0,-32.0,101943.0,-5.13200044631958,0,0
1851.644018,-0.0562744140625,0.063018798828125,0.01220703125,0.996337890625,0.0,0.30517578125,-0.1220703125,0.1253662109375,0.0179443359375,0.99951171875,-31.0,-240.0,-32.0,101943.0,-5.13200044631958,0,0
1851.650996,-0.0562744140625,0.063018798828125,0.01220703125,0.996337890625,-0.1220703125,0.244140625,0.0,0.12890625,0.0177001953125,0.996826171875,-31.0,-240.0,-32.0,101943.0,-5.13200044631958,0,0
1851.658,-0.0562744140625,0.063018798828125,0.01220703125,0.996337890625,0.06103515625,0.18310546875,-0.18310546875,0.1297607421875,0.0179443359375,0.997314453125,-31.0,-240.0,-32.0,101943.0,-5.13200044631958,0,0
1851.66502,-0.0562744140625,0.063018798828125,0.012237548828125,0.996337890625,-0.244140625,0.244140625,-0.244140625,0.1270751953125,0.0196533203125,0.9971923828125,-31.0,-240.0,-32.0,101943.0,-5.13200044631958,0,0
1851.671999,-0.0562744140625,0.063018798828125,0.012237548828125,0.996337890625,0.0,0.244140625,0.06103515625,0.1280517578125,0.0186767578125,0.9996337890625,-31.0,-240.0,-32.0,101943.0,-5.13200044631958,0,0
1851.679016,-0.0562744140625,0.063018798828125,0.012237548828125,0.996337890625,0.0,0.18310546875,0.244140625,0.1268310546875,0.0185546875,0.9981689453125,-31.0,-240.0,-32.0,101943.0,-5.13200044631958,0,0
1851.685998,-0.0562744140625,0.063018798828125,0.012237548828125,0.996337890625,0.1220703125,0.244140625,0.0,0.1240234375,0.01708984375,0.9964599609375,-31.0,-240.0,-33.0,101943.0,-5.13200044631958,0,0
1851.692997,-0.05615234375,0.063018798828125,0.012237548828125,0.996337890625,0.244140625,0.30517578125,0.1220703125,0.1298828125,0.016845703125,0.9974365234375,-31.0,-240.0,-33.0,101943.0,-5.13200044631958,0,0
1851.700022,-0.05615234375,0.063018798828125,0.012237548828125,0.996337890625,0.0,0.18310546875,-0.06103515625,0.128173828125,0.017578125,0.996826171875,-31.0,-240.0,-33.0,101943.0,-5.13200044631958,0,0
1851.707001,-0.05615234375,0.063018798828125,0.01220703125,0.996337890625,-0.244140625,0.1220703125,-0.06103515625,0.128662109375,0.0155029296875,0.9998779296875,-31.0,-240.0,-33.0,101943.0,-5.13200044631958,0,0
1851.727027,-0.05615234375,0.063018798828125,0.01220703125,0.996337890625,-0.1220703125,0.18310546875,-0.244140625,0.1268310546875,0.01953125,0.9998779296875,-31.0,-240.0,-33.0,101943.0,-5.13200044631958,0,0
1851.734019,-0.05615234375,0.063018798828125,0.012237548828125,0.996337890625,-0.244140625,0.3662109375,0.0,0.1280517578125,0.0194091796875,0.9971923828125,-31.0,-240.0,-33.0,101943.0,-5.13200044631958,0,0
1851.740995,-0.05615234375,0.063018798828125,0.012237548828125,0.996337890625,0.3662109375,0.18310546875,0.0,0.126220703125,0.017578125,0.9993896484375,-31.0,-240.0,-33.0,101943.0,-5.13200044631958,0,0
1851.747995,-0.05615234375,0.063018798828125,0.012237548828125,0.996337890625,0.244140625,0.42724609375,0.0,0.1287841796875,0.018310546875,0.997314453125,-31.0,-240.0,-33.0,101943.0,-5.13200044631958,0,0
1851.75502,-0.05615234375,0.063018798828125,0.012237548828125,0.996337890625,-0.06103515625,0.3662109375,-0.18310546875,0.12841796875,0.018310546875,0.999267578125,-31.0,-240.0,-33.0,101943.0,-5.13200044631958,0,0
1851.761999,-0.05615234375,0.063018798828125,0.012237548828125,0.996337890625,-0.1220703125,0.3662109375,0.0,0.12890625,0.01904296875,0.99853515625,-31.0,-240.0,-33.0,101943.0,-5.13200044631958,0,0
1851.769016,-0.05615234375,0.063018798828125,0.012237548828125,0.996337890625,0.0,0.3662109375,-0.42724609375,0.127197265625,0.01611328125,0.9981689453125,-31.0,-240.0,-33.0,101943.0,-5.13200044631958,0,0
1851.775997,-0.05615234375,0.063018798828125,0.012237548828125,0.996337890625,0.0,0.30517578125,-0.06103515625,0.128173828125,0.0181884765625,0.9979248046875,-31.0,-240.0,-33.0,101943.0,-5.13200044631958,0,0
1851.782997,-0.05615234375,0.063018798828125,0.012237548828125,0.996337890625,-0.1220703125,0.244140625,-0.06103515625,0.1282958984375,0.0184326171875,0.9971923828125,-31.0,-240.0,-33.0,101943.0,-5.13200044631958,0,0
1851.790022,-0.056060791015625,0.063018798828125,0.012237548828125,0.996337890625,0.06103515625,0.30517578125,0.244140625,0.128662109375,0.018798828125,0.9964599609375,-31.0,-243.0,-32.0,101943.0,-5.133000373840332,0,0
1851.797001,-0.056060791015625,0.063018798828125,0.012237548828125,0.996337890625,0.1220703125,0.18310546875,0.0,0.1268310546875,0.0174560546875,0.99755859375,-31.0,-243.0,-32.0,101943.0,-5.133000373840332,0,0
1851.817995,-0.056060791015625,0.063018798828125,0.01226806640625,0.996337890625,-0.1220703125,0.30517578125,-0.18310546875,0.126708984375,0.015625,0.9967041015625,-31.0,-243.0,-32.0,101943.0,-5.133000373840332,0,0
1851.824023,-0.056060791015625,0.063018798828125,0.01226806640625,0.996337890625,-0.1220703125,0.30517578125,-0.18310546875,0.126708984375,0.015625,0.9967041015625,-31.0,-243.0,-32.0,101943.0,-5.133000373840332,0,0
1851.830995,-0.056060791015625,0.063018798828125,0.01226806640625,0.996337890625,-0.1220703125,0.244140625,-0.1220703125,0.130126953125,0.01953125,0.999267578125,-31.0,-243.0,-32.0,101943.0,-5.133000373840332,0,0
1851.837996,-0.056060791015625,0.063018798828125,0.01226806640625,0.996337890625,0.18310546875,0.30517578125,-0.06103515625,0.128173828125,0.0167236328125,0.9962158203125,-31.0,-243.0,-32.0,101943.0,-5.133000373840332,0,0
1851.84502,-0.056060791015625,0.063018798828125,0.01226806640625,0.996337890625,-0.06103515625,0.30517578125,0.1220703125,0.1304931640625,0.0169677734375,0.9969482421875,-31.0,-243.0,-32.0,101943.0,-5.133000373840332,0,0
1851.851999,-0.056060791015625,0.063018798828125,0.01226806640625,0.996337890625,0.244140625,0.30517578125,0.0,0.126708984375,0.018798828125,0.9974365234375,-31.0,-243.0,-32.0,101943.0,-5.133000373840332,0,0
1851.859016,-0.056060791015625,0.063018798828125,0.01226806640625,0.996337890625,-0.06103515625,0.1220703125,-0.06103515625,0.1251220703125,0.01953125,0.998046875,-31.0,-243.0,-32.0,101943.0,-5.133000373840332,0,0
1851.865998,-0.056060791015625,0.063018798828125,0.01226806640625,0.996337890625,-0.06103515625,0.18310546875,0.1220703125,0.1295166015625,0.0174560546875,0.9964599609375,-31.0,-243.0,-32.0,101943.0,-5.133000373840332,0,0
1851.872997,-0.056060791015625,0.063018798828125,0.01226806640625,0.996337890625,-0.06103515625,0.18310546875,0.1220703125,0.1278076171875,0.0167236328125,0.9957275390625,-31.0,-243.0,-32.0,101943.0,-5.133000373840332,0,0
1851.880022,-0.056060791015625,0.063018798828125,0.01226806640625,0.996337890625,0.0,0.3662109375,0.0,0.128173828125,0.0167236328125,0.9981689453125,-31.0,-243.0,-32.0,101943.0,-5.133000373840332,0,0
1851.887001,-0.056060791015625,0.06304931640625,0.01226806640625,0.996337890625,-0.18310546875,0.18310546875,-0.06103515625,0.128662109375,0.020751953125,0.9990234375,-30.0,-242.0,-30.0,101943.0,-5.133000373840332,0,0
1851.894015,-0.05596923828125,0.063018798828125,0.01226806640625,0.996337890625,-0.1220703125,0.3662109375,0.1220703125,0.125732421875,0.0164794921875,0.9959716796875,-30.0,-242.0,-30.0,101943.0,-5.133000373840332,0,0
1851.901,-0.05596923828125,0.06304931640625,0.01226806640625,0.996337890625,-0.06103515625,0.1220703125,-0.18310546875,0.1292724609375,0.01708984375,0.9962158203125,-30.0,-242.0,-30.0,101943.0,-5.133000373840332,0,0
1851.907999,-0.05596923828125,0.06304931640625,0.012237548828125,0.996337890625,-0.1220703125,0.1220703125,0.06103515625,0.1278076171875,0.0147705078125,0.9981689453125,-30.0,-242.0,-30.0,101943.0,-5.133000373840332,0,0
1851.914032,-0.05596923828125,0.06304931640625,0.012237548828125,0.996337890625,-0.1220703125,0.1220703125,0.06103515625,0.1278076171875,0.0147705078125,0.9981689453125,-30.0,-242.0,-30.0,101943.0,-5.133000373840332,0,0
1851.920996,-0.05596923828125,0.06304931640625,0.01226806640625,0.996337890625,-0.06103515625,0.30517578125,0.18310546875,0.12841796875,0.0167236328125,0.99853515625,-30.0,-242.0,-30.0,101943.0,-5.133000373840332,0,0
1851.928,-0.05596923828125,0.06304931640625,0.012237548828125,0.996337890625,-0.1220703125,0.18310546875,0.0,0.1292724609375,0.0169677734375,0.997314453125,-30.0,-242.0,-30.0,101943.0,-5.133000373840332,0,0
1851.93502,-0.05596923828125,0.063079833984375,0.012237548828125,0.996337890625,0.0,0.06103515625,-0.18310546875,0.1292724609375,0.017333984375,0.99560546875,-30.0,-242.0,-30.0,101943.0,-5.133000373840332,0,0
1851.941999,-0.05596923828125,0.063079833984375,0.01226806640625,0.996337890625,-0.244140625,0.1220703125,0.18310546875,0.127685546875,0.0201416015625,0.9969482421875,-30.0,-242.0,-30.0,101943.0,-5.133000373840332,0,0
1851.949016,-0.05596923828125,0.063079833984375,0.01226806640625,0.996337890625,0.244140625,0.3662109375,-0.06103515625,0.1280517578125,0.0174560546875,0.9979248046875,-30.0,-242.0,-30.0,101943.0,-5.133000373840332,0,0
1851.955998,-0.05596923828125,0.063079833984375,0.01226806640625,0.996337890625,0.1220703125,0.244140625,0.0,0.1285400390625,0.0174560546875,0.99755859375,-30.0,-242.0,-30.0,101943.0,-5.133000373840332,0,0
1851.962997,-0.05596923828125,0.06304931640625,0.01226806640625,0.996337890625,0.06103515625,0.30517578125,0.0,0.125244140625,0.016845703125,0.9984130859375,-30.0,-242.0,-30.0,101943.0,-5.133000373840332,0,0
1851.970022,-0.05596923828125,0.06304931640625,0.01226806640625,0.996337890625,-0.1220703125,0.18310546875,0.06103515625,0.128173828125,0.017333984375,0.997802734375,-30.0,-242.0,-30.0,101943.0,-5.133000373840332,0,0
1851.990995,-0.05596923828125,0.06304931640625,0.01226806640625,0.996337890625,0.06103515625,0.1220703125,0.1220703125,0.1273193359375,0.01904296875,0.997314453125,-31.0,-244.0,-31.0,101942.0,-5.13100004196167,0,0
1851.997995,-0.05596923828125,0.063079833984375,0.01226806640625,0.996337890625,0.06103515625,0.30517578125,-0.18310546875,0.12890625,0.0185546875,0.997314453125,-31.0,-244.0,-31.0,101942.0,-5.13100004196167,0,0
1852.005019,-0.05596923828125,0.063079833984375,0.01226806640625,0.996337890625,-0.06103515625,0.42724609375,0.1220703125,0.12939453125,0.0196533203125,0.997314453125,-31.0,-244.0,-31.0,101942.0,-5.13100004196167,0,0
1852.011052,-0.05596923828125,0.063079833984375,0.01226806640625,0.996337890625,-0.06103515625,0.42724609375,0.1220703125,0.12939453125,0.0196533203125,0.997314453125,-31.0,-244.0,-31.0,101942.0,-5.13100004196167,0,0
1852.017995,-0.05596923828125,0.063079833984375,0.012298583984375,0.996337890625,0.0,0.30517578125,-0.1220703125,0.1285400390625,0.017578125,0.998291015625,-31.0,-244.0,-31.0,101942.0,-5.13100004196167,0,0
1852.02502,-0.05596923828125,0.063079833984375,0.012298583984375,0.996337890625,0.06103515625,0.30517578125,0.06103515625,0.1280517578125,0.0177001953125,0.9970703125,-31.0,-244.0,-31.0,101942.0,-5.13100004196167,0,0
1852.031999,-0.05596923828125,0.063079833984375,0.012298583984375,0.996337890625,-0.06103515625,0.18310546875,0.0,0.1273193359375,0.01904296875,0.9989013671875,-31.0,-244.0,-31.0,101942.0,-5.13100004196167,0,0
1852.039016,-0.05596923828125,0.063079833984375,0.01226806640625,0.996337890625,0.1220703125,0.42724609375,0.30517578125,0.12890625,0.0162353515625,0.9986572265625,-31.0,-244.0,-31.0,101942.0,-5.13100004196167,0,0
1852.045997,-0.05596923828125,0.063079833984375,0.01226806640625,0.996337890625,-0.244140625,0.06103515625,0.0,0.126708984375,0.0169677734375,0.9981689453125,-31.0,-244.0,-31.0,101942.0,-5.13100004196167,0,0
1852.052997,-0.05596923828125,0.063079833984375,0.01226806640625,0.996337890625,0.0,0.18310546875,0.18310546875,0.126220703125,0.0174560546875,0.9976806640625,-31.0,-244.0,-31.0,101942.0,-5.13100004196167,0,0
1852.074015,-0.05596923828125,0.0631103515625,0.01226806640625,0.996337890625,-0.1220703125,0.42724609375,-0.1220703125,0.1290283203125,0.0166015625,0.9976806640625,-31.0,-244.0,-31.0,101942.0,-5.13100004196167,0,0
1852.080996,-0.05596923828125,0.0631103515625,0.01226806640625,0.996337890625,-0.18310546875,0.30517578125,0.1220703125,0.1279296875,0.020263671875,0.9976806640625,-31.0,-244.0,-31.0,101942.0,-5.13200044631958,0,0
1852.087995,-0.05596923828125,0.063079833984375,0.01226806640625,0.996337890625,-0.1220703125,0.42724609375,0.0,0.126953125,0.0177001953125,0.996826171875,-31.0,-243.0,-31.0,101942.0,-5.13200044631958,0,0
1852.095019,-0.05596923828125,0.0631103515625,0.01226806640625,0.996337890625,-0.06103515625,0.244140625,-0.1220703125,0.1273193359375,0.0167236328125,0.9964599609375,-31.0,-243.0,-31.0,101942.0,-5.13200044631958,0,0
1852.101052,-0.05596923828125,0.0631103515625,0.01226806640625,0.996337890625,-0.06103515625,0.244140625,-0.1220703125,0.1273193359375,0.0167236328125,0.9964599609375,-31.0,-243.0,-31.0,101942.0,-5.13200044631958,0,0
1852.107995,-0.05596923828125,0.0631103515625,0.01226806640625,0.996337890625,-0.06103515625,0.18310546875,-0.06103515625,0.1279296875,0.017333984375,0.99755859375,-31.0,-243.0,-31.0,101942.0,-5.13200044631958,0,0
1852.11502,-0.05596923828125,0.0631103515625,0.01226806640625,0.996337890625,0.06103515625,0.3662109375,-0.1220703125,0.1290283203125,0.0166015625,0.995849609375,-31.0,-243.0,-31.0,101942.0,-5.13200044631958,0,0
1852.121999,-0.05596923828125,0.0631103515625,0.01226806640625,0.996337890625,-0.06103515625,0.30517578125,-0.30517578125,0.127685546875,0.01904296875,0.9989013671875,-31.0,-243.0,-31.0,101942.0,-5.13200044631958,0,0
1852.129016,-0.05596923828125,0.0631103515625,0.01226806640625,0.996337890625,0.1220703125,0.244140625,0.1220703125,0.127197265625,0.0177001953125,0.996337890625,-31.0,-243.0,-31.0,101942.0,-5.13200044631958,0,0
1852.135998,-0.05596923828125,0.0631103515625,0.01226806640625,0.996337890625,0.0,0.1220703125,-0.1220703125,0.1298828125,0.0174560546875,0.997802734375,-31.0,-243.0,-31.0,101942.0,-5.13200044631958,0,0
1852.142997,-0.05596923828125,0.0631103515625,0.012298583984375,0.996337890625,0.1220703125,0.244140625,0.18310546875,0.1287841796875,0.0166015625,0.9951171875,-31.0,-243.0,-31.0,101942.0,-5.13200044631958,0,0
1852.150022,-0.05596923828125,0.0631103515625,0.01226806640625,0.996337890625,0.06103515625,0.244140625,-0.06103515625,0.12939453125,0.0166015625,0.996826171875,-31.0,-243.0,-31.0,101942.0,-5.13200044631958,0,0
1852.157001,-0.05596923828125,0.0631103515625,0.012298583984375,0.996337890625,-0.18310546875,0.18310546875,-0.18310546875,0.12841796875,0.0172119140625,0.9976806640625,-31.0,-243.0,-31.0,101942.0,-5.13200044631958,0,0
1852.164015,-0.05596923828125,0.0631103515625,0.01226806640625,0.996337890625,-0.06103515625,0.42724609375,0.1220703125,0.1256103515625,0.01611328125,0.9981689453125,-31.0,-243.0,-31.0,101942.0,-5.13200044631958,0,0
1852.171,-0.05596923828125,0.0631103515625,0.012298583984375,0.996337890625,0.0,0.1220703125,0.06103515625,0.1280517578125,0.01806640625,0.9984130859375,-31.0,-243.0,-31.0,101942.0,-5.13200044631958,0,0
1852.177999,-0.05596923828125,0.063140869140625,0.01226806640625,0.996337890625,-0.18310546875,0.244140625,-0.1220703125,0.1304931640625,0.0169677734375,0.9984130859375,-31.0,-243.0,-31.0,101942.0,-5.13200044631958,0,0
1852.18502,-0.05596923828125,0.063140869140625,0.01226806640625,0.996337890625,0.06103515625,0.244140625,0.244140625,0.1287841796875,0.0150146484375,0.998046875,-32.0,-243.0,-30.0,101943.0,-5.13200044631958,0,0
1852.192003,-0.056060791015625,0.063140869140625,0.012298583984375,0.996337890625,0.0,0.1220703125,0.1220703125,0.127685546875,0.0181884765625,0.99609375,-32.0,-243.0,-30.0,101943.0,-5.13200044631958,0,0
1852.198036,-0.056060791015625,0.063140869140625,0.012298583984375,0.996337890625,0.0,0.1220703125,0.1220703125,0.127685546875,0.0181884765625,0.99609375,-32.0,-243.0,-30.0,101943.0,-5.13200044631958,0,0
1852.20502,-0.056060791015625,0.063140869140625,0.012298583984375,0.996337890625,0.0,0.06103515625,0.06103515625,0.12841796875,0.019287109375,0.9979248046875,-32.0,-243.0,-30.0,101943.0,-5.13200044631958,0,0
1852.211999,-0.056060791015625,0.063140869140625,0.012298583984375,0.996337890625,-0.1220703125,0.30517578125,0.06103515625,0.128173828125,0.017822265625,0.99853515625,-32.0,-243.0,-30.0,101943.0,-5.13200044631958,0,0
1852.219016,-0.056060791015625,0.063140869140625,0.012298583984375,0.996337890625,0.06103515625,0.3662109375,-0.1220703125,0.126220703125,0.017578125,1.0001220703125,-32.0,-243.0,-30.0,101943.0,-5.13200044631958,0,0
1852.225998,-0.056060791015625,0.063140869140625,0.012298583984375,0.996337890625,0.0,0.244140625,0.06103515625,0.128662109375,0.0185546875,0.997314453125,-32.0,-243.0,-30.0,101943.0,-5.13200044631958,0,0
1852.247001,-0.056060791015625,0.063140869140625,0.012298583984375,0.996337890625,-0.1220703125,0.30517578125,0.06103515625,0.12841796875,0.0184326171875,0.9967041015625,-32.0,-243.0,-30.0,101943.0,-5.13200044631958,0,0
1852.254015,-0.056060791015625,0.0631103515625,0.01226806640625,0.996337890625,-0.1220703125,0.06103515625,-0.06103515625,0.126708984375,0.01611328125,0.9962158203125,-32.0,-243.0,-30.0,101943.0,-5.13200044631958,0,0
1852.261,-0.056060791015625,0.0631103515625,0.01226806640625,0.996337890625,0.1220703125,0.1220703125,0.0,0.1275634765625,0.0181884765625,0.9971923828125,-32.0,-243.0,-30.0,101943.0,-5.13200044631958,0,0
1852.267995,-0.056060791015625,0.0631103515625,0.01226806640625,0.996337890625,0.1220703125,0.1220703125,0.0,0.1275634765625,0.0181884765625,0.9971923828125,-32.0,-243.0,-30.0,101943.0,-5.13200044631958,0,0
1852.275019,-0.056060791015625,0.0631103515625,0.01226806640625,0.996337890625,0.06103515625,0.30517578125,0.1220703125,0.1263427734375,0.0179443359375,0.99755859375,-32.0,-243.0,-30.0,101943.0,-5.13200044631958,0,0
1852.282003,-0.056060791015625,0.0631103515625,0.01226806640625,0.996337890625,-0.18310546875,0.18310546875,-0.06103515625,0.1279296875,0.0185546875,0.9970703125,-32.0,-244.0,-30.0,101942.0,-5.13200044631958,0,0
1852.288036,-0.056060791015625,0.0631103515625,0.01226806640625,0.996337890625,-0.18310546875,0.18310546875,-0.06103515625,0.1279296875,0.0185546875,0.9970703125,-32.0,-244.0,-30.0,101942.0,-5.13200044631958,0,0
1852.29502,-0.05615234375,0.0631103515625,0.01226806640625,0.996337890625,-0.06103515625,0.244140625,-0.244140625,0.1265869140625,0.0172119140625,0.99609375,-32.0,-244.0,-30.0,101942.0,-5.13200044631958,0,0
1852.301999,-0.05615234375,0.0631103515625,0.01226806640625,0.996337890625,0.06103515625,0.48828125,0.1220703125,0.128662109375,0.0179443359375,0.9976806640625,-32.0,-244.0,-30.0,101942.0,-5.13200044631958,0,0
1852.309016,-0.05615234375,0.0631103515625,0.01226806640625,0.996337890625,-0.1220703125,0.18310546875,0.06103515625,0.1297607421875,0.017578125,0.9976806640625,-32.0,-244.0,-30.0,101942.0,-5.13200044631958,0,0
1852.315997,-0.05615234375,0.0631103515625,0.01226806640625,0.996337890625,0.06103515625,0.244140625,-0.18310546875,0.1278076171875,0.0169677734375,0.9959716796875,-32.0,-244.0,-30.0,101942.0,-5.13200044631958,0,0
1852.337001,-0.05615234375,0.0631103515625,0.012298583984375,0.996337890625,-0.1220703125,0.3662109375,0.06103515625,0.127685546875,0.019775390625,0.9996337890625,-32.0,-244.0,-30.0,101942.0,-5.13200044631958,0,0
1852.344015,-0.05615234375,0.063079833984375,0.012298583984375,0.996337890625,0.06103515625,0.30517578125,-0.06103515625,0.1260986328125,0.0164794921875,0.99755859375,-32.0,-244.0,-30.0,101942.0,-5.13200044631958,0,0
1852.350995,-0.05615234375,0.063079833984375,0.012298583984375,0.996337890625,-0.244140625,0.30517578125,0.0,0.126953125,0.018310546875,0.99609375,-32.0,-244.0,-30.0,101942.0,-5.13200044631958,0,0
1852.357995,-0.05615234375,0.063079833984375,0.012298583984375,0.996337890625,0.06103515625,0.244140625,-0.06103515625,0.12646484375,0.0185546875,0.9970703125,-32.0,-244.0,-30.0,101942.0,-5.13200044631958,0,0
1852.365019,-0.05615234375,0.063079833984375,0.012298583984375,0.996337890625,0.18310546875,0.30517578125,-0.06103515625,0.1260986328125,0.0177001953125,0.9984130859375,-32.0,-244.0,-30.0,101942.0,-5.13200044631958,0,0
1852.372003,-0.05615234375,0.063079833984375,0.012298583984375,0.996337890625,-0.1220703125,0.244140625,0.18310546875,0.1270751953125,0.0181884765625,0.998779296875,-32.0,-244.0,-30.0,101942.0,-5.13200044631958,0,0
1852.379018,-0.05615234375,0.063079833984375,0.01226806640625,0.996337890625,-0.1220703125,0.18310546875,0.0,0.127197265625,0.01806640625,0.99755859375,-32.0,-244.0,-30.0,101942.0,-5.13200044631958,0,0
1852.385046,-0.05615234375,0.063079833984375,0.01226806640625,0.996337890625,-0.1220703125,0.18310546875,0.0,0.127197265625,0.01806640625,0.99755859375,-32.0,-244.0,-30.0,101942.0,-5.13200044631958,0,0
1852.391999,-0.05615234375,0.06304931640625,0.01226806640625,0.996337890625,0.0,0.42724609375,0.06103515625,0.1273193359375,0.0167236328125,0.9974365234375,-31.0,-244.0,-31.0,101943.0,-5.133000373840332,0,0
1852.399016,-0.05615234375,0.063079833984375,0.012298583984375,0.996337890625,0.0,0.18310546875,-0.1220703125,0.129638671875,0.018798828125,0.9967041015625,-31.0,-244.0,-31.0,101943.0,-5.133000373840332,0,0
1852.405998,-0.05615234375,0.06304931640625,0.012298583984375,0.996337890625,0.0,0.30517578125,-0.1220703125,0.1256103515625,0.0185546875,0.996826171875,-31.0,-244.0,-31.0,101943.0,-5.133000373840332,0,0
1852.412997,-0.05615234375,0.063079833984375,0.012298583984375,0.996337890625,-0.244140625,0.18310546875,-0.06103515625,0.128173828125,0.0169677734375,0.997314453125,-31.0,-244.0,-31.0,101943.0,-5.133000373840332,0,0
1852.420022,-0.05615234375,0.063079833984375,0.012298583984375,0.996337890625,0.18310546875,0.30517578125,0.1220703125,0.129150390625,0.0167236328125,0.996337890625,-31.0,-244.0,-31.0,101943.0,-5.133000373840332,0,0
1852.427001,-0.05615234375,0.06304931640625,0.012298583984375,0.996337890625,0.18310546875,0.244140625,0.06103515625,0.1260986328125,0.0177001953125,0.996826171875,-31.0,-244.0,-31.0,101943.0,-5.133000373840332,0,0
1852.434015,-0.05615234375,0.06304931640625,0.012298583984375,0.996337890625,0.244140625,0.1220703125,0.0,0.127197265625,0.017822265625,0.99755859375,-31.0,-244.0,-31.0,101943.0,-5.133000373840332,0,0
1852.440995,-0.05615234375,0.06304931640625,0.012298583984375,0.996337890625,0.1220703125,0.0,0.18310546875,0.1259765625,0.01806640625,0.9969482421875,-31.0,-244.0,-31.0,101943.0,-5.133000373840332,0,0
1852.447995,-0.05615234375,0.06304931640625,0.012298583984375,0.996337890625,-0.244140625,0.3662109375,0.1220703125,0.1280517578125,0.0169677734375,0.9990234375,-31.0,-244.0,-31.0,101943.0,-5.133000373840332,0,0
1852.455019,-0.05615234375,0.06304931640625,0.012298583984375,0.996337890625,0.244140625,0.30517578125,0.06103515625,0.1248779296875,0.0184326171875,0.998779296875,-31.0,-244.0,-31.0,101943.0,-5.133000373840332,0,0
1852.462003,-0.05615234375,0.06304931640625,0.012298583984375,0.996337890625,0.0,0.244140625,0.06103515625,0.126953125,0.0174560546875,0.9986572265625,-31.0,-244.0,-31.0,101943.0,-5.133000373840332,0,0
1852.469018,-0.05615234375,0.06304931640625,0.012298583984375,0.996337890625,0.0,0.3662109375,-0.06103515625,0.12744140625,0.0166015625,0.9964599609375,-31.0,-244.0,-31.0,101943.0,-5.133000373840332,0,0
1852.475051,-0.05615234375,0.06304931640625,0.012298583984375,0.996337890625,0.0,0.3662109375,-0.06103515625,0.12744140625,0.0166015625,0.9964599609375,-31.0,-244.0,-31.0,101943.0,-5.133000373840332,0,0
1852.481999,-0.05615234375,0.06304931640625,0.01226806640625,0.996337890625,0.0,0.1220703125,-0.06103515625,0.1280517578125,0.0179443359375,0.998779296875,-31.0,-243.0,-32.0,101943.0,-5.133000373840332,0,0
1852.489016,-0.056060791015625,0.06304931640625,0.01226806640625,0.996337890625,-0.06103515625,0.1220703125,0.1220703125,0.128173828125,0.0167236328125,0.9990234375,-31.0,-243.0,-32.0,101943.0,-5.133000373840332,0,0
1852.510022,-0.056060791015625,0.06304931640625,0.012298583984375,0.996337890625,0.18310546875,0.244140625,0.1220703125,0.1251220703125,0.0166015625,0.997314453125,-31.0,-243.0,-32.0,101943.0,-5.133000373840332,0,0
1852.517001,-0.056060791015625,0.06304931640625,0.012298583984375,0.996337890625,-0.06103515625,0.244140625,0.1220703125,0.1256103515625,0.018310546875,0.9986572265625,-31.0,-243.0,-32.0,101943.0,-5.133000373840332,0,0
1852.524015,-0.056060791015625,0.06304931640625,0.012298583984375,0.996337890625,0.18310546875,0.3662109375,-0.1220703125,0.1275634765625,0.0181884765625,0.99755859375,-31.0,-243.0,-32.0,101943.0,-5.133000373840332,0,0
1852.531,-0.056060791015625,0.06304931640625,0.01226806640625,0.996337890625,0.06103515625,0.3662109375,0.1220703125,0.1275634765625,0.0145263671875,0.998046875,-31.0,-243.0,-32.0,101943.0,-5.13200044631958,0,0
1852.537999,-0.056060791015625,0.06304931640625,0.01226806640625,0.996337890625,-0.1220703125,0.30517578125,-0.06103515625,0.1259765625,0.0181884765625,0.997314453125,-31.0,-243.0,-32.0,101943.0,-5.13200044631958,0,0
1852.54502,-0.056060791015625,0.06304931640625,0.012298583984375,0.996337890625,0.1220703125,0.244140625,0.1220703125,0.1268310546875,0.0198974609375,0.9976806640625,-31.0,-243.0,-32.0,101943.0,-5.13200044631958,0,0
1852.552003,-0.056060791015625,0.06304931640625,0.012298583984375,0.996337890625,-0.06103515625,0.244140625,0.30517578125,0.1268310546875,0.017578125,0.9986572265625,-31.0,-243.0,-32.0,101943.0,-5.13200044631958,0,0
1852.559018,-0.056060791015625,0.06304931640625,0.012298583984375,0.996337890625,0.06103515625,0.42724609375,0.06103515625,0.1302490234375,0.0181884765625,0.9979248046875,-31.0,-243.0,-32.0,101943.0,-5.13200044631958,0,0
1852.565997,-0.056060791015625,0.06304931640625,0.012298583984375,0.996337890625,0.30517578125,0.42724609375,0.30517578125,0.126220703125,0.01708984375,0.9964599609375,-31.0,-243.0,-32.0,101943.0,-5.13200044631958,0,0
1852.572025,-0.056060791015625,0.06304931640625,0.012298583984375,0.996337890625,0.30517578125,0.42724609375,0.30517578125,0.126220703125,0.01708984375,0.9964599609375,-31.0,-243.0,-32.0,101943.0,-5.13200044631958,0,0
1852.579016,-0.056060791015625,0.06304931640625,0.01226806640625,0.996337890625,0.06103515625,0.3662109375,-0.06103515625,0.1292724609375,0.01708984375,0.9967041015625,-31.0,-243.0,-32.0,101943.0,-5.13200044631958,0,0
1852.600022,-0.056060791015625,0.063018798828125,0.012298583984375,0.996337890625,0.0,0.30517578125,0.18310546875,0.1278076171875,0.0186767578125,0.998291015625,-31.0,-243.0,-31.0,101943.0,-5.13200044631958,0,0
1852.607001,-0.056060791015625,0.063018798828125,0.012298583984375,0.996337890625,-0.06103515625,0.30517578125,0.06103515625,0.1290283203125,0.0189208984375,0.998046875,-31.0,-243.0,-31.0,101943.0,-5.13200044631958,0,0
1852.614015,-0.056060791015625,0.063018798828125,0.012298583984375,0.996337890625,-0.1220703125,0.42724609375,0.06103515625,0.126953125,0.017333984375,0.99609375,-31.0,-243.0,-31.0,101943.0,-5.13200044631958,0,0
1852.620995,-0.056060791015625,0.063018798828125,0.012298583984375,0.996337890625,0.1220703125,0.244140625,0.06103515625,0.1279296875,0.018310546875,0.9974365234375,-31.0,-243.0,-31.0,101943.0,-5.13200044631958,0,0
1852.627995,-0.056060791015625,0.063018798828125,0.012298583984375,0.996337890625,-0.1220703125,0.06103515625,-0.06103515625,0.1265869140625,0.0184326171875,0.996826171875,-31.0,-243.0,-31.0,101943.0,-5.13200044631958,0,0
1852.635019,-0.056060791015625,0.063018798828125,0.012298583984375,0.996337890625,-0.1220703125,0.18310546875,0.244140625,0.1270751953125,0.0169677734375,0.9976806640625,-31.0,-243.0,-31.0,101943.0,-5.13200044631958,0,0
1852.642003,-0.056060791015625,0.063018798828125,0.01226806640625,0.996337890625,0.06103515625,0.244140625,-0.06103515625,0.126953125,0.01611328125,0.997802734375,-31.0,-243.0,-31.0,101943.0,-5.13200044631958,0,0
1852.649018,-0.056060791015625,0.063018798828125,0.01226806640625,0.996337890625,0.06103515625,0.30517578125,0.1220703125,0.127197265625,0.018310546875,0.998046875,-31.0,-243.0,-31.0,101943.0,-5.13200044631958,0,0
1852.655997,-0.056060791015625,0.063018798828125,0.012298583984375,0.996337890625,-0.06103515625,0.42724609375,-0.06103515625,0.12890625,0.0191650390625,0.9986572265625,-31.0,-243.0,-31.0,101943.0,-5.13200044631958,0,0
1852.662025,-0.056060791015625,0.063018798828125,0.012298583984375,0.996337890625,-0.06103515625,0.42724609375,-0.06103515625,0.12890625,0.0191650390625,0.9986572265625,-31.0,-243.0,-31.0,101943.0,-5.13200044631958,0,0
1852.669016,-0.056060791015625,0.063018798828125,0.012298583984375,0.996337890625,0.0,0.48828125,-0.06103515625,0.1273193359375,0.016845703125,0.99560546875,-31.0,-243.0,-31.0,101943.0,-5.13200044631958,0,0
1852.675998,-0.056060791015625,0.063018798828125,0.012298583984375,0.996337890625,0.18310546875,0.3662109375,0.0,0.128173828125,0.017822265625,0.9996337890625,-31.0,-243.0,-31.0,101943.0,-5.13200044631958,0,0
1852.682997,-0.056060791015625,0.063018798828125,0.01226806640625,0.996337890625,0.0,0.244140625,-0.1220703125,0.126953125,0.016845703125,0.99755859375,-32.0,-243.0,-31.0,101943.0,-5.13200044631958,0,0
1852.690022,-0.05615234375,0.063018798828125,0.01226806640625,0.996337890625,-0.06103515625,0.54931640625,-0.06103515625,0.1273193359375,0.0174560546875,0.9981689453125,-32.0,-243.0,-31.0,101943.0,-5.13200044631958,0,0
1852.697001,-0.05615234375,0.063018798828125,0.01226806640625,0.996337890625,0.244140625,0.3662109375,0.06103515625,0.126220703125,0.017333984375,0.99609375,-32.0,-243.0,-31.0,101943.0,-5.13200044631958,0,0
1852.704015,-0.05615234375,0.063018798828125,0.012298583984375,0.996337890625,-0.1220703125,0.244140625,-0.18310546875,0.127197265625,0.0185546875,0.9993896484375,-32.0,-243.0,-31.0,101943.0,-5.13200044631958,0,0
1852.710996,-0.05615234375,0.063018798828125,0.012298583984375,0.996337890625,0.18310546875,0.3662109375,-0.06103515625,0.12744140625,0.017578125,0.9970703125,-32.0,-243.0,-31.0,101943.0,-5.13200044631958,0,0
1852.717995,-0.05615234375,0.063018798828125,0.01226806640625,0.996337890625,-0.06103515625,0.244140625,0.18310546875,0.1280517578125,0.017822265625,0.9974365234375,-32.0,-243.0,-31.0,101943.0,-5.13200044631958,0,0
1852.725019,-0.05615234375,0.063018798828125,0.01226806640625,0.996337890625,0.0,0.06103515625,0.1220703125,0.1290283203125,0.0169677734375,0.99609375,-32.0,-243.0,-31.0,101943.0,-5.13200044631958,0,0
1852.732003,-0.05615234375,0.063018798828125,0.01226806640625,0.996337890625,0.1220703125,0.1220703125,-0.06103515625,0.1285400390625,0.01611328125,0.9962158203125,-32.0,-243.0,-31.0,101943.0,-5.13200044631958,0,0
1852.739019,-0.05615234375,0.063018798828125,0.01226806640625,0.996337890625,0.244140625,0.3662109375,-0.244140625,0.129638671875,0.0174560546875,0.998779296875,-32.0,-243.0,-31.0,101943.0,-5.13200044631958,0,0
1852.745997,-0.05615234375,0.063018798828125,0.01226806640625,0.996337890625,0.06103515625,0.3662109375,-0.244140625,0.1260986328125,0.0189208984375,0.99755859375,-32.0,-243.0,-31.0,101943.0,-5.13200044631958,0,0
1852.752025,-0.05615234375,0.063018798828125,0.01226806640625,0.996337890625,0.06103515625,0.3662109375,-0.244140625,0.1260986328125,0.0189208984375,0.99755859375,-32.0,-243.0,-31.0,101943.0,-5.13200044631958,0,0
1852.772997,-0.05615234375,0.063018798828125,0.012298583984375,0.996337890625,-0.06103515625,0.244140625,-0.06103515625,0.12890625,0.0167236328125,0.996337890625,-32.0,-243.0,-31.0,101943.0,-5.13200044631958,0,0
1852.780022,-0.05615234375,0.063018798828125,0.012298583984375,0.996337890625,0.06103515625,0.42724609375,0.0,0.1285400390625,0.0174560546875,0.9967041015625,-32.0,-243.0,-31.0,101943.0,-5.13200044631958,0,0
1852.787001,-0.05615234375,0.063018798828125,0.012298583984375,0.996337890625,0.06103515625,0.3662109375,0.06103515625,0.128173828125,0.0174560546875,0.9974365234375,-31.0,-242.0,-32.0,101943.0,-5.13200044631958,0,0
1852.794015,-0.056060791015625,0.06304931640625,0.012298583984375,0.996337890625,-0.06103515625,0.18310546875,0.06103515625,0.128173828125,0.0167236328125,0.99560546875,-31.0,-242.0,-32.0,101943.0,-5.13200044631958,0,0
1852.801,-0.056060791015625,0.06304931640625,0.012298583984375,0.996337890625,0.244140625,0.18310546875,-0.1220703125,0.12841796875,0.0177001953125,0.997314453125,-31.0,-242.0,-32.0,101943.0,-5.13200044631958,0,0
1852.807999,-0.056060791015625,0.06304931640625,0.012298583984375,0.996337890625,-0.06103515625,0.30517578125,0.1220703125,0.1282958984375,0.0181884765625,0.9984130859375,-31.0,-242.0,-32.0,101943.0,-5.13200044631958,0,0
1852.81502,-0.056060791015625,0.06304931640625,0.012298583984375,0.996337890625,0.06103515625,0.30517578125,0.18310546875,0.12890625,0.0181884765625,0.997802734375,-31.0,-242.0,-32.0,101943.0,-5.13200044631958,0,0
1852.822003,-0.056060791015625,0.06304931640625,0.012298583984375,0.996337890625,0.1220703125,0.06103515625,0.1220703125,0.1290283203125,0.017333984375,0.996337890625,-31.0,-242.0,-32.0,101943.0,-5.13200044631958,0,0
1852.829018,-0.056060791015625,0.06304931640625,0.012298583984375,0.996337890625,-0.1220703125,0.244140625,0.0,0.12890625,0.01806640625,0.998779296875,-31.0,-242.0,-32.0,101943.0,-5.13200044631958,0,0
1852.835997,-0.056060791015625,0.06304931640625,0.012298583984375,0.996337890625,-0.1220703125,0.244140625,0.1220703125,0.128662109375,0.0179443359375,0.9986572265625,-31.0,-242.0,-32.0,101943.0,-5.13200044631958,0,0
1852.842996,-0.056060791015625,0.06304931640625,0.012298583984375,0.996337890625,0.0,0.30517578125,0.06103515625,0.1285400390625,0.017822265625,0.9984130859375,-31.0,-242.0,-32.0,101943.0,-5.13200044631958,0,0
1852.862997,-0.056060791015625,0.063079833984375,0.012298583984375,0.996337890625,0.06103515625,0.1220703125,-0.1220703125,0.128662109375,0.0162353515625,0.996337890625,-31.0,-242.0,-32.0,101943.0,-5.13200044631958,0,0
1852.870022,-0.056060791015625,0.06304931640625,0.012298583984375,0.996337890625,0.1220703125,0.244140625,0.1220703125,0.126220703125,0.0177001953125,0.996337890625,-31.0,-242.0,-32.0,101943.0,-5.13200044631958,0,0
1852.877001,-0.056060791015625,0.063079833984375,0.012298583984375,0.996337890625,0.06103515625,0.42724609375,0.0,0.1295166015625,0.016845703125,0.996826171875,-31.0,-242.0,-32.0,101943.0,-5.13200044631958,0,0
1852.884015,-0.056060791015625,0.063079833984375,0.012298583984375,0.996337890625,0.1220703125,0.18310546875,0.1220703125,0.127685546875,0.018310546875,0.997314453125,-32.0,-242.0,-32.0,101943.0,-5.13200044631958,0,0
1852.890995,-0.056060791015625,0.063079833984375,0.012298583984375,0.996337890625,-0.1220703125,0.18310546875,0.18310546875,0.1280517578125,0.0167236328125,0.9976806640625,-32.0,-242.0,-32.0,101943.0,-5.13200044631958,0,0
1852.897995,-0.056060791015625,0.063079833984375,0.012298583984375,0.996337890625,0.1220703125,0.244140625,0.0,0.129638671875,0.0177001953125,0.9962158203125,-32.0,-242.0,-32.0,101943.0,-5.13200044631958,0,0
1852.905019,-0.056060791015625,0.063079833984375,0.012298583984375,0.996337890625,0.06103515625,0.30517578125,0.244140625,0.1280517578125,0.0169677734375,0.99755859375,-32.0,-242.0,-32.0,101943.0,-5.13200044631958,0,0
1852.912003,-0.056060791015625,0.063079833984375,0.012298583984375,0.996337890625,0.0,0.244140625,-0.244140625,0.1287841796875,0.0172119140625,0.9971923828125,-32.0,-242.0,-32.0,101943.0,-5.13200044631958,0,0
1852.919018,-0.056060791015625,0.063079833984375,0.0123291015625,0.996337890625,0.18310546875,0.18310546875,0.0,0.1270751953125,0.02001953125,0.996337890625,-32.0,-242.0,-32.0,101943.0,-5.13200044631958,0,0
1852.925997,-0.056060791015625,0.063079833984375,0.012298583984375,0.996337890625,0.06103515625,0.30517578125,0.1220703125,0.128173828125,0.0167236328125,0.997314453125,-32.0,-242.0,-32.0,101943.0,-5.13200044631958,0,0
1852.932996,-0.056060791015625,0.063079833984375,0.012298583984375,0.996337890625,-0.06103515625,0.18310546875,0.06103515625,0.12744140625,0.01806640625,0.9979248046875,-32.0,-242.0,-32.0,101943.0,-5.133000373840332,0,0
1852.939029,-0.056060791015625,0.063079833984375,0.012298583984375,0.996337890625,-0.06103515625,0.18310546875,0.06103515625,0.12744140625,0.01806640625,0.9979248046875,-32.0,-242.0,-32.0,101943.0,-5.133000373840332,0,0
1852.945997,-0.056060791015625,0.06304931640625,0.012298583984375,0.996337890625,0.06103515625,0.244140625,-0.06103515625,0.1246337890625,0.01904296875,0.997314453125,-32.0,-242.0,-32.0,101943.0,-5.133000373840332,0,0
1852.952997,-0.056060791015625,0.06304931640625,0.012298583984375,0.996337890625,0.1220703125,0.244140625,0.0,0.1258544921875,0.0166015625,0.997314453125,-32.0,-242.0,-32.0,101943.0,-5.133000373840332,0,0
1852.960022,-0.056060791015625,0.06304931640625,0.012298583984375,0.996337890625,0.3662109375,0.30517578125,0.06103515625,0.1251220703125,0.0179443359375,0.9970703125,-32.0,-242.0,-32.0,101943.0,-5.133000373840332,0,0
1852.967001,-0.056060791015625,0.063018798828125,0.012298583984375,0.996337890625,-0.06103515625,0.18310546875,0.1220703125,0.1253662109375,0.017822265625,0.9986572265625,-32.0,-242.0,-32.0,101943.0,-5.133000373840332,0,0
1852.974015,-0.056060791015625,0.063018798828125,0.012298583984375,0.996337890625,0.1220703125,0.1220703125,0.1220703125,0.1287841796875,0.018798828125,0.9998779296875,-32.0,-242.0,-32.0,101943.0,-5.133000373840332,0,0
1852.980995,-0.056060791015625,0.063018798828125,0.0123291015625,0.996337890625,0.18310546875,0.06103515625,0.06103515625,0.1278076171875,0.0185546875,0.997314453125,-32.0,-242.0,-32.0,101943.0,-5.133000373840332,0,0
1852.987995,-0.056060791015625,0.063018798828125,0.0123291015625,0.996337890625,-0.1220703125,0.1220703125,0.1220703125,0.1260986328125,0.017333984375,0.9989013671875,-33.0,-242.0,-33.0,101943.0,-5.133000373840332,0,0
1852.995019,-0.05615234375,0.063018798828125,0.0123291015625,0.996337890625,0.1220703125,0.42724609375,0.06103515625,0.1265869140625,0.017822265625,0.9989013671875,-33.0,-242.0,-33.0,101943.0,-5.133000373840332,0,0
1853.002003,-0.05615234375,0.063018798828125,0.0123291015625,0.996337890625,0.1220703125,0.244140625,-0.06103515625,0.1268310546875,0.0184326171875,0.9971923828125,-33.0,-242.0,-33.0,101943.0,-5.133000373840332,0,0
1853.009018,-0.05615234375,0.063018798828125,0.0123291015625,0.996337890625,0.06103515625,0.244140625,0.0,0.128173828125,0.0167236328125,0.997314453125,-33.0,-242.0,-33.0,101943.0,-5.133000373840332,0,0
1853.015997,-0.05615234375,0.06298828125,0.0123291015625,0.996337890625,0.0,0.244140625,0.06103515625,0.12548828125,0.01611328125,0.9969482421875,-33.0,-242.0,-33.0,101943.0,-5.133000373840332,0,0
1853.036049,-0.05615234375,0.063018798828125,0.012298583984375,0.996337890625,0.0,0.30517578125,-0.1220703125,0.1300048828125,0.0185546875,0.996337890625,-33.0,-242.0,-33.0,101943.0,-5.133000373840332,0,0
1853.042997,-0.05615234375,0.063018798828125,0.012298583984375,0.996337890625,0.0,0.1220703125,0.06103515625,0.1278076171875,0.0189208984375,0.995849609375,-33.0,-242.0,-33.0,101943.0,-5.13200044631958,0,0
1853.050022,-0.05615234375,0.063018798828125,0.012298583984375,0.996337890625,0.06103515625,0.30517578125,-0.06103515625,0.128662109375,0.0181884765625,0.996337890625,-33.0,-242.0,-33.0,101943.0,-5.13200044631958,0,0
1853.057001,-0.05615234375,0.063018798828125,0.012298583984375,0.996337890625,0.0,0.244140625,0.06103515625,0.12744140625,0.018798828125,0.99560546875,-33.0,-242.0,-33.0,101943.0,-5.13200044631958,0,0
1853.064015,-0.05615234375,0.063018798828125,0.012298583984375,0.996337890625,0.1220703125,0.3662109375,0.18310546875,0.1292724609375,0.018798828125,0.998046875,-33.0,-242.0,-33.0,101943.0,-5.13200044631958,0,0
1853.071,-0.05615234375,0.06304931640625,0.012298583984375,0.996337890625,0.0,0.244140625,0.244140625,0.1282958984375,0.017333984375,0.9959716796875,-33.0,-242.0,-33.0,101943.0,-5.13200044631958,0,0
1853.077999,-0.05615234375,0.06304931640625,0.012298583984375,0.996337890625,0.0,0.244140625,0.244140625,0.1280517578125,0.01806640625,0.9974365234375,-33.0,-242.0,-33.0,101943.0,-5.13200044631958,0,0
1853.08502,-0.05615234375,0.063018798828125,0.012298583984375,0.996337890625,0.06103515625,0.0,-0.1220703125,0.1290283203125,0.01806640625,0.99853515625,-32.0,-243.0,-33.0,101943.0,-5.13200044631958,0,0
1853.092003,-0.05615234375,0.063018798828125,0.012298583984375,0.996337890625,-0.06103515625,0.30517578125,0.30517578125,0.126220703125,0.0185546875,0.9959716796875,-32.0,-243.0,-33.0,101943.0,-5.13200044631958,0,0
1853.099018,-0.05615234375,0.063018798828125,0.012298583984375,0.996337890625,-0.1220703125,0.1220703125,0.0,0.1275634765625,0.015625,0.9957275390625,-32.0,-243.0,-33.0,101943.0,-5.13200044631958,0,0
1853.105997,-0.05615234375,0.06304931640625,0.012298583984375,0.996337890625,0.06103515625,0.244140625,-0.244140625,0.1287841796875,0.0169677734375,0.9970703125,-32.0,-243.0,-33.0,101943.0,-5.13200044631958,0,0
1853.12605,-0.05615234375,0.06304931640625,0.012298583984375,0.996337890625,-0.06103515625,0.18310546875,-0.1220703125,0.1280517578125,0.018310546875,0.9964599609375,-32.0,-243.0,-33.0,101943.0,-5.13200044631958,0,0
1853.132997,-0.05615234375,0.063018798828125,0.012298583984375,0.996337890625,0.06103515625,0.18310546875,-0.06103515625,0.1270751953125,0.018310546875,0.9981689453125,-32.0,-243.0,-33.0,101943.0,-5.13200044631958,0,0
1853.140022,-0.05615234375,0.063018798828125,0.012298583984375,0.996337890625,0.244140625,0.18310546875,0.06103515625,0.128173828125,0.01806640625,0.996337890625,-32.0,-243.0,-33.0,101943.0,-5.13200044631958,0,0
1853.147001,-0.05615234375,0.063018798828125,0.012298583984375,0.996337890625,0.30517578125,0.30517578125,0.0,0.1260986328125,0.018310546875,0.995849609375,-32.0,-243.0,-33.0,101943.0,-5.13200044631958,0,0
1853.154015,-0.05615234375,0.063018798828125,0.012298583984375,0.996337890625,-0.06103515625,0.18310546875,0.18310546875,0.1275634765625,0.01806640625,0.9976806640625,-32.0,-243.0,-33.0,101943.0,-5.13200044631958,0,0
1853.161,-0.05615234375,0.063018798828125,0.012298583984375,0.996337890625,0.06103515625,0.244140625,-0.1220703125,0.127685546875,0.01708984375,0.99658203125,-32.0,-243.0,-33.0,101943.0,-5.13200044631958,0,0
1853.167995,-0.05615234375,0.063018798828125,0.012298583984375,0.996337890625,0.06103515625,0.3662109375,-0.244140625,0.1270751953125,0.018310546875,0.997314453125,-32.0,-243.0,-33.0,101943.0,-5.13200044631958,0,0
1853.175019,-0.05615234375,0.063018798828125,0.012298583984375,0.996337890625,0.1220703125,0.18310546875,0.1220703125,0.1292724609375,0.0159912109375,0.998291015625,-32.0,-243.0,-33.0,101943.0,-5.13200044631958,0,0
1853.182003,-0.05615234375,0.06304931640625,0.012298583984375,0.996337890625,-0.1220703125,0.244140625,0.30517578125,0.1297607421875,0.016357421875,0.9959716796875,-32.0,-243.0,-33.0,101943.0,-5.13200044631958,0,0
1853.189018,-0.05615234375,0.06304931640625,0.012298583984375,0.996337890625,-0.06103515625,0.18310546875,0.1220703125,0.126953125,0.0179443359375,0.997314453125,-32.0,-243.0,-33.0,101943.0,-5.13200044631958,0,0
1853.195997,-0.05615234375,0.063018798828125,0.01226806640625,0.996337890625,-0.244140625,0.30517578125,-0.1220703125,0.1258544921875,0.0172119140625,0.9970703125,-32.0,-243.0,-33.0,101943.0,-5.13200044631958,0,0
1853.202996,-0.05615234375,0.063018798828125,0.012298583984375,0.996337890625,0.18310546875,0.30517578125,-0.1220703125,0.12646484375,0.017333984375,1.0015869140625,-32.0,-243.0,-33.0,101943.0,-5.13200044631958,0,0
1853.210016,-0.05615234375,0.063018798828125,0.012298583984375,0.996337890625,-0.06103515625,0.18310546875,0.18310546875,0.1268310546875,0.0181884765625,0.9979248046875,-32.0,-243.0,-33.0,101943.0,-5.13200044631958,0,0
1853.217001,-0.05615234375,0.063018798828125,0.012298583984375,0.996337890625,-0.1220703125,0.18310546875,0.0,0.1275634765625,0.017578125,0.996826171875,-32.0,-243.0,-33.0,101943.0,-5.13200044631958,0,0
1853.223033,-0.05615234375,0.063018798828125,0.012298583984375,0.996337890625,-0.1220703125,0.18310546875,0.0,0.1275634765625,0.017578125,0.996826171875,-32.0,-243.0,-33.0,101943.0,-5.13200044631958,0,0
1853.230022,-0.05615234375,0.063018798828125,0.012298583984375,0.996337890625,0.0,0.42724609375,0.06103515625,0.1259765625,0.0166015625,0.9971923828125,-32.0,-243.0,-33.0,101943.0,-5.13200044631958,0,0
1853.237001,-0.05615234375,0.063018798828125,0.012298583984375,0.996337890625,0.06103515625,0.30517578125,0.0,0.1278076171875,0.0169677734375,0.9981689453125,-32.0,-243.0,-33.0,101943.0,-5.13200044631958,0,0
1853.244015,-0.05615234375,0.063018798828125,0.01226806640625,0.996337890625,-0.1220703125,0.30517578125,0.244140625,0.126953125,0.0169677734375,0.9979248046875,-32.0,-243.0,-33.0,101943.0,-5.13200044631958,0,0
1853.250996,-0.05615234375,0.063018798828125,0.01226806640625,0.996337890625,0.244140625,0.3662109375,0.06103515625,0.1258544921875,0.016845703125,0.9971923828125,-32.0,-243.0,-33.0,101943.0,-5.13200044631958,0,0
1853.257995,-0.05615234375,0.063018798828125,0.01226806640625,0.996337890625,0.06103515625,0.3662109375,-0.1220703125,0.1282958984375,0.0172119140625,0.99755859375,-32.0,-243.0,-33.0,101943.0,-5.13200044631958,0,0
1853.265019,-0.05615234375,0.063018798828125,0.01226806640625,0.996337890625,0.0,0.244140625,0.06103515625,0.126953125,0.0181884765625,0.997802734375,-32.0,-243.0,-33.0,101943.0,-5.13200044631958,0,0
1853.272003,-0.05615234375,0.06298828125,0.01226806640625,0.996337890625,-0.06103515625,0.30517578125,0.1220703125,0.124267578125,0.0172119140625,0.998291015625,-32.0,-243.0,-33.0,101943.0,-5.13200044631958,0,0
1853.279018,-0.05615234375,0.063018798828125,0.01226806640625,0.996337890625,0.18310546875,0.18310546875,0.244140625,0.1279296875,0.017333984375,0.9976806640625,-32.0,-243.0,-33.0,101943.0,-5.13200044631958,0,0
1853.300016,-0.05615234375,0.06298828125,0.01226806640625,0.996337890625,0.06103515625,0.244140625,0.1220703125,0.1282958984375,0.017578125,0.9964599609375,-32.0,-242.0,-33.0,101943.0,-5.13200044631958,0,0
1853.307001,-0.05615234375,0.06298828125,0.01226806640625,0.996337890625,-0.1220703125,0.54931640625,0.1220703125,0.128173828125,0.017578125,0.996826171875,-32.0,-242.0,-33.0,101943.0,-5.13200044631958,0,0
1853.313033,-0.05615234375,0.06298828125,0.01226806640625,0.996337890625,-0.1220703125,0.54931640625,0.1220703125,0.128173828125,0.017578125,0.996826171875,-32.0,-242.0,-33.0,101943.0,-5.13200044631958,0,0
1853.320022,-0.05615234375,0.06298828125,0.01226806640625,0.996337890625,0.0,0.30517578125,0.30517578125,0.1270751953125,0.0174560546875,0.998046875,-32.0,-242.0,-33.0,101943.0,-5.13200044631958,0,0
1853.327001,-0.05615234375,0.06298828125,0.01226806640625,0.996337890625,0.244140625,0.0,0.1220703125,0.1265869140625,0.0189208984375,0.999755859375,-32.0,-242.0,-33.0,101943.0,-5.13200044631958,0,0
1853.334015,-0.05615234375,0.06298828125,0.01226806640625,0.996337890625,-0.18310546875,0.30517578125,0.06103515625,0.1270751953125,0.0181884765625,0.9979248046875,-32.0,-242.0,-33.0,101942.0,-5.13200044631958,0,0
1853.340995,-0.05615234375,0.06298828125,0.01226806640625,0.996337890625,0.1220703125,0.42724609375,-0.06103515625,0.127685546875,0.0166015625,0.9969482421875,-32.0,-242.0,-33.0,101942.0,-5.13200044631958,0,0
1853.347995,-0.05615234375,0.063018798828125,0.01226806640625,0.996337890625,-0.244140625,0.3662109375,-0.30517578125,0.1302490234375,0.0162353515625,0.9971923828125,-32.0,-242.0,-33.0,101942.0,-5.13200044631958,0,0
1853.355019,-0.05615234375,0.063018798828125,0.01226806640625,0.996337890625,-0.1220703125,0.3662109375,-0.06103515625,0.1275634765625,0.017333984375,0.99609375,-32.0,-242.0,-33.0,101942.0,-5.13200044631958,0,0
1853.362003,-0.05615234375,0.063018798828125,0.01226806640625,0.996337890625,0.1220703125,0.244140625,-0.18310546875,0.12841796875,0.0164794921875,0.9954833984375,-32.0,-242.0,-33.0,101942.0,-5.13200044631958,0,0
1853.382996,-0.05615234375,0.06298828125,0.012298583984375,0.996337890625,0.30517578125,0.244140625,0.0,0.127197265625,0.0191650390625,0.9990234375,-31.0,-242.0,-33.0,101942.0,-5.13200044631958,0,0
1853.390017,-0.056060791015625,0.06298828125,0.012298583984375,0.996337890625,-0.18310546875,0.3662109375,0.06103515625,0.1280517578125,0.0162353515625,0.995849609375,-31.0,-242.0,-33.0,101942.0,-5.13200044631958,0,0
1853.397001,-0.056060791015625,0.06298828125,0.01226806640625,0.996337890625,0.0,0.30517578125,0.06103515625,0.127197265625,0.0164794921875,0.9951171875,-31.0,-242.0,-33.0,101942.0,-5.13200044631958,0,0
1853.404019,-0.056060791015625,0.06298828125,0.01226806640625,0.996337890625,-0.1220703125,0.244140625,0.06103515625,0.1256103515625,0.0167236328125,0.996337890625,-31.0,-242.0,-33.0,101942.0,-5.13200044631958,0,0
1853.410053,-0.056060791015625,0.06298828125,0.01226806640625,0.996337890625,-0.1220703125,0.244140625,0.06103515625,0.1256103515625,0.0167236328125,0.996337890625,-31.0,-242.0,-33.0,101942.0,-5.13200044631958,0,0
1853.417001,-0.056060791015625,0.06298828125,0.012298583984375,0.996337890625,0.18310546875,0.30517578125,0.06103515625,0.126708984375,0.0181884765625,0.9962158203125,-31.0,-242.0,-33.0,101942.0,-5.13200044631958,0,0
1853.424015,-0.056060791015625,0.06298828125,0.012298583984375,0.996337890625,0.244140625,0.18310546875,0.1220703125,0.128173828125,0.0172119140625,0.9951171875,-31.0,-242.0,-33.0,101942.0,-5.13200044631958,0,0
1853.431,-0.056060791015625,0.063018798828125,0.01226806640625,0.996337890625,-0.1220703125,0.244140625,0.0,0.128173828125,0.0157470703125,0.995849609375,-31.0,-242.0,-33.0,101942.0,-5.13200044631958,0,0
1853.437999,-0.056060791015625,0.063018798828125,0.01226806640625,0.996337890625,0.1220703125,0.244140625,0.0,0.127685546875,0.0184326171875,0.998291015625,-31.0,-242.0,-33.0,101942.0,-5.13100004196167,0,0
1853.44502,-0.056060791015625,0.06298828125,0.012298583984375,0.996337890625,-0.1220703125,0.3662109375,0.06103515625,0.12646484375,0.0174560546875,0.998046875,-31.0,-242.0,-33.0,101942.0,-5.13100004196167,0,0
1853.452003,-0.056060791015625,0.06298828125,0.012298583984375,0.996337890625,-0.30517578125,0.244140625,0.0,0.1279296875,0.017333984375,0.9974365234375,-31.0,-242.0,-33.0,101942.0,-5.13100004196167,0,0
1853.459018,-0.056060791015625,0.06298828125,0.012298583984375,0.996337890625,0.1220703125,0.18310546875,0.18310546875,0.128173828125,0.017333984375,0.99755859375,-31.0,-242.0,-33.0,101942.0,-5.13100004196167,0,0
1853.465997,-0.056060791015625,0.063018798828125,0.012298583984375,0.996337890625,-0.1220703125,0.30517578125,0.0,0.127197265625,0.0155029296875,0.9964599609375,-31.0,-242.0,-33.0,101942.0,-5.13100004196167,0,0
1853.472996,-0.056060791015625,0.06298828125,0.012298583984375,0.996337890625,-0.1220703125,0.30517578125,-0.06103515625,0.12646484375,0.0189208984375,0.9935302734375,-31.0,-242.0,-33.0,101942.0,-5.13100004196167,0,0
1853.480016,-0.056060791015625,0.063018798828125,0.012298583984375,0.996337890625,0.1220703125,0.48828125,0.0,0.1290283203125,0.017822265625,0.9947509765625,-31.0,-242.0,-33.0,101942.0,-5.13100004196167,0,0
1853.487001,-0.05596923828125,0.063018798828125,0.012298583984375,0.996337890625,0.18310546875,0.244140625,0.06103515625,0.1270751953125,0.017578125,0.9976806640625,-31.0,-243.0,-33.0,101942.0,-5.13100004196167,0,0
1853.494018,-0.05596923828125,0.063018798828125,0.012298583984375,0.996337890625,0.06103515625,0.54931640625,0.42724609375,0.1265869140625,0.0155029296875,0.9945068359375,-31.0,-243.0,-33.0,101942.0,-5.13100004196167,0,0
1853.500049,-0.05596923828125,0.063018798828125,0.012298583984375,0.996337890625,0.06103515625,0.54931640625,0.42724609375,0.1265869140625,0.0155029296875,0.9945068359375,-31.0,-243.0,-33.0,101942.0,-5.13100004196167,0,0
1853.507001,-0.05596923828125,0.06298828125,0.012298583984375,0.996337890625,0.0,0.3662109375,0.06103515625,0.126953125,0.015625,0.9954833984375,-31.0,-243.0,-33.0,101942.0,-5.13100004196167,0,0
1853.514015,-0.05596923828125,0.063018798828125,0.012298583984375,0.996337890625,0.06103515625,0.30517578125,0.244140625,0.12841796875,0.018310546875,0.9962158203125,-31.0,-243.0,-33.0,101942.0,-5.13100004196167,0,0
1853.520995,-0.05596923828125,0.063018798828125,0.012298583984375,0.996337890625,-0.06103515625,0.3662109375,-0.06103515625,0.127197265625,0.0162353515625,0.99609375,-31.0,-243.0,-33.0,101942.0,-5.13100004196167,0,0
1853.527995,-0.05596923828125,0.063018798828125,0.012298583984375,0.996337890625,0.0,0.30517578125,0.0,0.1280517578125,0.017822265625,0.9949951171875,-31.0,-243.0,-33.0,101942.0,-5.13100004196167,0,0
1853.535019,-0.05596923828125,0.063018798828125,0.012298583984375,0.996337890625,-0.1220703125,0.1220703125,0.06103515625,0.124755859375,0.0169677734375,0.997314453125,-31.0,-243.0,-33.0,101942.0,-5.13100004196167,0,0
1853.555997,-0.05596923828125,0.06298828125,0.012298583984375,0.996337890625,0.0,0.244140625,0.0,0.12744140625,0.0164794921875,0.9959716796875,-31.0,-243.0,-33.0,101942.0,-5.13100004196167,0,0
1853.562996,-0.05596923828125,0.06298828125,0.012298583984375,0.996337890625,0.18310546875,0.30517578125,0.1220703125,0.1278076171875,0.016845703125,0.99609375,-31.0,-243.0,-33.0,101942.0,-5.13100004196167,0,0
1853.570016,-0.05596923828125,0.06298828125,0.012298583984375,0.996337890625,-0.18310546875,0.18310546875,-0.1220703125,0.127685546875,0.0186767578125,0.998046875,-31.0,-243.0,-33.0,101942.0,-5.13100004196167,0,0
1853.577001,-0.05596923828125,0.06298828125,0.012298583984375,0.996337890625,0.06103515625,0.244140625,-0.06103515625,0.126953125,0.0164794921875,0.99951171875,-31.0,-243.0,-33.0,101942.0,-5.13100004196167,0,0
1853.584018,-0.05596923828125,0.06298828125,0.012298583984375,0.996337890625,-0.06103515625,0.42724609375,0.06103515625,0.1297607421875,0.018798828125,0.9974365234375,-31.0,-243.0,-33.0,101942.0,-5.13100004196167,0,0
1853.590995,-0.05596923828125,0.06298828125,0.012298583984375,0.996337890625,0.18310546875,0.244140625,0.06103515625,0.1256103515625,0.018310546875,0.9969482421875,-32.0,-244.0,-33.0,101942.0,-5.13100004196167,0,0
1853.597023,-0.05596923828125,0.06298828125,0.012298583984375,0.996337890625,0.18310546875,0.244140625,0.06103515625,0.1256103515625,0.018310546875,0.9969482421875,-32.0,-244.0,-33.0,101942.0,-5.13100004196167,0,0
1853.604015,-0.05596923828125,0.06298828125,0.012298583984375,0.996337890625,0.18310546875,0.0,-0.1220703125,0.1278076171875,0.016357421875,0.9979248046875,-32.0,-244.0,-33.0,101942.0,-5.13100004196167,0,0
1853.610995,-0.05596923828125,0.06298828125,0.012298583984375,0.996337890625,-0.1220703125,0.1220703125,0.0,0.1280517578125,0.0185546875,0.9962158203125,-32.0,-244.0,-33.0,101942.0,-5.13100004196167,0,0
1853.617995,-0.05596923828125,0.06298828125,0.012298583984375,0.996337890625,-0.06103515625,0.3662109375,0.0,0.1280517578125,0.0184326171875,0.9964599609375,-32.0,-244.0,-33.0,101942.0,-5.13100004196167,0,0
1853.625019,-0.05596923828125,0.063018798828125,0.012298583984375,0.996337890625,0.1220703125,0.1220703125,0.0,0.1270751953125,0.01708984375,0.9967041015625,-32.0,-244.0,-33.0,101942.0,-5.13100004196167,0,0
1853.645997,-0.05596923828125,0.063018798828125,0.012298583984375,0.996337890625,0.0,0.30517578125,0.0,0.12890625,0.017822265625,0.99853515625,-32.0,-244.0,-33.0,101943.0,-5.133000373840332,0,0
1853.652996,-0.05596923828125,0.063018798828125,0.012298583984375,0.996337890625,-0.06103515625,0.244140625,-0.1220703125,0.126220703125,0.018310546875,0.99755859375,-32.0,-244.0,-33.0,101943.0,-5.133000373840332,0,0
1853.660016,-0.055938720703125,0.06298828125,0.0123291015625,0.996337890625,0.06103515625,0.48828125,0.30517578125,0.12744140625,0.01953125,0.996337890625,-32.0,-244.0,-33.0,101943.0,-5.133000373840332,0,0
1853.667001,-0.05596923828125,0.06298828125,0.0123291015625,0.996337890625,0.0,0.244140625,0.06103515625,0.125732421875,0.016357421875,0.999267578125,-32.0,-244.0,-33.0,101943.0,-5.133000373840332,0,0
1853.674018,-0.05596923828125,0.06298828125,0.012298583984375,0.996337890625,0.0,0.18310546875,0.1220703125,0.1263427734375,0.0164794921875,0.9976806640625,-32.0,-244.0,-33.0,101943.0,-5.133000373840332,0,0
1853.680999,-0.05596923828125,0.06298828125,0.012298583984375,0.996337890625,-0.1220703125,0.3662109375,0.0,0.1270751953125,0.0177001953125,1.000244140625,-32.0,-244.0,-33.0,101943.0,-5.133000373840332,0,0
1853.687032,-0.05596923828125,0.06298828125,0.012298583984375,0.996337890625,-0.1220703125,0.3662109375,0.0,0.1270751953125,0.0177001953125,1.000244140625,-32.0,-244.0,-33.0,101943.0,-5.133000373840332,0,0
1853.694015,-0.055755615234375,0.06298828125,0.012298583984375,0.996368408203125,0.0,0.0,-0.06103515625,0.1259765625,0.018310546875,0.9959716796875,-30.0,-243.0,-32.0,101943.0,-5.133000373840332,0,0
1853.701,-0.055755615234375,0.06298828125,0.012298583984375,0.996368408203125,-0.06103515625,0.1220703125,0.0,0.1258544921875,0.0166015625,0.9976806640625,-30.0,-243.0,-32.0,101943.0,-5.133000373840332,0,0
1853.707999,-0.055755615234375,0.06298828125,0.012298583984375,0.996368408203125,-0.06103515625,0.244140625,0.06103515625,0.1287841796875,0.01708984375,0.9964599609375,-30.0,-243.0,-32.0,101943.0,-5.133000373840332,0,0
1853.71502,-0.055755615234375,0.06298828125,0.012298583984375,0.996368408203125,0.1220703125,0.18310546875,0.06103515625,0.12744140625,0.017822265625,0.9970703125,-30.0,-243.0,-32.0,101943.0,-5.133000373840332,0,0
