Time stamp(sec),adc1,adc2,roll_angular_rate,pitch_angular_rate,yaw_angular_rate,acc_X,acc_Y,acc_Z,mag_X,mag_Y,mag_Z,pressure,altitude
0.04111710000142921,0.372283935546875,-0.452301025390625,0.310211181640625,-0.74871826171875,0.06103515625,0.06103515625,0.0,0.446533203125,-0.802734375,0.396728515625,-296.0,151.0,-151.0,101705.0,-3.1660001277923584,0,0
0.04118089999246877,0.372283935546875,-0.452301025390625,0.310211181640625,-0.74871826171875,-0.30517578125,-0.1220703125,-0.06103515625,0.4468994140625,-0.800048828125,0.39697265625,-296.0,151.0,-151.0,101705.0,-3.1660001277923584,0,0
0.0412380000052508,0.372283935546875,-0.452301025390625,0.310211181640625,-0.74871826171875,0.0,-0.244140625,-0.18310546875,0.4462890625,-0.8011474609375,0.3975830078125,-296.0,151.0,-151.0,101705.0,-3.1660001277923584,0,0
0.04129090000060387,0.372283935546875,-0.452301025390625,0.310211181640625,-0.74871826171875,0.18310546875,-0.1220703125,-0.06103515625,0.44677734375,-0.802734375,0.3968505859375,-296.0,151.0,-151.0,101705.0,-3.1660001277923584,0,0
0.041343599994434044,0.372283935546875,-0.452301025390625,0.310211181640625,-0.74871826171875,0.06103515625,-0.1220703125,-0.18310546875,0.4432373046875,-0.80029296875,0.3985595703125,-296.0,151.0,-151.0,101705.0,-3.1660001277923584,0,0
0.04157459999260027,0.372283935546875,-0.452301025390625,0.310211181640625,-0.748687744140625,0.1220703125,-0.1220703125,0.0,0.4459228515625,-0.8006591796875,0.3958740234375,-296.0,151.0,-151.0,101705.0,-3.1660001277923584,0,0
0.04162799999176059,0.372283935546875,-0.452301025390625,0.310211181640625,-0.748687744140625,0.1220703125,-0.1220703125,0.0,0.4459228515625,-0.8006591796875,0.3958740234375,-296.0,151.0,-151.0,101705.0,-3.1660001277923584,0,0
0.0416821999970125,0.372283935546875,-0.452301025390625,0.310211181640625,-0.748687744140625,-0.1220703125,0.0,-0.06103515625,0.4459228515625,-0.7999267578125,0.3968505859375,-296.0,151.0,-151.0,101705.0,-3.1660001277923584,0,0
0.041733199992449954,0.372283935546875,-0.452301025390625,0.310211181640625,-0.748687744140625,0.0,0.0,-0.06103515625,0.4466552734375,-0.8001708984375,0.3980712890625,-296.0,151.0,-151.0,101705.0,-3.1660001277923584,0,0
0.041785599998547696,0.372283935546875,-0.452301025390625,0.310211181640625,-0.748687744140625,-0.244140625,0.06103515625,-0.06103515625,0.446533203125,-0.802734375,0.3975830078125,-296.0,151.0,-151.0,101705.0,-3.1660001277923584,0,0
0.04183990000456106,0.372283935546875,-0.45233154296875,0.310211181640625,-0.748687744140625,-0.06103515625,-0.1220703125,0.06103515625,0.445556640625,-0.8021240234375,0.3970947265625,-296.0,151.0,-151.0,101705.0,-3.1660001277923584,0,0
0.10041810000257101,0.372161865234375,-0.4522705078125,0.310272216796875,-0.748748779296875,-0.244140625,-0.1220703125,0.0,0.44580078125,-0.8016357421875,0.3980712890625,-296.0,151.0,-152.0,101705.0,-3.1660001277923584,0,0
0.10048500000266358,0.372161865234375,-0.4522705078125,0.310302734375,-0.74871826171875,0.1220703125,-0.18310546875,-0.06103515625,0.444091796875,-0.8023681640625,0.396728515625,-296.0,151.0,-152.0,101705.0,-3.1660001277923584,0,0
0.10054569999920204,0.372161865234375,-0.4522705078125,0.310302734375,-0.74871826171875,0.1220703125,-0.18310546875,0.0,0.44677734375,-0.8011474609375,0.3990478515625,-296.0,151.0,-152.0,101705.0,-3.1660001277923584,0,0
0.10060469999734778,0.372161865234375,-0.4522705078125,0.310302734375,-0.74871826171875,0.1220703125,-0.18310546875,0.0,0.44677734375,-0.8011474609375,0.3990478515625,-296.0,151.0,-152.0,101705.0,-3.1660001277923584,0,0
0.10066019999794662,0.372161865234375,-0.4522705078125,0.310302734375,-0.74871826171875,0.1220703125,-0.18310546875,0.0,0.44677734375,-0.8011474609375,0.3990478515625,-296.0,151.0,-152.0,101705.0,-3.1660001277923584,0,0
0.10071379999862984,0.372161865234375,-0.452301025390625,0.310302734375,-0.74871826171875,0.18310546875,-0.1220703125,-0.06103515625,0.4462890625,-0.80126953125,0.3961181640625,-296.0,151.0,-152.0,101705.0,-3.1660001277923584,0,0
0.10076739999931306,0.372161865234375,-0.452301025390625,0.310302734375,-0.74871826171875,0.244140625,-0.06103515625,-0.30517578125,0.447021484375,-0.801513671875,0.3953857421875,-296.0,151.0,-152.0,101705.0,-3.1660001277923584,0,0
0.10084139999526087,0.372161865234375,-0.452301025390625,0.310302734375,-0.74871826171875,-0.30517578125,0.0,0.0,0.4473876953125,-0.80029296875,0.3968505859375,-296.0,151.0,-152.0,101705.0,-3.1660001277923584,0,0
0.10090049999416806,0.372161865234375,-0.452301025390625,0.310302734375,-0.74871826171875,0.54931640625,0.244140625,-0.06103515625,0.4464111328125,-0.8013916015625,0.3966064453125,-296.0,151.0,-152.0,101705.0,-3.1660001277923584,0,0
0.10095569999248255,0.372161865234375,-0.452301025390625,0.310302734375,-0.74871826171875,0.1220703125,-0.244140625,0.06103515625,0.4422607421875,-0.7994384765625,0.395751953125,-296.0,151.0,-152.0,101705.0,-3.1660001277923584,0,0
0.10100850000162609,0.372161865234375,-0.452301025390625,0.310302734375,-0.74871826171875,-0.06103515625,-0.1220703125,-0.1220703125,0.4468994140625,-0.7999267578125,0.3966064453125,-296.0,151.0,-152.0,101705.0,-3.1660001277923584,0,0
0.10106349999841768,0.372161865234375,-0.452301025390625,0.310302734375,-0.74871826171875,0.18310546875,-0.1220703125,-0.18310546875,0.4462890625,-0.80029296875,0.396240234375,-296.0,151.0,-152.0,101705.0,-3.1660001277923584,0,0
0.1011173000006238,0.372161865234375,-0.452301025390625,0.310302734375,-0.74871826171875,-0.06103515625,-0.244140625,-0.1220703125,0.4459228515625,-0.800537109375,0.397216796875,-296.0,151.0,-152.0,101705.0,-3.1660001277923584,0,0
0.16956959999515675,0.37213134765625,-0.45233154296875,0.310302734375,-0.748687744140625,0.18310546875,0.0,-0.1220703125,0.4462890625,-0.8009033203125,0.396728515625,-296.0,151.0,-152.0,101705.0,-3.1660001277923584,0,0
0.16964290000032634,0.37213134765625,-0.45233154296875,0.310302734375,-0.748687744140625,-0.1220703125,0.18310546875,-0.06103515625,0.44775390625,-0.80126953125,0.3958740234375,-296.0,151.0,-152.0,101705.0,-3.1660001277923584,0,0
0.1697029999922961,0.37213134765625,-0.45233154296875,0.310302734375,-0.748687744140625,0.0,0.0,0.18310546875,0.447265625,-0.80078125,0.39794921875,-296.0,151.0,-152.0,101705.0,-3.1660001277923584,0,0
0.1698130000004312,0.37213134765625,-0.45233154296875,0.310302734375,-0.748687744140625,-0.18310546875,-0.06103515625,-0.1220703125,0.4471435546875,-0.800537109375,0.3966064453125,-296.0,151.0,-152.0,101705.0,-3.1660001277923584,0,0
0.16987549999612384,0.37213134765625,-0.452362060546875,0.310333251953125,-0.748687744140625,0.0,-0.06103515625,0.0,0.4473876953125,-0.8016357421875,0.395751953125,-296.0,151.0,-152.0,101705.0,-3.1660001277923584,0,0
0.16995840000163298,0.37213134765625,-0.452362060546875,0.310333251953125,-0.748687744140625,-0.1220703125,-0.06103515625,-0.06103515625,0.4456787109375,-0.8021240234375,0.3966064453125,-295.0,151.0,-150.0,101705.0,-3.1660001277923584,0,0
0.17003330000443384,0.37225341796875,-0.452392578125,0.310272216796875,-0.748626708984375,0.0,-0.06103515625,0.0,0.4462890625,-0.8017578125,0.3973388671875,-295.0,151.0,-150.0,101705.0,-3.1660001277923584,0,0
0.1702134999941336,0.372222900390625,-0.452392578125,0.310272216796875,-0.748626708984375,-0.244140625,-0.06103515625,0.0,0.445068359375,-0.8011474609375,0.3970947265625,-295.0,151.0,-150.0,101705.0,-3.1660001277923584,0,0
0.17027639999287203,0.372222900390625,-0.452392578125,0.310272216796875,-0.748626708984375,-0.244140625,-0.06103515625,0.0,0.445068359375,-0.8011474609375,0.3970947265625,-295.0,151.0,-150.0,101705.0,-3.1660001277923584,0,0
0.17034650000277907,0.372222900390625,-0.452392578125,0.310272216796875,-0.748626708984375,0.0,-0.18310546875,-0.1220703125,0.4476318359375,-0.8001708984375,0.3956298828125,-295.0,151.0,-150.0,101705.0,-3.1660001277923584,0,0
0.17045570000482257,0.372222900390625,-0.452423095703125,0.310272216796875,-0.748626708984375,0.0,-0.06103515625,-0.3662109375,0.4466552734375,-0.8011474609375,0.396484375,-295.0,151.0,-150.0,101705.0,-3.1660001277923584,0,0
0.2304636000044411,0.372222900390625,-0.452423095703125,0.310272216796875,-0.748626708984375,0.0,-0.1220703125,-0.06103515625,0.448486328125,-0.8016357421875,0.3953857421875,-295.0,151.0,-150.0,101705.0,-3.1660001277923584,0,0
0.23052800000004936,0.372222900390625,-0.45245361328125,0.310272216796875,-0.748626708984375,-0.06103515625,-0.18310546875,0.1220703125,0.4478759765625,-0.8009033203125,0.39599609375,-295.0,151.0,-150.0,101705.0,-3.1660001277923584,0,0
0.2305837000021711,0.372222900390625,-0.45245361328125,0.310272216796875,-0.748626708984375,-0.06103515625,0.0,-0.06103515625,0.4466552734375,-0.8031005859375,0.3955078125,-295.0,151.0,-150.0,101705.0,-3.1660001277923584,0,0
0.23063710000133142,0.372222900390625,-0.45245361328125,0.310272216796875,-0.748626708984375,-0.18310546875,-0.18310546875,0.1220703125,0.443359375,-0.8017578125,0.3992919921875,-295.0,151.0,-150.0,101705.0,-3.1660001277923584,0,0
0.23068929999135435,0.372222900390625,-0.45245361328125,0.310302734375,-0.74859619140625,0.06103515625,-0.06103515625,0.0,0.4473876953125,-0.8028564453125,0.3953857421875,-295.0,151.0,-150.0,101705.0,-3.1660001277923584,0,0
0.23075809999136254,0.372222900390625,-0.45245361328125,0.310302734375,-0.74859619140625,0.06103515625,-0.06103515625,0.0,0.4473876953125,-0.8028564453125,0.3953857421875,-295.0,151.0,-150.0,101705.0,-3.1660001277923584,0,0
0.23081079999974463,0.372222900390625,-0.45245361328125,0.310302734375,-0.74859619140625,0.18310546875,0.0,0.30517578125,0.443603515625,-0.802734375,0.3961181640625,-295.0,151.0,-150.0,101705.0,-3.1660001277923584,0,0
0.23086290000355802,0.372222900390625,-0.45245361328125,0.310302734375,-0.74859619140625,0.0,-0.30517578125,0.1220703125,0.4449462890625,-0.802978515625,0.396240234375,-295.0,151.0,-150.0,101705.0,-3.1660001277923584,0,0
0.23091450000356417,0.372222900390625,-0.45245361328125,0.310302734375,-0.74859619140625,0.0,-0.1220703125,-0.06103515625,0.4454345703125,-0.7994384765625,0.3970947265625,-295.0,151.0,-150.0,101705.0,-3.1660001277923584,0,0
0.23097170000255574,0.372222900390625,-0.45245361328125,0.310302734375,-0.74859619140625,-0.06103515625,-0.18310546875,-0.244140625,0.44482421875,-0.7999267578125,0.3975830078125,-295.0,151.0,-150.0,101705.0,-3.1660001277923584,0,0
0.23102360000484623,0.372222900390625,-0.45245361328125,0.310302734375,-0.74859619140625,0.30517578125,-0.30517578125,-0.18310546875,0.4466552734375,-0.802734375,0.3978271484375,-295.0,151.0,-150.0,101705.0,-3.1660001277923584,0,0
0.29083309999259654,0.372222900390625,-0.45245361328125,0.310302734375,-0.74859619140625,0.18310546875,-0.244140625,-0.244140625,0.4468994140625,-0.800048828125,0.3961181640625,-295.0,151.0,-150.0,101705.0,-3.1660001277923584,0,0
0.2909017999918433,0.372222900390625,-0.45245361328125,0.310302734375,-0.74859619140625,0.1220703125,-0.244140625,-0.18310546875,0.4462890625,-0.800537109375,0.397216796875,-295.0,151.0,-150.0,101705.0,-3.1660001277923584,0,0
0.2909613999945577,0.372100830078125,-0.452423095703125,0.31036376953125,-0.7486572265625,0.18310546875,-0.244140625,0.244140625,0.44677734375,-0.7994384765625,0.3978271484375,-295.0,149.0,-150.0,101705.0,-3.1660001277923584,0,0
0.2910193999996409,0.372100830078125,-0.452423095703125,0.31036376953125,-0.7486572265625,0.18310546875,-0.244140625,0.244140625,0.44677734375,-0.7994384765625,0.3978271484375,-295.0,149.0,-150.0,101705.0,-3.1660001277923584,0,0
0.2910783999977866,0.372100830078125,-0.452423095703125,0.31036376953125,-0.748626708984375,0.06103515625,-0.06103515625,0.06103515625,0.4473876953125,-0.803466796875,0.396484375,-295.0,149.0,-150.0,101705.0,-3.1660001277923584,0,0
0.2912623000011081,0.372100830078125,-0.452423095703125,0.31036376953125,-0.748626708984375,0.06103515625,-0.06103515625,0.06103515625,0.4473876953125,-0.803466796875,0.396484375,-295.0,149.0,-150.0,101706.0,-3.1670000553131104,0,0
0.29134179999527987,0.372100830078125,-0.452423095703125,0.31036376953125,-0.748626708984375,-0.244140625,-0.244140625,-0.1220703125,0.444091796875,-0.7994384765625,0.39501953125,-295.0,149.0,-150.0,101706.0,-3.1670000553131104,0,0
0.29181189999508206,0.372100830078125,-0.452423095703125,0.31036376953125,-0.748626708984375,0.06103515625,-0.1220703125,0.0,0.443603515625,-0.8004150390625,0.396728515625,-295.0,149.0,-150.0,101706.0,-3.1670000553131104,0,0
0.29187839999212883,0.372100830078125,-0.452423095703125,0.310394287109375,-0.748626708984375,-0.18310546875,-0.06103515625,-0.18310546875,0.4462890625,-0.802734375,0.394287109375,-295.0,149.0,-150.0,101706.0,-3.1670000553131104,0,0
0.292019699991215,0.372100830078125,-0.45245361328125,0.310394287109375,-0.748626708984375,0.244140625,0.0,-0.06103515625,0.4447021484375,-0.8017578125,0.39453125,-295.0,149.0,-150.0,101706.0,-3.1670000553131104,0,0
0.2920776999962982,0.372100830078125,-0.45245361328125,0.310394287109375,-0.748626708984375,0.42724609375,0.0,-0.18310546875,0.4447021484375,-0.7999267578125,0.3953857421875,-295.0,149.0,-150.0,101706.0,-3.1670000553131104,0,0
0.29213549999985844,0.372100830078125,-0.45245361328125,0.310394287109375,-0.74859619140625,-0.244140625,-0.1220703125,-0.1220703125,0.447998046875,-0.8016357421875,0.3946533203125,-295.0,149.0,-150.0,101706.0,-3.1670000553131104,0,0
0.2921914000035031,0.372100830078125,-0.45245361328125,0.310394287109375,-0.74859619140625,0.48828125,0.0,-0.244140625,0.4462890625,-0.800537109375,0.3941650390625,-295.0,149.0,-150.0,101706.0,-3.1670000553131104,0,0
0.35836519999429584,0.372100830078125,-0.452484130859375,0.310394287109375,-0.74859619140625,0.1220703125,0.1220703125,-0.1220703125,0.4473876953125,-0.8011474609375,0.3970947265625,-295.0,149.0,-150.0,101706.0,-3.1670000553131104,0,0
0.35842930000217166,0.372100830078125,-0.452484130859375,0.310394287109375,-0.74859619140625,0.244140625,-0.06103515625,-0.1220703125,0.4462890625,-0.8016357421875,0.39697265625,-295.0,149.0,-150.0,101706.0,-3.1670000553131104,0,0
0.35848880000412464,0.372100830078125,-0.452484130859375,0.310394287109375,-0.74859619140625,-0.244140625,-0.30517578125,-0.18310546875,0.4462890625,-0.799560546875,0.3975830078125,-295.0,149.0,-150.0,101706.0,-3.1670000553131104,0,0
0.35854590000235476,0.3720703125,-0.452484130859375,0.310394287109375,-0.74859619140625,0.0,0.06103515625,-0.3662109375,0.4482421875,-0.7994384765625,0.3961181640625,-295.0,149.0,-150.0,101706.0,-3.1670000553131104,0,0
0.3586014000029536,0.3720703125,-0.452484130859375,0.310394287109375,-0.74859619140625,-0.1220703125,-0.06103515625,0.06103515625,0.44873046875,-0.80126953125,0.395263671875,-295.0,149.0,-150.0,101706.0,-3.1670000553131104,0,0
0.3586739000020316,0.3720703125,-0.4525146484375,0.310394287109375,-0.74859619140625,0.1220703125,0.0,0.244140625,0.4471435546875,-0.802001953125,0.395263671875,-295.0,149.0,-150.0,101706.0,-3.1670000553131104,0,0
0.3587284999957774,0.3720703125,-0.4525146484375,0.310394287109375,-0.74859619140625,0.42724609375,0.0,0.244140625,0.4486083984375,-0.8018798828125,0.3974609375,-294.0,151.0,-151.0,101706.0,-3.1670000553131104,0,0
0.358787699995446,0.3720703125,-0.4525146484375,0.310394287109375,-0.74859619140625,0.42724609375,0.0,0.244140625,0.4486083984375,-0.8018798828125,0.3974609375,-294.0,151.0,-151.0,101706.0,-3.1670000553131104,0,0
0.35884299999452196,0.3720703125,-0.452484130859375,0.310394287109375,-0.74859619140625,-0.06103515625,-0.06103515625,0.1220703125,0.4443359375,-0.799560546875,0.3985595703125,-294.0,151.0,-151.0,101706.0,-3.1670000553131104,0,0
0.3589992000052007,0.3720703125,-0.452484130859375,0.310394287109375,-0.74859619140625,0.18310546875,-0.244140625,-0.3662109375,0.4456787109375,-0.8023681640625,0.3970947265625,-294.0,151.0,-151.0,101706.0,-3.1670000553131104,0,0
0.35908480000216514,0.372100830078125,-0.452484130859375,0.3104248046875,-0.74859619140625,0.0,0.06103515625,-0.1220703125,0.442626953125,-0.8038330078125,0.39697265625,-294.0,151.0,-151.0,101705.0,-3.1670000553131104,0,0
0.4241442999918945,0.3720703125,-0.4525146484375,0.3104248046875,-0.74859619140625,0.18310546875,0.0,0.06103515625,0.4473876953125,-0.800537109375,0.3968505859375,-294.0,151.0,-151.0,101705.0,-3.1670000553131104,0,0
0.4242060999968089,0.3720703125,-0.4525146484375,0.3104248046875,-0.74859619140625,0.18310546875,0.06103515625,-0.1220703125,0.4462890625,-0.7998046875,0.39697265625,-294.0,151.0,-151.0,101705.0,-3.1670000553131104,0,0
0.4242640000011306,0.3720703125,-0.4525146484375,0.3104248046875,-0.74859619140625,0.18310546875,0.1220703125,-0.1220703125,0.446533203125,-0.8001708984375,0.39697265625,-294.0,151.0,-151.0,101705.0,-3.1670000553131104,0,0
0.4243214000016451,0.3720703125,-0.4525146484375,0.3104248046875,-0.74859619140625,0.06103515625,0.0,-0.30517578125,0.4462890625,-0.8004150390625,0.3946533203125,-294.0,151.0,-151.0,101705.0,-3.1670000553131104,0,0
0.42438149999361485,0.3720703125,-0.4525146484375,0.3104248046875,-0.74859619140625,0.06103515625,0.0,-0.30517578125,0.4462890625,-0.8004150390625,0.3946533203125,-294.0,151.0,-151.0,101705.0,-3.1670000553131104,0,0
0.42447030000039376,0.3720703125,-0.4525146484375,0.3104248046875,-0.74859619140625,0.18310546875,-0.1220703125,-0.06103515625,0.4454345703125,-0.800537109375,0.3955078125,-294.0,151.0,-151.0,101705.0,-3.1670000553131104,0,0
0.4245243000041228,0.3720703125,-0.4525146484375,0.3104248046875,-0.748565673828125,-0.3662109375,-0.1220703125,0.0,0.446533203125,-0.800537109375,0.395751953125,-294.0,151.0,-151.0,101705.0,-3.1670000553131104,0,0
0.4245770999987144,0.3720703125,-0.4525146484375,0.3104248046875,-0.748565673828125,0.0,-0.1220703125,0.18310546875,0.4505615234375,-0.7989501953125,0.3955078125,-294.0,151.0,-151.0,101705.0,-3.1670000553131104,0,0
0.4246296000055736,0.3720703125,-0.452545166015625,0.3104248046875,-0.748565673828125,-0.18310546875,-0.06103515625,0.18310546875,0.4483642578125,-0.7998046875,0.395263671875,-294.0,151.0,-151.0,101705.0,-3.1670000553131104,0,0
0.42468250000092667,0.3720703125,-0.452545166015625,0.3104248046875,-0.748565673828125,0.18310546875,0.0,0.1220703125,0.4473876953125,-0.8011474609375,0.3951416015625,-294.0,151.0,-151.0,101705.0,-3.1670000553131104,0,0
0.42473579999932554,0.372039794921875,-0.452545166015625,0.3104248046875,-0.748565673828125,0.06103515625,-0.18310546875,0.3662109375,0.4453125,-0.8016357421875,0.395751953125,-294.0,151.0,-151.0,101705.0,-3.1670000553131104,0,0
0.4824960999976611,0.372039794921875,-0.452545166015625,0.3104248046875,-0.748565673828125,0.06103515625,0.30517578125,0.06103515625,0.4459228515625,-0.802490234375,0.397216796875,-294.0,151.0,-151.0,101705.0,-3.1670000553131104,0,0
0.48257169999124017,0.372039794921875,-0.452545166015625,0.3104248046875,-0.748565673828125,0.1220703125,-0.1220703125,-0.18310546875,0.4456787109375,-0.8021240234375,0.3948974609375,-294.0,151.0,-151.0,101705.0,-3.1670000553131104,0,0
0.48263569999835454,0.372039794921875,-0.452545166015625,0.3104248046875,-0.748565673828125,0.1220703125,-0.1220703125,-0.18310546875,0.4456787109375,-0.8021240234375,0.3948974609375,-294.0,151.0,-151.0,101705.0,-3.1670000553131104,0,0
0.48269530000106897,0.3720703125,-0.452545166015625,0.3104248046875,-0.748565673828125,-0.1220703125,-0.06103515625,-0.18310546875,0.4453125,-0.801513671875,0.398193359375,-293.0,150.0,-151.0,101705.0,-3.1670000553131104,0,0
0.48274900000251364,0.3719482421875,-0.4525146484375,0.31048583984375,-0.74859619140625,0.18310546875,-0.06103515625,-0.18310546875,0.4473876953125,-0.80126953125,0.396728515625,-293.0,150.0,-151.0,101705.0,-3.1670000553131104,0,0
0.48280199999862816,0.3719482421875,-0.4525146484375,0.310516357421875,-0.74859619140625,0.18310546875,0.0,-0.30517578125,0.444091796875,-0.8017578125,0.3956298828125,-293.0,150.0,-151.0,101705.0,-3.1670000553131104,0,0
0.4828572999977041,0.3719482421875,-0.4525146484375,0.310516357421875,-0.74859619140625,0.244140625,-0.244140625,0.06103515625,0.4461669921875,-0.80126953125,0.3953857421875,-293.0,150.0,-151.0,101705.0,-3.1670000553131104,0,0
0.4834056999970926,0.3719482421875,-0.4525146484375,0.310516357421875,-0.74859619140625,0.244140625,-0.244140625,0.06103515625,0.4461669921875,-0.80126953125,0.3953857421875,-293.0,150.0,-151.0,101705.0,-3.1660001277923584,0,0
0.4834686999965925,0.3719482421875,-0.4525146484375,0.310516357421875,-0.74859619140625,0.1220703125,-0.06103515625,-0.18310546875,0.447509765625,-0.80322265625,0.3975830078125,-293.0,150.0,-151.0,101705.0,-3.1660001277923584,0,0
0.48352429999795277,0.3719482421875,-0.4525146484375,0.310516357421875,-0.74859619140625,0.18310546875,0.1220703125,0.06103515625,0.4466552734375,-0.801025390625,0.3978271484375,-293.0,150.0,-151.0,101705.0,-3.1660001277923584,0,0
0.48357840000244323,0.3719482421875,-0.4525146484375,0.310516357421875,-0.74859619140625,-0.30517578125,0.06103515625,-0.18310546875,0.4454345703125,-0.80224609375,0.396728515625,-293.0,150.0,-151.0,101705.0,-3.1660001277923584,0,0
0.4836334999999963,0.3719482421875,-0.4525146484375,0.310516357421875,-0.74859619140625,-0.06103515625,0.0,0.30517578125,0.447998046875,-0.802734375,0.3994140625,-293.0,150.0,-151.0,101705.0,-3.1660001277923584,0,0
0.4836875000037253,0.3719482421875,-0.4525146484375,0.310516357421875,-0.74859619140625,-0.06103515625,0.0,0.30517578125,0.447998046875,-0.802734375,0.3994140625,-293.0,150.0,-151.0,101705.0,-3.1660001277923584,0,0
0.553313900003559,0.3719482421875,-0.4525146484375,0.310516357421875,-0.74859619140625,0.1220703125,-0.244140625,0.06103515625,0.4468994140625,-0.8001708984375,0.396484375,-293.0,150.0,-151.0,101705.0,-3.1660001277923584,0,0
0.553376500000013,0.3719482421875,-0.4525146484375,0.310516357421875,-0.74859619140625,-0.18310546875,-0.1220703125,-0.244140625,0.446533203125,-0.80029296875,0.3966064453125,-293.0,150.0,-151.0,101705.0,-3.1660001277923584,0,0
0.5534342000028118,0.3719482421875,-0.4525146484375,0.310516357421875,-0.74859619140625,0.1220703125,-0.18310546875,-0.244140625,0.44580078125,-0.8011474609375,0.3958740234375,-293.0,150.0,-151.0,101705.0,-3.1660001277923584,0,0
0.5534876000019722,0.3719482421875,-0.4525146484375,0.310516357421875,-0.74859619140625,-0.06103515625,0.0,0.0,0.447265625,-0.8016357421875,0.3970947265625,-293.0,150.0,-151.0,101705.0,-3.1660001277923584,0,0
0.5535422999964794,0.3719482421875,-0.4525146484375,0.310516357421875,-0.74859619140625,0.18310546875,-0.06103515625,0.06103515625,0.4451904296875,-0.802001953125,0.3963623046875,-293.0,150.0,-151.0,101705.0,-3.1660001277923584,0,0
0.5553332999988925,0.3719482421875,-0.4525146484375,0.310516357421875,-0.74859619140625,0.1220703125,-0.1220703125,-0.18310546875,0.44482421875,-0.8004150390625,0.39697265625,-293.0,150.0,-151.0,101705.0,-3.1660001277923584,0,0
0.5553922999970382,0.3719482421875,-0.4525146484375,0.310516357421875,-0.74859619140625,0.1220703125,-0.1220703125,-0.18310546875,0.44482421875,-0.8004150390625,0.39697265625,-293.0,150.0,-151.0,101705.0,-3.1660001277923584,0,0
0.5554468000045745,0.3719482421875,-0.4525146484375,0.310516357421875,-0.74859619140625,0.0,-0.1220703125,0.0,0.444580078125,-0.800048828125,0.3980712890625,-293.0,150.0,-151.0,101705.0,-3.1660001277923584,0,0
0.5555005999922287,0.3719482421875,-0.4525146484375,0.310516357421875,-0.74859619140625,-0.06103515625,-0.1220703125,0.0,0.4459228515625,-0.8004150390625,0.39599609375,-293.0,150.0,-150.0,101705.0,-3.1660001277923584,0,0
0.5555545999959577,0.3719482421875,-0.452545166015625,0.310516357421875,-0.74859619140625,-0.1220703125,-0.3662109375,0.1220703125,0.4449462890625,-0.8001708984375,0.395263671875,-293.0,150.0,-150.0,101705.0,-3.1660001277923584,0,0
0.5556064999982482,0.3719482421875,-0.4525146484375,0.310516357421875,-0.74859619140625,0.244140625,0.06103515625,0.18310546875,0.4449462890625,-0.801513671875,0.397216796875,-293.0,150.0,-150.0,101705.0,-3.1660001277923584,0,0
0.6096229999966454,0.3719482421875,-0.452545166015625,0.310516357421875,-0.74859619140625,0.06103515625,-0.06103515625,-0.18310546875,0.448486328125,-0.8021240234375,0.3973388671875,-293.0,150.0,-150.0,101705.0,-3.1650002002716064,0,0
0.6096881999983452,0.3719482421875,-0.452545166015625,0.310516357421875,-0.74859619140625,-0.1220703125,-0.1220703125,-0.18310546875,0.44580078125,-0.8028564453125,0.395751953125,-293.0,150.0,-150.0,101705.0,-3.1650002002716064,0,0
0.609748100003344,0.3719482421875,-0.452545166015625,0.310516357421875,-0.74859619140625,0.06103515625,0.0,-0.1220703125,0.446044921875,-0.800048828125,0.3973388671875,-293.0,150.0,-150.0,101705.0,-3.1650002002716064,0,0
0.6098018000047887,0.3719482421875,-0.452545166015625,0.310516357421875,-0.74859619140625,0.06103515625,0.0,-0.1220703125,0.446044921875,-0.800048828125,0.3973388671875,-293.0,150.0,-150.0,101705.0,-3.1650002002716064,0,0
0.6098895000031916,0.3719482421875,-0.452545166015625,0.310516357421875,-0.74859619140625,0.1220703125,-0.06103515625,0.06103515625,0.447265625,-0.8009033203125,0.3978271484375,-293.0,150.0,-150.0,101705.0,-3.1650002002716064,0,0
0.6117881999962265,0.3719482421875,-0.452545166015625,0.310516357421875,-0.74859619140625,0.244140625,-0.42724609375,-0.1220703125,0.447998046875,-0.80078125,0.3970947265625,-293.0,150.0,-150.0,101705.0,-3.1650002002716064,0,0
0.6118472999951337,0.3719482421875,-0.452545166015625,0.310516357421875,-0.74859619140625,-0.1220703125,-0.18310546875,-0.30517578125,0.4464111328125,-0.8011474609375,0.3980712890625,-293.0,150.0,-150.0,101705.0,-3.1650002002716064,0,0
0.6178153999935603,0.3719482421875,-0.452545166015625,0.310516357421875,-0.74859619140625,0.1220703125,-0.06103515625,-0.06103515625,0.4462890625,-0.8006591796875,0.3953857421875,-293.0,150.0,-150.0,101705.0,-3.1650002002716064,0,0
0.6179778999940027,0.3719482421875,-0.452545166015625,0.310516357421875,-0.74859619140625,0.06103515625,0.1220703125,-0.06103515625,0.4443359375,-0.801025390625,0.3975830078125,-293.0,150.0,-150.0,101705.0,-3.1650002002716064,0,0
0.6181074000051012,0.3719482421875,-0.452545166015625,0.310516357421875,-0.74859619140625,0.30517578125,-0.1220703125,-0.1220703125,0.447265625,-0.801025390625,0.3978271484375,-293.0,150.0,-150.0,101705.0,-3.1650002002716064,0,0
0.6182335000048624,0.3719482421875,-0.452545166015625,0.310516357421875,-0.74859619140625,0.1220703125,0.06103515625,0.06103515625,0.4468994140625,-0.79931640625,0.3978271484375,-293.0,150.0,-150.0,101705.0,-3.1650002002716064,0,0
0.6183519000041997,0.3719482421875,-0.452545166015625,0.310516357421875,-0.74859619140625,-0.18310546875,0.0,0.18310546875,0.44677734375,-0.8004150390625,0.3968505859375,-293.0,150.0,-150.0,101705.0,-3.1650002002716064,0,0
0.6829274000047008,0.3719482421875,-0.452545166015625,0.310516357421875,-0.74859619140625,-0.18310546875,0.0,0.18310546875,0.44677734375,-0.8004150390625,0.3968505859375,-293.0,150.0,-150.0,101705.0,-3.1650002002716064,0,0
0.6829976000008173,0.3719482421875,-0.452545166015625,0.310516357421875,-0.74859619140625,0.1220703125,-0.06103515625,-0.1220703125,0.44580078125,-0.7998046875,0.3961181640625,-293.0,150.0,-150.0,101705.0,-3.1650002002716064,0,0
0.6830580999958329,0.3719482421875,-0.452545166015625,0.310516357421875,-0.74859619140625,-0.244140625,-0.244140625,-0.1220703125,0.44921875,-0.8017578125,0.3978271484375,-293.0,150.0,-150.0,101705.0,-3.1650002002716064,0,0
0.6831154999963474,0.3719482421875,-0.452545166015625,0.310516357421875,-0.74859619140625,0.18310546875,0.0,0.0,0.4466552734375,-0.80126953125,0.3968505859375,-293.0,150.0,-150.0,101705.0,-3.1650002002716064,0,0
0.6831716000015149,0.371826171875,-0.4525146484375,0.310577392578125,-0.748626708984375,0.18310546875,0.0,0.0,0.4466552734375,-0.80126953125,0.3968505859375,-293.0,151.0,-150.0,101705.0,-3.1650002002716064,0,0
0.6832278999936534,0.371826171875,-0.4525146484375,0.310577392578125,-0.748626708984375,0.06103515625,-0.3662109375,-0.1220703125,0.44482421875,-0.799560546875,0.396240234375,-293.0,151.0,-150.0,101705.0,-3.1650002002716064,0,0
0.6833088999992469,0.371826171875,-0.4525146484375,0.310577392578125,-0.748626708984375,0.0,-0.1220703125,-0.18310546875,0.4464111328125,-0.800537109375,0.3961181640625,-293.0,151.0,-150.0,101705.0,-3.1650002002716064,0,0
0.6833645000006072,0.371826171875,-0.4525146484375,0.310577392578125,-0.748626708984375,0.0,-0.1220703125,-0.18310546875,0.4464111328125,-0.800537109375,0.3961181640625,-293.0,151.0,-150.0,101705.0,-3.1650002002716064,0,0
0.6834193999966374,0.371826171875,-0.4525146484375,0.310577392578125,-0.748626708984375,0.18310546875,0.0,0.06103515625,0.4461669921875,-0.8026123046875,0.3975830078125,-293.0,151.0,-150.0,101705.0,-3.1650002002716064,0,0
0.6834747999964748,0.371826171875,-0.4525146484375,0.310577392578125,-0.748626708984375,0.244140625,0.06103515625,-0.18310546875,0.44580078125,-0.8004150390625,0.3968505859375,-293.0,151.0,-150.0,101705.0,-3.1650002002716064,0,0
0.683530599999358,0.371826171875,-0.4525146484375,0.310577392578125,-0.748626708984375,0.244140625,0.06103515625,-0.18310546875,0.44580078125,-0.8004150390625,0.3968505859375,-293.0,151.0,-150.0,101705.0,-3.1650002002716064,0,0
0.6835869999922579,0.371826171875,-0.4525146484375,0.310577392578125,-0.748626708984375,0.1220703125,-0.1220703125,-0.06103515625,0.4456787109375,-0.7994384765625,0.3970947265625,-293.0,151.0,-150.0,101705.0,-3.1650002002716064,0,0
0.7410392000019783,0.371826171875,-0.4525146484375,0.310577392578125,-0.748626708984375,0.244140625,-0.06103515625,-0.244140625,0.4468994140625,-0.801513671875,0.3961181640625,-293.0,151.0,-150.0,101705.0,-3.1650002002716064,0,0
0.7411028999922564,0.371826171875,-0.4525146484375,0.310577392578125,-0.748626708984375,0.06103515625,-0.06103515625,0.1220703125,0.446533203125,-0.8001708984375,0.3953857421875,-293.0,151.0,-150.0,101705.0,-3.1650002002716064,0,0
0.7411616000026697,0.371826171875,-0.4525146484375,0.310577392578125,-0.748626708984375,0.06103515625,0.0,0.0,0.4461669921875,-0.8023681640625,0.3984375,-293.0,151.0,-150.0,101705.0,-3.1650002002716064,0,0
0.7412221999984467,0.371826171875,-0.4525146484375,0.310577392578125,-0.748626708984375,-0.18310546875,0.06103515625,-0.244140625,0.4454345703125,-0.802490234375,0.3955078125,-293.0,151.0,-150.0,101705.0,-3.1650002002716064,0,0
0.7412780000013299,0.371826171875,-0.4525146484375,0.310577392578125,-0.748626708984375,0.18310546875,-0.18310546875,-0.244140625,0.4466552734375,-0.8004150390625,0.3963623046875,-293.0,151.0,-150.0,101705.0,-3.1650002002716064,0,0
0.7426762999966741,0.371826171875,-0.4525146484375,0.310577392578125,-0.748626708984375,0.18310546875,-0.18310546875,-0.244140625,0.4466552734375,-0.8004150390625,0.3963623046875,-293.0,151.0,-150.0,101705.0,-3.1650002002716064,0,0
0.7427344000025187,0.371826171875,-0.4525146484375,0.31060791015625,-0.748626708984375,0.18310546875,-0.06103515625,-0.244140625,0.44580078125,-0.8035888671875,0.3961181640625,-293.0,151.0,-150.0,101705.0,-3.1650002002716064,0,0
0.7427889999962645,0.371826171875,-0.4525146484375,0.31060791015625,-0.748626708984375,-0.1220703125,-0.244140625,0.06103515625,0.4482421875,-0.79931640625,0.396240234375,-293.0,151.0,-150.0,101705.0,-3.1650002002716064,0,0
0.7428445999976248,0.371826171875,-0.4525146484375,0.31060791015625,-0.748626708984375,0.0,0.06103515625,-0.1220703125,0.4468994140625,-0.8013916015625,0.3978271484375,-293.0,151.0,-150.0,101705.0,-3.1650002002716064,0,0
0.7429010000050766,0.371826171875,-0.4525146484375,0.31060791015625,-0.748626708984375,-0.18310546875,0.0,-0.06103515625,0.4462890625,-0.8006591796875,0.396484375,-293.0,151.0,-150.0,101705.0,-3.1650002002716064,0,0
0.7429573999979766,0.371826171875,-0.452545166015625,0.310577392578125,-0.748626708984375,-0.1220703125,-0.1220703125,-0.18310546875,0.447265625,-0.8004150390625,0.3963623046875,-294.0,151.0,-149.0,101705.0,-3.1650002002716064,0,0
0.8006396999990102,0.371826171875,-0.452545166015625,0.31060791015625,-0.748626708984375,0.18310546875,-0.18310546875,0.1220703125,0.447509765625,-0.802490234375,0.3966064453125,-294.0,151.0,-149.0,101705.0,-3.1650002002716064,0,0
0.8007096999936039,0.371826171875,-0.452545166015625,0.31060791015625,-0.748626708984375,0.18310546875,-0.18310546875,0.1220703125,0.447509765625,-0.802490234375,0.3966064453125,-294.0,151.0,-149.0,101705.0,-3.1650002002716064,0,0
0.8007694999978412,0.371826171875,-0.452545166015625,0.31060791015625,-0.748626708984375,-0.244140625,0.0,-0.1220703125,0.4437255859375,-0.800537109375,0.3956298828125,-294.0,151.0,-149.0,101705.0,-3.1650002002716064,0,0
0.8008273000014015,0.371826171875,-0.452545166015625,0.31060791015625,-0.74859619140625,0.0,-0.18310546875,-0.1220703125,0.4442138671875,-0.80126953125,0.3963623046875,-294.0,151.0,-149.0,101705.0,-3.1650002002716064,0,0
0.8008849000034388,0.371826171875,-0.452545166015625,0.31060791015625,-0.74859619140625,0.06103515625,-0.244140625,0.06103515625,0.4453125,-0.80078125,0.396484375,-294.0,151.0,-149.0,101705.0,-3.1650002002716064,0,0
0.8012724000000162,0.371826171875,-0.452545166015625,0.31060791015625,-0.74859619140625,0.0,-0.06103515625,0.0,0.4466552734375,-0.8021240234375,0.3958740234375,-294.0,151.0,-149.0,101705.0,-3.1650002002716064,0,0
0.8013309999951161,0.371826171875,-0.452545166015625,0.31060791015625,-0.74859619140625,0.06103515625,0.06103515625,-0.18310546875,0.4466552734375,-0.802734375,0.3970947265625,-294.0,151.0,-149.0,101705.0,-3.1650002002716064,0,0
0.8013871000002837,0.371826171875,-0.452545166015625,0.31060791015625,-0.74859619140625,-0.244140625,-0.06103515625,0.06103515625,0.4444580078125,-0.80126953125,0.395751953125,-294.0,151.0,-149.0,101705.0,-3.1650002002716064,0,0
0.8014446000015596,0.371826171875,-0.452545166015625,0.310638427734375,-0.74859619140625,-0.06103515625,-0.3662109375,0.1220703125,0.446044921875,-0.8006591796875,0.3955078125,-294.0,151.0,-149.0,101705.0,-3.1650002002716064,0,0
0.8015014999982668,0.371826171875,-0.452545166015625,0.310638427734375,-0.74859619140625,-0.06103515625,-0.18310546875,0.0,0.4449462890625,-0.8017578125,0.39599609375,-294.0,151.0,-149.0,101705.0,-3.1650002002716064,0,0
0.8015581999934511,0.371826171875,-0.452545166015625,0.310638427734375,-0.74859619140625,0.1220703125,-0.244140625,0.06103515625,0.4447021484375,-0.801513671875,0.3978271484375,-294.0,151.0,-149.0,101705.0,-3.1650002002716064,0,0
0.8016208000044571,0.371826171875,-0.452545166015625,0.310638427734375,-0.74859619140625,0.1220703125,-0.244140625,0.06103515625,0.4447021484375,-0.801513671875,0.3978271484375,-294.0,151.0,-149.0,101705.0,-3.1650002002716064,0,0
0.8703854000050342,0.371826171875,-0.452545166015625,0.310638427734375,-0.74859619140625,0.1220703125,0.0,-0.18310546875,0.4488525390625,-0.8013916015625,0.3980712890625,-294.0,151.0,-149.0,101705.0,-3.1650002002716064,0,0
0.8704522000043653,0.371826171875,-0.452545166015625,0.310638427734375,-0.74859619140625,0.06103515625,0.0,-0.06103515625,0.445556640625,-0.8009033203125,0.3978271484375,-294.0,151.0,-149.0,101705.0,-3.1650002002716064,0,0
0.8705101999948965,0.371826171875,-0.452545166015625,0.310638427734375,-0.74859619140625,0.18310546875,0.0,-0.1220703125,0.445556640625,-0.801513671875,0.3953857421875,-294.0,151.0,-149.0,101705.0,-3.1650002002716064,0,0
0.8705663000000641,0.371826171875,-0.452545166015625,0.310638427734375,-0.74859619140625,0.18310546875,0.06103515625,-0.1220703125,0.4481201171875,-0.8018798828125,0.396240234375,-294.0,151.0,-149.0,101705.0,-3.1650002002716064,0,0
0.8706230999960098,0.371826171875,-0.452545166015625,0.310638427734375,-0.74859619140625,-0.1220703125,-0.06103515625,-0.06103515625,0.4462890625,-0.8006591796875,0.396240234375,-294.0,151.0,-149.0,101705.0,-3.1650002002716064,0,0
0.8706796000042232,0.371826171875,-0.452545166015625,0.310638427734375,-0.74859619140625,0.3662109375,-0.06103515625,0.0,0.4454345703125,-0.802001953125,0.39599609375,-294.0,151.0,-149.0,101705.0,-3.1650002002716064,0,0
0.870752499991795,0.372039794921875,-0.45263671875,0.310516357421875,-0.74847412109375,0.3662109375,-0.06103515625,0.0,0.4454345703125,-0.802001953125,0.39599609375,-295.0,151.0,-149.0,101705.0,-3.1650002002716064,0,0
0.8708085999969626,0.372039794921875,-0.45263671875,0.310516357421875,-0.74847412109375,-0.1220703125,0.1220703125,0.06103515625,0.4478759765625,-0.7999267578125,0.396484375,-295.0,151.0,-149.0,101705.0,-3.1650002002716064,0,0
0.8708641999983229,0.372039794921875,-0.45263671875,0.310516357421875,-0.74847412109375,-0.1220703125,0.1220703125,0.06103515625,0.4478759765625,-0.7999267578125,0.396484375,-295.0,151.0,-149.0,101705.0,-3.1650002002716064,0,0
0.870920200002729,0.372039794921875,-0.45263671875,0.310516357421875,-0.74847412109375,-0.54931640625,-0.18310546875,0.0,0.4451904296875,-0.79931640625,0.396240234375,-295.0,151.0,-149.0,101705.0,-3.1650002002716064,0,0
0.8711405999929411,0.372039794921875,-0.45263671875,0.310516357421875,-0.74847412109375,-0.1220703125,0.0,0.0,0.4442138671875,-0.8013916015625,0.3955078125,-295.0,151.0,-149.0,101705.0,-3.1650002002716064,0,0
0.8711989000003086,0.372039794921875,-0.45263671875,0.310516357421875,-0.74847412109375,0.244140625,0.0,0.0,0.4461669921875,-0.8011474609375,0.395263671875,-295.0,151.0,-149.0,101705.0,-3.1650002002716064,0,0
0.9305845999915618,0.37200927734375,-0.452667236328125,0.310516357421875,-0.74847412109375,-0.06103515625,0.18310546875,-0.1220703125,0.4478759765625,-0.8021240234375,0.3974609375,-295.0,151.0,-149.0,101705.0,-3.1650002002716064,0,0
0.9306526000000304,0.37200927734375,-0.452667236328125,0.310516357421875,-0.74847412109375,-0.06103515625,-0.244140625,0.0,0.4468994140625,-0.8017578125,0.3970947265625,-295.0,151.0,-149.0,101705.0,-3.1650002002716064,0,0
0.9307120000012219,0.37200927734375,-0.452667236328125,0.310516357421875,-0.74847412109375,0.06103515625,0.06103515625,-0.1220703125,0.447998046875,-0.80126953125,0.396728515625,-295.0,151.0,-149.0,101705.0,-3.1650002002716064,0,0
0.9307706999970833,0.37200927734375,-0.452667236328125,0.310516357421875,-0.74847412109375,0.18310546875,0.0,-0.1220703125,0.4459228515625,-0.801513671875,0.395263671875,-295.0,151.0,-149.0,101705.0,-3.1650002002716064,0,0
0.9308733999932883,0.37200927734375,-0.452667236328125,0.310516357421875,-0.74847412109375,0.18310546875,0.0,-0.1220703125,0.4459228515625,-0.801513671875,0.395263671875,-295.0,151.0,-149.0,101705.0,-3.1650002002716064,0,0
0.9312208000046667,0.37200927734375,-0.452667236328125,0.310516357421875,-0.74847412109375,0.06103515625,0.0,0.1220703125,0.4459228515625,-0.7989501953125,0.3978271484375,-295.0,151.0,-149.0,101705.0,-3.1660001277923584,0,0
0.9312790999974823,0.37200927734375,-0.452667236328125,0.310516357421875,-0.74847412109375,-0.06103515625,0.0,-0.06103515625,0.4454345703125,-0.80126953125,0.3958740234375,-295.0,151.0,-149.0,101705.0,-3.1660001277923584,0,0
0.9313366999995196,0.37200927734375,-0.452667236328125,0.310516357421875,-0.74847412109375,-0.244140625,-0.18310546875,-0.06103515625,0.4449462890625,-0.8001708984375,0.396728515625,-295.0,151.0,-149.0,101705.0,-3.1660001277923584,0,0
0.9313935999962268,0.37200927734375,-0.452667236328125,0.310516357421875,-0.74847412109375,-0.06103515625,0.0,-0.1220703125,0.446044921875,-0.79931640625,0.395751953125,-295.0,151.0,-149.0,101705.0,-3.1660001277923584,0,0
0.9314489999960642,0.37200927734375,-0.452667236328125,0.310516357421875,-0.74847412109375,0.30517578125,-0.1220703125,-0.1220703125,0.445068359375,-0.80078125,0.395263671875,-295.0,151.0,-149.0,101705.0,-3.1660001277923584,0,0
0.9315035000036005,0.37200927734375,-0.452667236328125,0.310516357421875,-0.74847412109375,0.1220703125,0.0,-0.1220703125,0.4462890625,-0.801025390625,0.3973388671875,-295.0,151.0,-149.0,101705.0,-3.1660001277923584,0,0
0.931558700001915,0.37200927734375,-0.452667236328125,0.310516357421875,-0.74847412109375,-0.1220703125,-0.1220703125,-0.1220703125,0.445068359375,-0.80029296875,0.3974609375,-295.0,151.0,-149.0,101705.0,-3.1660001277923584,0,0
0.9920105000055628,0.37213134765625,-0.45269775390625,0.31048583984375,-0.7484130859375,0.06103515625,-0.18310546875,-0.06103515625,0.4461669921875,-0.8017578125,0.398193359375,-295.0,151.0,-149.0,101705.0,-3.1660001277923584,0,0
0.9920853999938117,0.37213134765625,-0.45269775390625,0.31048583984375,-0.7484130859375,0.3662109375,-0.1220703125,-0.1220703125,0.4451904296875,-0.802734375,0.3983154296875,-295.0,151.0,-149.0,101705.0,-3.1660001277923584,0,0
0.9921476000017719,0.37213134765625,-0.45269775390625,0.31048583984375,-0.7484130859375,-0.06103515625,-0.06103515625,0.1220703125,0.4478759765625,-0.8026123046875,0.395263671875,-295.0,151.0,-149.0,101705.0,-3.1660001277923584,0,0
0.9922070000029635,0.37213134765625,-0.45269775390625,0.31048583984375,-0.7484130859375,0.3662109375,-0.06103515625,-0.1220703125,0.446533203125,-0.80224609375,0.3975830078125,-295.0,151.0,-149.0,101705.0,-3.1660001277923584,0,0
0.9922817000042414,0.37213134765625,-0.452728271484375,0.31048583984375,-0.7484130859375,0.06103515625,-0.06103515625,0.06103515625,0.44775390625,-0.8009033203125,0.3973388671875,-295.0,151.0,-149.0,101705.0,-3.1660001277923584,0,0
0.9923392000055173,0.37213134765625,-0.452728271484375,0.31048583984375,-0.7484130859375,0.18310546875,0.1220703125,0.0,0.447265625,-0.800048828125,0.3958740234375,-295.0,151.0,-149.0,101705.0,-3.1660001277923584,0,0
0.992395299996133,0.37213134765625,-0.452728271484375,0.31048583984375,-0.7484130859375,0.42724609375,0.06103515625,-0.1220703125,0.44677734375,-0.8021240234375,0.396484375,-295.0,151.0,-149.0,101705.0,-3.1660001277923584,0,0
0.992450399993686,0.372100830078125,-0.452728271484375,0.31048583984375,-0.7484130859375,0.06103515625,-0.1220703125,-0.244140625,0.44677734375,-0.8011474609375,0.395751953125,-295.0,151.0,-149.0,101705.0,-3.1660001277923584,0,0
0.9925072000041837,0.372100830078125,-0.452728271484375,0.31048583984375,-0.7484130859375,0.06103515625,-0.1220703125,-0.244140625,0.44677734375,-0.8011474609375,0.395751953125,-295.0,151.0,-149.0,101705.0,-3.1660001277923584,0,0
0.9925624000024982,0.372100830078125,-0.452728271484375,0.31048583984375,-0.7484130859375,0.06103515625,-0.1220703125,-0.244140625,0.44677734375,-0.8011474609375,0.395751953125,-295.0,151.0,-149.0,101705.0,-3.1660001277923584,0,0
0.9926188999961596,0.372100830078125,-0.452728271484375,0.310455322265625,-0.7484130859375,0.0,-0.30517578125,-0.1220703125,0.4461669921875,-0.8006591796875,0.3966064453125,-295.0,151.0,-149.0,101705.0,-3.1660001277923584,0,0
1.0636188999924343,0.372100830078125,-0.452728271484375,0.310455322265625,-0.7484130859375,0.244140625,-0.30517578125,0.06103515625,0.4478759765625,-0.7991943359375,0.39794921875,-295.0,151.0,-149.0,101705.0,-3.1660001277923584,0,0
1.0636798999912571,0.372100830078125,-0.452728271484375,0.310455322265625,-0.7484130859375,0.244140625,-0.30517578125,0.06103515625,0.4478759765625,-0.7991943359375,0.39794921875,-295.0,151.0,-149.0,101705.0,-3.1650002002716064,0,0
1.0637351000041235,0.372100830078125,-0.452728271484375,0.310455322265625,-0.7484130859375,-0.18310546875,-0.18310546875,-0.1220703125,0.4462890625,-0.800048828125,0.396728515625,-295.0,151.0,-149.0,101705.0,-3.1650002002716064,0,0
1.0637887000048067,0.372100830078125,-0.452728271484375,0.310455322265625,-0.7484130859375,0.06103515625,-0.1220703125,0.1220703125,0.4461669921875,-0.802734375,0.3961181640625,-295.0,151.0,-149.0,101705.0,-3.1650002002716064,0,0
1.0638426999939838,0.372100830078125,-0.452728271484375,0.310455322265625,-0.7484130859375,-0.244140625,0.06103515625,-0.244140625,0.44775390625,-0.8001708984375,0.3955078125,-295.0,151.0,-149.0,101705.0,-3.1650002002716064,0,0
1.0646856999956071,0.372100830078125,-0.452728271484375,0.310455322265625,-0.7484130859375,0.0,0.0,-0.06103515625,0.4471435546875,-0.8021240234375,0.3970947265625,-295.0,151.0,-149.0,101705.0,-3.1650002002716064,0,0
1.065226699996856,0.372100830078125,-0.452728271484375,0.310455322265625,-0.7484130859375,0.18310546875,-0.244140625,-0.06103515625,0.4453125,-0.800537109375,0.3963623046875,-295.0,151.0,-149.0,101705.0,-3.1650002002716064,0,0
1.0652843999996549,0.372100830078125,-0.452728271484375,0.310455322265625,-0.7484130859375,0.18310546875,-0.244140625,-0.06103515625,0.4453125,-0.800537109375,0.3963623046875,-295.0,151.0,-149.0,101705.0,-3.1650002002716064,0,0
1.0653378999995766,0.372100830078125,-0.452728271484375,0.310455322265625,-0.7484130859375,0.30517578125,0.0,-0.244140625,0.4456787109375,-0.8016357421875,0.39697265625,-295.0,152.0,-149.0,101705.0,-3.1650002002716064,0,0
1.065391099997214,0.372314453125,-0.45281982421875,0.310333251953125,-0.748321533203125,-0.1220703125,0.0,-0.18310546875,0.4476318359375,-0.8004150390625,0.3975830078125,-295.0,152.0,-149.0,101705.0,-3.1650002002716064,0,0
1.0654434000025503,0.372283935546875,-0.452850341796875,0.310333251953125,-0.748321533203125,0.1220703125,-0.48828125,0.18310546875,0.44580078125,-0.8013916015625,0.39697265625,-295.0,152.0,-149.0,101705.0,-3.1650002002716064,0,0
1.0654958999948576,0.372283935546875,-0.452850341796875,0.310333251953125,-0.748321533203125,0.1220703125,-0.18310546875,0.1220703125,0.449462890625,-0.802490234375,0.3968505859375,-295.0,152.0,-149.0,101705.0,-3.1650002002716064,0,0
1.0655475999956252,0.372283935546875,-0.452850341796875,0.310333251953125,-0.748321533203125,0.0,0.0,0.18310546875,0.4451904296875,-0.801025390625,0.3955078125,-295.0,152.0,-149.0,101705.0,-3.1650002002716064,0,0
1.122303700001794,0.372283935546875,-0.452850341796875,0.310333251953125,-0.748291015625,-0.06103515625,-0.18310546875,-0.06103515625,0.4462890625,-0.8013916015625,0.396728515625,-295.0,152.0,-149.0,101705.0,-3.1650002002716064,0,0
1.1223634000052698,0.372283935546875,-0.452850341796875,0.310333251953125,-0.748291015625,0.18310546875,0.0,-0.06103515625,0.447509765625,-0.80029296875,0.3948974609375,-295.0,152.0,-149.0,101705.0,-3.1650002002716064,0,0
1.1224210999935167,0.372283935546875,-0.452850341796875,0.310333251953125,-0.748291015625,0.18310546875,0.0,-0.06103515625,0.447509765625,-0.80029296875,0.3948974609375,-295.0,152.0,-149.0,101705.0,-3.1650002002716064,0,0
1.1227354000002379,0.372283935546875,-0.452850341796875,0.310333251953125,-0.748291015625,0.1220703125,-0.18310546875,0.18310546875,0.4462890625,-0.80126953125,0.3951416015625,-295.0,152.0,-149.0,101705.0,-3.1650002002716064,0,0
1.1230849999992643,0.372283935546875,-0.452850341796875,0.31036376953125,-0.748291015625,-0.06103515625,0.0,-0.244140625,0.444091796875,-0.800048828125,0.3968505859375,-295.0,152.0,-149.0,101705.0,-3.1650002002716064,0,0
1.1231456999958027,0.372283935546875,-0.452850341796875,0.310333251953125,-0.748291015625,0.18310546875,0.0,-0.1220703125,0.4473876953125,-0.8001708984375,0.3970947265625,-295.0,152.0,-149.0,101705.0,-3.1650002002716064,0,0
1.1232004000048619,0.372283935546875,-0.452850341796875,0.310333251953125,-0.748291015625,-0.1220703125,-0.1220703125,-0.1220703125,0.4478759765625,-0.80029296875,0.39697265625,-295.0,152.0,-149.0,101706.0,-3.1670000553131104,0,0
1.123254399994039,0.372283935546875,-0.452850341796875,0.310333251953125,-0.748291015625,0.1220703125,-0.18310546875,-0.18310546875,0.4468994140625,-0.80322265625,0.3970947265625,-295.0,152.0,-149.0,101706.0,-3.1670000553131104,0,0
1.1233076999924378,0.372283935546875,-0.452850341796875,0.310333251953125,-0.748291015625,0.0,0.06103515625,0.1220703125,0.4462890625,-0.799072265625,0.396728515625,-295.0,152.0,-149.0,101706.0,-3.1670000553131104,0,0
1.123361499994644,0.372283935546875,-0.452850341796875,0.310333251953125,-0.748291015625,0.244140625,0.0,0.0,0.446044921875,-0.8004150390625,0.396484375,-295.0,152.0,-149.0,101706.0,-3.1670000553131104,0,0
1.1234135999984574,0.372283935546875,-0.452850341796875,0.310333251953125,-0.748291015625,0.0,0.0,-0.1220703125,0.4473876953125,-0.8004150390625,0.3980712890625,-295.0,152.0,-149.0,101706.0,-3.1670000553131104,0,0
1.1865541000006488,0.372283935546875,-0.452850341796875,0.310333251953125,-0.748291015625,-0.06103515625,-0.1220703125,-0.06103515625,0.4459228515625,-0.7999267578125,0.396484375,-295.0,153.0,-150.0,101706.0,-3.1670000553131104,0,0
1.1866180999932112,0.372283935546875,-0.452850341796875,0.310333251953125,-0.748291015625,-0.06103515625,-0.1220703125,-0.1220703125,0.448486328125,-0.8018798828125,0.397216796875,-295.0,153.0,-150.0,101706.0,-3.1670000553131104,0,0
1.1866771999921184,0.372283935546875,-0.452850341796875,0.310333251953125,-0.748291015625,0.06103515625,-0.06103515625,-0.1220703125,0.4456787109375,-0.8016357421875,0.3968505859375,-295.0,153.0,-150.0,101706.0,-3.1670000553131104,0,0
1.18673439999111,0.372283935546875,-0.452850341796875,0.310333251953125,-0.748291015625,-0.1220703125,0.0,-0.1220703125,0.448486328125,-0.8028564453125,0.3968505859375,-295.0,153.0,-150.0,101706.0,-3.1670000553131104,0,0
1.186806500001694,0.372283935546875,-0.452850341796875,0.310333251953125,-0.748291015625,0.1220703125,-0.1220703125,-0.06103515625,0.4462890625,-0.8001708984375,0.3988037109375,-295.0,153.0,-150.0,101706.0,-3.1670000553131104,0,0
1.1871015999931842,0.372283935546875,-0.452850341796875,0.310333251953125,-0.748321533203125,-0.18310546875,-0.1220703125,0.1220703125,0.4462890625,-0.79931640625,0.3975830078125,-295.0,153.0,-150.0,101706.0,-3.1670000553131104,0,0
1.1871668999956455,0.372283935546875,-0.452850341796875,0.310333251953125,-0.748321533203125,0.18310546875,-0.06103515625,0.06103515625,0.44580078125,-0.80078125,0.39794921875,-295.0,153.0,-150.0,101706.0,-3.1670000553131104,0,0
1.1872243999969214,0.372283935546875,-0.452850341796875,0.310333251953125,-0.748321533203125,0.06103515625,-0.30517578125,-0.06103515625,0.4464111328125,-0.8017578125,0.3978271484375,-295.0,153.0,-150.0,101706.0,-3.1670000553131104,0,0
1.1872790999914287,0.372283935546875,-0.452850341796875,0.310333251953125,-0.748321533203125,0.06103515625,-0.30517578125,-0.06103515625,0.4464111328125,-0.8017578125,0.3978271484375,-295.0,153.0,-150.0,101706.0,-3.1670000553131104,0,0
1.1873363000049721,0.372283935546875,-0.452850341796875,0.310333251953125,-0.748291015625,0.0,0.0,0.0,0.4471435546875,-0.8011474609375,0.395751953125,-295.0,153.0,-150.0,101706.0,-3.1670000553131104,0,0
1.1873947999993106,0.372283935546875,-0.452850341796875,0.310333251953125,-0.748291015625,0.06103515625,-0.18310546875,0.06103515625,0.44580078125,-0.8001708984375,0.3955078125,-295.0,153.0,-150.0,101706.0,-3.1670000553131104,0,0
1.2497059000015724,0.372283935546875,-0.452850341796875,0.310333251953125,-0.748291015625,0.3662109375,-0.18310546875,0.06103515625,0.445068359375,-0.8009033203125,0.3963623046875,-295.0,153.0,-150.0,101706.0,-3.1670000553131104,0,0
1.2497752999915974,0.372283935546875,-0.452850341796875,0.31036376953125,-0.748291015625,-0.1220703125,-0.1220703125,-0.06103515625,0.4451904296875,-0.802001953125,0.3980712890625,-295.0,153.0,-150.0,101706.0,-3.1670000553131104,0,0
1.249837800001842,0.372283935546875,-0.452850341796875,0.31036376953125,-0.748291015625,0.1220703125,0.18310546875,0.06103515625,0.4464111328125,-0.80224609375,0.3975830078125,-295.0,153.0,-150.0,101706.0,-3.1670000553131104,0,0
1.2498956000054022,0.372283935546875,-0.452850341796875,0.31036376953125,-0.748291015625,0.1220703125,0.18310546875,0.06103515625,0.4464111328125,-0.80224609375,0.3975830078125,-295.0,153.0,-150.0,101705.0,-3.1660001277923584,0,0
1.2499540999997407,0.372283935546875,-0.452850341796875,0.310333251953125,-0.748291015625,0.30517578125,0.0,-0.1220703125,0.4462890625,-0.80078125,0.3966064453125,-295.0,153.0,-150.0,101705.0,-3.1660001277923584,0,0
1.2500104999926407,0.372283935546875,-0.452850341796875,0.310333251953125,-0.748291015625,-0.06103515625,-0.244140625,0.0,0.4461669921875,-0.8001708984375,0.396240234375,-295.0,153.0,-150.0,101705.0,-3.1660001277923584,0,0
1.2503532999980962,0.372283935546875,-0.452850341796875,0.310333251953125,-0.748291015625,-0.06103515625,-0.244140625,0.0,0.4461669921875,-0.8001708984375,0.396240234375,-295.0,153.0,-150.0,101705.0,-3.1660001277923584,0,0
1.2504211000050418,0.372314453125,-0.452850341796875,0.31036376953125,-0.748291015625,0.0,0.0,0.1220703125,0.44482421875,-0.8028564453125,0.39697265625,-295.0,153.0,-150.0,101705.0,-3.1660001277923584,0,0
1.2504811999970116,0.372314453125,-0.45281982421875,0.31036376953125,-0.748291015625,-0.244140625,-0.06103515625,-0.244140625,0.445068359375,-0.8011474609375,0.3966064453125,-295.0,153.0,-150.0,101705.0,-3.1660001277923584,0,0
1.2505792000010842,0.372314453125,-0.45281982421875,0.31036376953125,-0.748291015625,0.18310546875,-0.1220703125,-0.1220703125,0.445556640625,-0.7996826171875,0.3985595703125,-295.0,153.0,-152.0,101705.0,-3.1660001277923584,0,0
1.2506485999911092,0.3721923828125,-0.452789306640625,0.3104248046875,-0.74835205078125,-0.06103515625,0.0,0.0,0.4439697265625,-0.8006591796875,0.3956298828125,-295.0,153.0,-152.0,101705.0,-3.1660001277923584,0,0
1.2507092000014381,0.3721923828125,-0.452789306640625,0.3104248046875,-0.74835205078125,-0.06103515625,0.06103515625,-0.18310546875,0.4462890625,-0.8037109375,0.3966064453125,-295.0,153.0,-152.0,101705.0,-3.1660001277923584,0,0
1.2507664000004297,0.3721923828125,-0.452789306640625,0.3104248046875,-0.74835205078125,-0.1220703125,-0.1220703125,-0.06103515625,0.4447021484375,-0.8006591796875,0.3975830078125,-295.0,153.0,-152.0,101705.0,-3.1660001277923584,0,0
1.380142199996044,0.372222900390625,-0.4527587890625,0.310394287109375,-0.748382568359375,-0.18310546875,-0.1220703125,-0.1220703125,0.4462890625,-0.80322265625,0.399658203125,-295.0,153.0,-152.0,101706.0,-3.1670000553131104,0,0
1.3802066999924136,0.372222900390625,-0.4527587890625,0.310394287109375,-0.748382568359375,0.0,-0.1220703125,-0.06103515625,0.4473876953125,-0.8017578125,0.39990234375,-295.0,153.0,-152.0,101706.0,-3.1670000553131104,0,0
1.380265200001304,0.372100830078125,-0.45269775390625,0.310455322265625,-0.748443603515625,0.18310546875,0.06103515625,-0.1220703125,0.4461669921875,-0.8021240234375,0.3985595703125,-295.0,152.0,-151.0,101706.0,-3.1670000553131104,0,0
1.3803232999925967,0.37213134765625,-0.45269775390625,0.310455322265625,-0.748443603515625,0.0,-0.18310546875,0.18310546875,0.446533203125,-0.80078125,0.3984375,-295.0,152.0,-151.0,101706.0,-3.1670000553131104,0,0
1.380381099996157,0.372100830078125,-0.45269775390625,0.310455322265625,-0.748443603515625,0.18310546875,0.0,-0.1220703125,0.447509765625,-0.801513671875,0.399169921875,-295.0,152.0,-151.0,101706.0,-3.1670000553131104,0,0
1.380453399993712,0.37213134765625,-0.45269775390625,0.310455322265625,-0.748443603515625,-0.1220703125,-0.18310546875,-0.06103515625,0.4447021484375,-0.801513671875,0.3990478515625,-295.0,152.0,-151.0,101706.0,-3.1670000553131104,0,0
1.3805111999972723,0.37213134765625,-0.45269775390625,0.310455322265625,-0.748443603515625,-0.06103515625,-0.18310546875,0.06103515625,0.4459228515625,-0.8018798828125,0.398193359375,-295.0,152.0,-151.0,101706.0,-3.1670000553131104,0,0
1.3805654000025243,0.37213134765625,-0.45269775390625,0.310455322265625,-0.748443603515625,-0.06103515625,-0.18310546875,0.06103515625,0.4459228515625,-0.8018798828125,0.398193359375,-295.0,152.0,-151.0,101706.0,-3.1670000553131104,0,0
1.38061999999627,0.37213134765625,-0.45269775390625,0.3104248046875,-0.748443603515625,0.18310546875,0.0,-0.06103515625,0.4466552734375,-0.8001708984375,0.3983154296875,-295.0,152.0,-151.0,101706.0,-3.1670000553131104,0,0
1.3807830000005197,0.37213134765625,-0.452667236328125,0.3104248046875,-0.748443603515625,0.0,-0.1220703125,0.1220703125,0.44482421875,-0.7996826171875,0.3980712890625,-295.0,152.0,-151.0,101706.0,-3.1670000553131104,0,0
1.3808409000048414,0.37213134765625,-0.452667236328125,0.3104248046875,-0.748443603515625,0.06103515625,-0.30517578125,-0.1220703125,0.4459228515625,-0.8009033203125,0.3983154296875,-295.0,152.0,-151.0,101706.0,-3.1670000553131104,0,0
1.4412029999948572,0.37213134765625,-0.452667236328125,0.3104248046875,-0.748443603515625,-0.06103515625,0.06103515625,-0.18310546875,0.4482421875,-0.800048828125,0.398681640625,-295.0,152.0,-151.0,101706.0,-3.1670000553131104,0,0
1.4412730000040028,0.37213134765625,-0.452667236328125,0.3104248046875,-0.748443603515625,0.1220703125,0.0,0.0,0.4444580078125,-0.8016357421875,0.3980712890625,-295.0,152.0,-151.0,101706.0,-3.1670000553131104,0,0
1.441332499991404,0.37213134765625,-0.452667236328125,0.3104248046875,-0.748443603515625,0.244140625,-0.18310546875,-0.06103515625,0.446533203125,-0.80126953125,0.3974609375,-295.0,152.0,-151.0,101706.0,-3.1670000553131104,0,0
1.441389400002663,0.37213134765625,-0.452667236328125,0.3104248046875,-0.748443603515625,0.06103515625,0.0,-0.244140625,0.44677734375,-0.7999267578125,0.398193359375,-295.0,152.0,-151.0,101706.0,-3.1670000553131104,0,0
1.441457699998864,0.37213134765625,-0.452667236328125,0.3104248046875,-0.748443603515625,0.244140625,0.06103515625,-0.1220703125,0.444091796875,-0.7989501953125,0.3983154296875,-295.0,152.0,-151.0,101706.0,-3.1670000553131104,0,0
1.4415157000039471,0.37213134765625,-0.452667236328125,0.3104248046875,-0.748443603515625,0.244140625,0.06103515625,-0.1220703125,0.444091796875,-0.7989501953125,0.3983154296875,-295.0,152.0,-151.0,101706.0,-3.1670000553131104,0,0
1.4416465999966022,0.37213134765625,-0.452667236328125,0.3104248046875,-0.74847412109375,-0.18310546875,-0.06103515625,0.06103515625,0.4456787109375,-0.80029296875,0.398681640625,-295.0,152.0,-151.0,101705.0,-3.1650002002716064,0,0
1.4417492999928072,0.37213134765625,-0.452667236328125,0.3104248046875,-0.74847412109375,0.1220703125,-0.18310546875,-0.06103515625,0.4473876953125,-0.7994384765625,0.3961181640625,-295.0,152.0,-151.0,101705.0,-3.1650002002716064,0,0
1.441815800004406,0.37213134765625,-0.452667236328125,0.3104248046875,-0.74847412109375,0.0,-0.244140625,0.0,0.445068359375,-0.800048828125,0.398193359375,-295.0,152.0,-151.0,101705.0,-3.1650002002716064,0,0
1.44187399999646,0.37213134765625,-0.452667236328125,0.3104248046875,-0.74847412109375,0.0,-0.1220703125,-0.06103515625,0.445556640625,-0.80126953125,0.3975830078125,-295.0,152.0,-151.0,101705.0,-3.1650002002716064,0,0
1.4419330999953672,0.37213134765625,-0.452667236328125,0.310394287109375,-0.74847412109375,-0.18310546875,-0.06103515625,-0.06103515625,0.44677734375,-0.800048828125,0.3984375,-295.0,152.0,-151.0,101705.0,-3.1650002002716064,0,0
1.4419902999943588,0.37213134765625,-0.452667236328125,0.310394287109375,-0.74847412109375,0.3662109375,0.0,-0.06103515625,0.446533203125,-0.8011474609375,0.3978271484375,-295.0,151.0,-150.0,101705.0,-3.1650002002716064,0,0
1.4420474999933504,0.37213134765625,-0.452667236328125,0.310394287109375,-0.74847412109375,-0.06103515625,-0.18310546875,-0.30517578125,0.4476318359375,-0.8017578125,0.3992919921875,-295.0,151.0,-150.0,101705.0,-3.1650002002716064,0,0
1.5064109999948414,0.37213134765625,-0.45263671875,0.310394287109375,-0.74847412109375,0.3662109375,-0.06103515625,-0.3662109375,0.4481201171875,-0.80078125,0.3990478515625,-295.0,151.0,-150.0,101705.0,-3.1650002002716064,0,0
1.5064787000010256,0.37213134765625,-0.45263671875,0.310394287109375,-0.74847412109375,0.1220703125,-0.06103515625,-0.06103515625,0.4444580078125,-0.800048828125,0.3963623046875,-295.0,151.0,-150.0,101705.0,-3.1650002002716064,0,0
1.5065408999944339,0.37213134765625,-0.45263671875,0.310394287109375,-0.74847412109375,0.1220703125,-0.1220703125,0.06103515625,0.4476318359375,-0.7996826171875,0.3983154296875,-295.0,151.0,-150.0,101705.0,-3.1650002002716064,0,0
1.506597999992664,0.37213134765625,-0.45263671875,0.310394287109375,-0.748504638671875,0.06103515625,-0.30517578125,-0.42724609375,0.446044921875,-0.8001708984375,0.4002685546875,-295.0,151.0,-150.0,101705.0,-3.1650002002716064,0,0
1.506657499994617,0.37213134765625,-0.45263671875,0.31036376953125,-0.748504638671875,0.1220703125,-0.1220703125,-0.06103515625,0.4461669921875,-0.80126953125,0.3990478515625,-295.0,151.0,-150.0,101705.0,-3.1650002002716064,0,0
1.5067484000028344,0.37213134765625,-0.45263671875,0.31036376953125,-0.748504638671875,-0.244140625,-0.244140625,-0.30517578125,0.4468994140625,-0.799560546875,0.39697265625,-295.0,151.0,-150.0,101705.0,-3.1650002002716064,0,0
1.506805600001826,0.37213134765625,-0.45263671875,0.31036376953125,-0.748504638671875,0.18310546875,-0.1220703125,0.0,0.4443359375,-0.7999267578125,0.3984375,-295.0,151.0,-150.0,101705.0,-3.1650002002716064,0,0
1.5068621999962488,0.37213134765625,-0.45263671875,0.31036376953125,-0.748504638671875,0.18310546875,0.18310546875,-0.1220703125,0.4462890625,-0.7987060546875,0.399169921875,-295.0,151.0,-150.0,101705.0,-3.1650002002716064,0,0
1.5069191999937175,0.37213134765625,-0.452606201171875,0.31036376953125,-0.748504638671875,0.244140625,0.0,0.0,0.4476318359375,-0.8001708984375,0.3995361328125,-295.0,151.0,-150.0,101705.0,-3.1650002002716064,0,0
1.5069760000042152,0.37213134765625,-0.452606201171875,0.31036376953125,-0.748504638671875,0.244140625,0.0,0.0,0.4476318359375,-0.8001708984375,0.3995361328125,-295.0,151.0,-150.0,101705.0,-3.1650002002716064,0,0
1.5070326999993995,0.37213134765625,-0.452606201171875,0.31036376953125,-0.748504638671875,-0.244140625,0.0,-0.30517578125,0.4462890625,-0.8006591796875,0.3980712890625,-295.0,151.0,-150.0,101705.0,-3.1660001277923584,0,0
1.57401789999858,0.37213134765625,-0.452606201171875,0.310333251953125,-0.74853515625,0.1220703125,-0.244140625,0.06103515625,0.4471435546875,-0.8009033203125,0.3978271484375,-295.0,151.0,-150.0,101705.0,-3.1660001277923584,0,0
1.574103799997829,0.37213134765625,-0.452606201171875,0.310333251953125,-0.74853515625,0.0,-0.244140625,-0.18310546875,0.447021484375,-0.8009033203125,0.3963623046875,-295.0,151.0,-150.0,101705.0,-3.1660001277923584,0,0
1.5741655000019819,0.37213134765625,-0.452606201171875,0.310333251953125,-0.74853515625,-0.18310546875,-0.244140625,-0.06103515625,0.446044921875,-0.7996826171875,0.3988037109375,-295.0,151.0,-150.0,101705.0,-3.1660001277923584,0,0
1.5742247000016505,0.37213134765625,-0.452606201171875,0.310333251953125,-0.74853515625,0.42724609375,-0.30517578125,0.0,0.444580078125,-0.800537109375,0.39697265625,-295.0,151.0,-150.0,101705.0,-3.1660001277923584,0,0
1.5742836999997962,0.3719482421875,-0.4525146484375,0.310455322265625,-0.748626708984375,-0.30517578125,0.06103515625,0.06103515625,0.4466552734375,-0.801513671875,0.399169921875,-294.0,152.0,-151.0,101705.0,-3.1660001277923584,0,0
1.574363199993968,0.3719482421875,-0.4525146484375,0.310455322265625,-0.748626708984375,0.30517578125,-0.06103515625,-0.1220703125,0.445556640625,-0.8023681640625,0.3983154296875,-294.0,152.0,-151.0,101705.0,-3.1660001277923584,0,0
1.5744188999960897,0.3719482421875,-0.4525146484375,0.310455322265625,-0.748626708984375,0.30517578125,-0.06103515625,-0.1220703125,0.445556640625,-0.8023681640625,0.3983154296875,-294.0,152.0,-151.0,101705.0,-3.1660001277923584,0,0
1.57447379999212,0.3719482421875,-0.452484130859375,0.310455322265625,-0.748626708984375,0.30517578125,-0.244140625,0.06103515625,0.44482421875,-0.7996826171875,0.399169921875,-294.0,152.0,-151.0,101705.0,-3.1660001277923584,0,0
1.5745289000042249,0.3719482421875,-0.452484130859375,0.310455322265625,-0.7486572265625,0.06103515625,-0.18310546875,0.1220703125,0.446044921875,-0.800537109375,0.39990234375,-294.0,152.0,-151.0,101705.0,-3.1660001277923584,0,0
1.5745833999972092,0.3719482421875,-0.452484130859375,0.310455322265625,-0.7486572265625,0.244140625,0.0,0.06103515625,0.4468994140625,-0.8004150390625,0.39990234375,-294.0,152.0,-151.0,101705.0,-3.1660001277923584,0,0
1.5746393000008538,0.3719482421875,-0.452484130859375,0.310455322265625,-0.7486572265625,0.0,-0.1220703125,-0.244140625,0.447021484375,-0.8001708984375,0.3997802734375,-294.0,152.0,-151.0,101705.0,-3.1660001277923584,0,0
1.6333086999948137,0.3719482421875,-0.452484130859375,0.3104248046875,-0.7486572265625,0.244140625,-0.3662109375,-0.244140625,0.4449462890625,-0.798828125,0.399658203125,-294.0,152.0,-151.0,101705.0,-3.1660001277923584,0,0
1.6333757999964291,0.3719482421875,-0.452484130859375,0.3104248046875,-0.7486572265625,0.06103515625,-0.18310546875,0.1220703125,0.447265625,-0.80029296875,0.3988037109375,-294.0,152.0,-151.0,101705.0,-3.1660001277923584,0,0
1.6334353999991436,0.3719482421875,-0.452484130859375,0.3104248046875,-0.7486572265625,0.1220703125,-0.06103515625,-0.18310546875,0.4461669921875,-0.8004150390625,0.3975830078125,-294.0,152.0,-151.0,101705.0,-3.1660001277923584,0,0
1.6334923999966122,0.3719482421875,-0.452484130859375,0.3104248046875,-0.7486572265625,-0.06103515625,-0.06103515625,0.1220703125,0.44482421875,-0.79931640625,0.3992919921875,-294.0,152.0,-151.0,101705.0,-3.1660001277923584,0,0
1.633549000005587,0.3719482421875,-0.452484130859375,0.3104248046875,-0.7486572265625,-0.06103515625,-0.06103515625,0.1220703125,0.44482421875,-0.79931640625,0.3992919921875,-294.0,152.0,-151.0,101705.0,-3.1660001277923584,0,0
1.6336057000007713,0.3719482421875,-0.452484130859375,0.3104248046875,-0.7486572265625,0.244140625,-0.06103515625,0.06103515625,0.447265625,-0.801513671875,0.3994140625,-294.0,152.0,-151.0,101705.0,-3.1660001277923584,0,0
1.633663600005093,0.3719482421875,-0.452484130859375,0.3104248046875,-0.7486572265625,0.1220703125,0.06103515625,-0.3662109375,0.44873046875,-0.8001708984375,0.401123046875,-294.0,152.0,-151.0,101706.0,-3.1670000553131104,0,0
1.6338174999982584,0.3719482421875,-0.45245361328125,0.3104248046875,-0.748687744140625,-0.06103515625,-0.06103515625,0.06103515625,0.4459228515625,-0.800537109375,0.40087890625,-294.0,152.0,-151.0,101706.0,-3.1670000553131104,0,0
1.6338733000011416,0.3719482421875,-0.45245361328125,0.3104248046875,-0.748687744140625,0.18310546875,-0.244140625,0.0,0.445556640625,-0.80224609375,0.398681640625,-294.0,152.0,-151.0,101706.0,-3.1670000553131104,0,0
1.633928900002502,0.3719482421875,-0.45245361328125,0.3104248046875,-0.748687744140625,0.244140625,-0.1220703125,-0.06103515625,0.447265625,-0.8017578125,0.3980712890625,-294.0,152.0,-151.0,101706.0,-3.1670000553131104,0,0
1.6339876999991247,0.3719482421875,-0.45245361328125,0.3104248046875,-0.748687744140625,-0.06103515625,-0.42724609375,-0.18310546875,0.445068359375,-0.8013916015625,0.39794921875,-294.0,152.0,-151.0,101706.0,-3.1670000553131104,0,0
1.634045500002685,0.3719482421875,-0.45245361328125,0.3104248046875,-0.748687744140625,0.18310546875,-0.06103515625,0.06103515625,0.4466552734375,-0.8033447265625,0.3978271484375,-294.0,152.0,-151.0,101706.0,-3.1670000553131104,0,0
1.6341013000055682,0.3719482421875,-0.45245361328125,0.310394287109375,-0.748687744140625,0.1220703125,0.0,-0.1220703125,0.4471435546875,-0.8006591796875,0.3978271484375,-294.0,152.0,-151.0,101706.0,-3.1670000553131104,0,0
1.7002193999942392,0.37176513671875,-0.452362060546875,0.310516357421875,-0.748779296875,-0.30517578125,-0.30517578125,0.06103515625,0.4462890625,-0.8023681640625,0.3995361328125,-294.0,152.0,-151.0,101706.0,-3.1670000553131104,0,0
1.7003058999980567,0.37176513671875,-0.452362060546875,0.310516357421875,-0.748779296875,0.30517578125,-0.18310546875,-0.1220703125,0.4459228515625,-0.801025390625,0.3990478515625,-294.0,152.0,-151.0,101706.0,-3.1670000553131104,0,0
1.7003680000052555,0.37176513671875,-0.452362060546875,0.310516357421875,-0.748779296875,0.0,-0.1220703125,-0.1220703125,0.44580078125,-0.80126953125,0.4000244140625,-294.0,152.0,-151.0,101706.0,-3.1670000553131104,0,0
1.7004248000012012,0.37176513671875,-0.452362060546875,0.310516357421875,-0.748779296875,-0.1220703125,-0.18310546875,-0.1220703125,0.44580078125,-0.8031005859375,0.4005126953125,-294.0,152.0,-151.0,101706.0,-3.1670000553131104,0,0
1.7004809999925783,0.37176513671875,-0.45233154296875,0.310516357421875,-0.748809814453125,-0.06103515625,0.0,0.0,0.4462890625,-0.7978515625,0.4000244140625,-294.0,152.0,-151.0,101706.0,-3.1670000553131104,0,0
1.7006434999930207,0.37176513671875,-0.45233154296875,0.310516357421875,-0.748809814453125,-0.1220703125,-0.18310546875,0.0,0.4456787109375,-0.801513671875,0.3995361328125,-294.0,152.0,-151.0,101706.0,-3.1670000553131104,0,0
1.7007081000047037,0.37176513671875,-0.45233154296875,0.310516357421875,-0.748809814453125,0.18310546875,-0.1220703125,-0.18310546875,0.4462890625,-0.8017578125,0.400634765625,-294.0,152.0,-151.0,101706.0,-3.1670000553131104,0,0
1.7007662999967579,0.37176513671875,-0.45233154296875,0.310516357421875,-0.748809814453125,0.06103515625,0.06103515625,-0.244140625,0.4483642578125,-0.8011474609375,0.39990234375,-294.0,152.0,-151.0,101706.0,-3.1670000553131104,0,0
1.7008837000030326,0.37176513671875,-0.45233154296875,0.310516357421875,-0.748809814453125,0.06103515625,0.06103515625,-0.244140625,0.4483642578125,-0.8011474609375,0.39990234375,-294.0,152.0,-151.0,101706.0,-3.1670000553131104,0,0
1.7009436999942409,0.37176513671875,-0.45233154296875,0.31048583984375,-0.748809814453125,-0.18310546875,0.0,-0.06103515625,0.4459228515625,-0.8013916015625,0.3980712890625,-294.0,152.0,-151.0,101706.0,-3.1670000553131104,0,0
1.7010005000047386,0.37176513671875,-0.45233154296875,0.31048583984375,-0.748809814453125,-0.06103515625,-0.1220703125,-0.3662109375,0.4490966796875,-0.8017578125,0.3985595703125,-294.0,152.0,-151.0,101706.0,-3.1670000553131104,0,0
1.7601372999924934,0.37176513671875,-0.45233154296875,0.31048583984375,-0.748809814453125,-0.06103515625,-0.06103515625,0.06103515625,0.44677734375,-0.7998046875,0.39697265625,-294.0,152.0,-151.0,101705.0,-3.1660001277923584,0,0
1.7602015000011306,0.37176513671875,-0.45233154296875,0.31048583984375,-0.748809814453125,0.0,-0.30517578125,0.0,0.446044921875,-0.800537109375,0.3990478515625,-294.0,152.0,-151.0,101705.0,-3.1660001277923584,0,0
1.7602617999946233,0.37176513671875,-0.45233154296875,0.31048583984375,-0.748809814453125,0.06103515625,-0.1220703125,0.06103515625,0.4464111328125,-0.8004150390625,0.3995361328125,-294.0,152.0,-151.0,101705.0,-3.1660001277923584,0,0
1.7603190999943763,0.37176513671875,-0.45233154296875,0.31048583984375,-0.748809814453125,0.3662109375,0.0,-0.18310546875,0.4468994140625,-0.7994384765625,0.3970947265625,-294.0,152.0,-151.0,101705.0,-3.1660001277923584,0,0
1.7603756000025896,0.37176513671875,-0.45233154296875,0.31048583984375,-0.748809814453125,0.18310546875,-0.1220703125,0.18310546875,0.4468994140625,-0.801513671875,0.3984375,-294.0,152.0,-151.0,101705.0,-3.1660001277923584,0,0
1.766439500002889,0.37176513671875,-0.45233154296875,0.31048583984375,-0.748809814453125,0.18310546875,-0.1220703125,0.18310546875,0.4468994140625,-0.801513671875,0.3984375,-294.0,152.0,-151.0,101705.0,-3.1660001277923584,0,0
1.7665127999935066,0.371551513671875,-0.452239990234375,0.31060791015625,-0.748931884765625,0.1220703125,-0.244140625,-0.18310546875,0.44677734375,-0.8028564453125,0.3992919921875,-293.0,151.0,-151.0,101705.0,-3.1660001277923584,0,0
1.7665729000000283,0.371551513671875,-0.452239990234375,0.31060791015625,-0.748931884765625,0.1220703125,0.06103515625,0.0,0.447998046875,-0.80224609375,0.399169921875,-293.0,151.0,-151.0,101705.0,-3.1660001277923584,0,0
1.766672900004778,0.371551513671875,-0.452239990234375,0.310577392578125,-0.748931884765625,-0.06103515625,0.06103515625,-0.1220703125,0.4461669921875,-0.7998046875,0.39892578125,-293.0,151.0,-151.0,101705.0,-3.1660001277923584,0,0
1.766730399991502,0.371551513671875,-0.452239990234375,0.310577392578125,-0.748931884765625,-0.06103515625,0.06103515625,-0.244140625,0.44775390625,-0.80224609375,0.398193359375,-293.0,151.0,-151.0,101705.0,-3.1660001277923584,0,0
1.7667863999959081,0.37158203125,-0.452239990234375,0.310577392578125,-0.748931884765625,0.0,0.0,-0.06103515625,0.4466552734375,-0.801513671875,0.398681640625,-293.0,151.0,-151.0,101705.0,-3.1660001277923584,0,0
1.8226351000048453,0.37158203125,-0.45220947265625,0.310577392578125,-0.748931884765625,0.0,-0.30517578125,-0.244140625,0.4449462890625,-0.802001953125,0.399169921875,-293.0,151.0,-151.0,101705.0,-3.1660001277923584,0,0
1.8227098999923328,0.37158203125,-0.45220947265625,0.310577392578125,-0.748931884765625,0.244140625,0.0,0.0,0.4456787109375,-0.801025390625,0.398193359375,-293.0,151.0,-151.0,101705.0,-3.1660001277923584,0,0
1.8227726000041002,0.37158203125,-0.45220947265625,0.310577392578125,-0.748931884765625,0.0,-0.18310546875,0.0,0.4459228515625,-0.7996826171875,0.3994140625,-293.0,151.0,-151.0,101705.0,-3.1660001277923584,0,0
1.8228319000045303,0.37158203125,-0.45220947265625,0.310577392578125,-0.748931884765625,0.0,-0.18310546875,0.0,0.4459228515625,-0.7996826171875,0.3994140625,-293.0,151.0,-151.0,101705.0,-3.1660001277923584,0,0
1.822892199998023,0.37158203125,-0.45220947265625,0.310577392578125,-0.748931884765625,-0.1220703125,-0.1220703125,-0.18310546875,0.445556640625,-0.802001953125,0.3975830078125,-293.0,151.0,-151.0,101705.0,-3.1660001277923584,0,0
1.8229499000008218,0.37158203125,-0.45220947265625,0.310577392578125,-0.748931884765625,-0.1220703125,-0.1220703125,-0.18310546875,0.445556640625,-0.802001953125,0.3975830078125,-293.0,151.0,-151.0,101705.0,-3.1660001277923584,0,0
1.8230075000028592,0.37158203125,-0.45220947265625,0.310577392578125,-0.74896240234375,0.30517578125,-0.18310546875,-0.1220703125,0.4447021484375,-0.8011474609375,0.3992919921875,-293.0,151.0,-151.0,101705.0,-3.1660001277923584,0,0
1.8236958000052255,0.37158203125,-0.452178955078125,0.310577392578125,-0.74896240234375,-0.1220703125,-0.18310546875,0.1220703125,0.445068359375,-0.80126953125,0.3997802734375,-293.0,151.0,-151.0,101705.0,-3.1660001277923584,0,0
1.8237962999992305,0.37158203125,-0.452178955078125,0.310577392578125,-0.74896240234375,0.1220703125,-0.1220703125,0.1220703125,0.4447021484375,-0.80029296875,0.3995361328125,-293.0,151.0,-151.0,101706.0,-3.1680002212524414,0,0
1.8238635000016075,0.37158203125,-0.452178955078125,0.310577392578125,-0.74896240234375,0.18310546875,-0.06103515625,0.06103515625,0.4439697265625,-0.79931640625,0.3988037109375,-293.0,151.0,-151.0,101706.0,-3.1680002212524414,0,0
1.8239213999913773,0.37158203125,-0.452178955078125,0.310577392578125,-0.74896240234375,-0.1220703125,-0.18310546875,-0.06103515625,0.44677734375,-0.7996826171875,0.40087890625,-293.0,151.0,-151.0,101706.0,-3.1680002212524414,0,0
1.8240803999942727,0.37158203125,-0.452178955078125,0.310577392578125,-0.74896240234375,0.1220703125,-0.244140625,-0.06103515625,0.44775390625,-0.801025390625,0.39892578125,-293.0,151.0,-151.0,101706.0,-3.1680002212524414,0,0
1.8241400999977486,0.37158203125,-0.452178955078125,0.310577392578125,-0.74896240234375,0.06103515625,-0.18310546875,-0.06103515625,0.447265625,-0.80126953125,0.398681640625,-293.0,151.0,-151.0,101706.0,-3.1680002212524414,0,0
1.8897953999985475,0.37158203125,-0.452178955078125,0.310577392578125,-0.74896240234375,-0.1220703125,-0.1220703125,-0.1220703125,0.44677734375,-0.8009033203125,0.398681640625,-293.0,150.0,-151.0,101706.0,-3.1680002212524414,0,0
1.889869099992211,0.371490478515625,-0.452117919921875,0.310638427734375,-0.7490234375,0.244140625,-0.06103515625,-0.1220703125,0.447021484375,-0.8006591796875,0.398681640625,-293.0,150.0,-151.0,101706.0,-3.1680002212524414,0,0
1.8899281999911182,0.371490478515625,-0.452117919921875,0.310638427734375,-0.7490234375,0.0,0.0,-0.06103515625,0.4442138671875,-0.8004150390625,0.40087890625,-293.0,150.0,-151.0,101706.0,-3.1680002212524414,0,0
1.88998459999857,0.371490478515625,-0.452117919921875,0.310638427734375,-0.7490234375,0.1220703125,-0.06103515625,-0.06103515625,0.4453125,-0.8006591796875,0.4002685546875,-293.0,150.0,-151.0,101706.0,-3.1680002212524414,0,0
1.8900424000021303,0.371490478515625,-0.452117919921875,0.310638427734375,-0.7490234375,0.244140625,0.18310546875,0.0,0.447021484375,-0.8028564453125,0.3994140625,-293.0,150.0,-151.0,101706.0,-3.1680002212524414,0,0
1.890509299992118,0.371490478515625,-0.452117919921875,0.310638427734375,-0.7490234375,-0.06103515625,-0.06103515625,-0.1220703125,0.4478759765625,-0.802490234375,0.3966064453125,-293.0,150.0,-151.0,101706.0,-3.1680002212524414,0,0
1.8905720000038855,0.371490478515625,-0.452117919921875,0.31060791015625,-0.7490234375,0.244140625,-0.1220703125,-0.30517578125,0.447998046875,-0.80078125,0.399658203125,-293.0,150.0,-151.0,101706.0,-3.1680002212524414,0,0
1.890631599992048,0.371490478515625,-0.452117919921875,0.31060791015625,-0.7490234375,0.244140625,-0.1220703125,-0.30517578125,0.447998046875,-0.80078125,0.399658203125,-293.0,150.0,-151.0,101706.0,-3.1680002212524414,0,0
1.8906874999956926,0.371490478515625,-0.452117919921875,0.31060791015625,-0.7490234375,0.06103515625,-0.18310546875,-0.1220703125,0.4462890625,-0.80126953125,0.3988037109375,-293.0,150.0,-151.0,101706.0,-3.1680002212524414,0,0
1.8907426999940071,0.371490478515625,-0.452117919921875,0.31060791015625,-0.7490234375,0.30517578125,0.0,0.0,0.4443359375,-0.800537109375,0.3985595703125,-293.0,150.0,-151.0,101706.0,-3.1680002212524414,0,0
1.8907995000045048,0.371490478515625,-0.452117919921875,0.31060791015625,-0.7490234375,-0.1220703125,-0.1220703125,-0.18310546875,0.447998046875,-0.8018798828125,0.398193359375,-293.0,150.0,-151.0,101706.0,-3.1680002212524414,0,0
1.9546627999952761,0.371490478515625,-0.45208740234375,0.31060791015625,-0.7490234375,-0.1220703125,-0.30517578125,-0.18310546875,0.446044921875,-0.7996826171875,0.4000244140625,-293.0,150.0,-151.0,101706.0,-3.1680002212524414,0,0
1.9547385000041686,0.371490478515625,-0.45208740234375,0.31060791015625,-0.7490234375,0.0,-0.18310546875,0.244140625,0.447998046875,-0.8004150390625,0.399169921875,-293.0,150.0,-151.0,101705.0,-3.1660001277923584,0,0
1.9547997000045143,0.371490478515625,-0.45208740234375,0.31060791015625,-0.7490234375,0.1220703125,-0.06103515625,-0.42724609375,0.4461669921875,-0.80078125,0.3980712890625,-293.0,150.0,-151.0,101705.0,-3.1660001277923584,0,0
1.9548593999934383,0.371490478515625,-0.45208740234375,0.31060791015625,-0.749053955078125,0.18310546875,-0.244140625,-0.06103515625,0.4461669921875,-0.79931640625,0.3997802734375,-293.0,150.0,-151.0,101705.0,-3.1660001277923584,0,0
1.9549184999923455,0.371490478515625,-0.45208740234375,0.31060791015625,-0.749053955078125,0.18310546875,-0.244140625,-0.06103515625,0.4461669921875,-0.79931640625,0.3997802734375,-293.0,150.0,-151.0,101705.0,-3.1660001277923584,0,0
1.9549979000003077,0.371490478515625,-0.45208740234375,0.31060791015625,-0.749053955078125,-0.18310546875,-0.48828125,-0.06103515625,0.4466552734375,-0.801025390625,0.3988037109375,-293.0,150.0,-151.0,101705.0,-3.1660001277923584,0,0
1.955055500002345,0.371490478515625,-0.45208740234375,0.31060791015625,-0.749053955078125,0.06103515625,-0.1220703125,-0.1220703125,0.4461669921875,-0.80126953125,0.3975830078125,-293.0,150.0,-151.0,101705.0,-3.1660001277923584,0,0
1.9551124999998137,0.371490478515625,-0.45208740234375,0.31060791015625,-0.749053955078125,0.06103515625,-0.1220703125,-0.1220703125,0.4461669921875,-0.80126953125,0.3975830078125,-292.0,149.0,-149.0,101705.0,-3.1660001277923584,0,0
1.955168300002697,0.37152099609375,-0.45208740234375,0.31060791015625,-0.749053955078125,0.0,-0.1220703125,0.0,0.4456787109375,-0.8013916015625,0.3990478515625,-292.0,149.0,-149.0,101705.0,-3.1660001277923584,0,0
1.955224499994074,0.37152099609375,-0.45208740234375,0.31060791015625,-0.749053955078125,0.3662109375,-0.1220703125,-0.30517578125,0.4466552734375,-0.8004150390625,0.3997802734375,-292.0,149.0,-149.0,101705.0,-3.1660001277923584,0,0
1.9552798999939114,0.37152099609375,-0.45208740234375,0.31060791015625,-0.749053955078125,-0.18310546875,0.06103515625,0.0,0.44677734375,-0.802490234375,0.4000244140625,-292.0,149.0,-149.0,101705.0,-3.1660001277923584,0,0
2.0145460999920033,0.37152099609375,-0.45208740234375,0.31060791015625,-0.749053955078125,-0.18310546875,0.06103515625,0.0,0.44677734375,-0.802490234375,0.4000244140625,-292.0,149.0,-149.0,101705.0,-3.1660001277923584,0,0
2.014612400002079,0.37152099609375,-0.45208740234375,0.31060791015625,-0.749053955078125,0.244140625,0.06103515625,-0.1220703125,0.4476318359375,-0.802734375,0.3988037109375,-292.0,149.0,-149.0,101705.0,-3.1660001277923584,0,0
2.014712899996084,0.37152099609375,-0.45208740234375,0.31060791015625,-0.749053955078125,0.244140625,0.06103515625,-0.1220703125,0.4476318359375,-0.802734375,0.3988037109375,-292.0,149.0,-149.0,101705.0,-3.1660001277923584,0,0
2.0147791000053985,0.37152099609375,-0.452056884765625,0.310577392578125,-0.749053955078125,0.1220703125,-0.1220703125,0.06103515625,0.446044921875,-0.802001953125,0.40087890625,-292.0,149.0,-149.0,101705.0,-3.1660001277923584,0,0
2.0148401000042213,0.37152099609375,-0.452056884765625,0.31060791015625,-0.749053955078125,-0.06103515625,0.18310546875,-0.1220703125,0.44482421875,-0.802490234375,0.3995361328125,-292.0,149.0,-149.0,101705.0,-3.1660001277923584,0,0
2.0174127999925986,0.37152099609375,-0.452056884765625,0.310577392578125,-0.749053955078125,0.18310546875,0.0,0.06103515625,0.4447021484375,-0.80078125,0.3975830078125,-292.0,149.0,-149.0,101705.0,-3.1660001277923584,0,0
2.0174834999925224,0.37152099609375,-0.452056884765625,0.310577392578125,-0.749053955078125,0.30517578125,-0.1220703125,-0.18310546875,0.4478759765625,-0.80224609375,0.399658203125,-292.0,149.0,-149.0,101705.0,-3.1660001277923584,0,0
2.0175574000022607,0.37152099609375,-0.452056884765625,0.310577392578125,-0.749053955078125,-0.06103515625,-0.1220703125,-0.1220703125,0.44677734375,-0.799072265625,0.39892578125,-292.0,149.0,-149.0,101705.0,-3.1660001277923584,0,0
2.0176578999962658,0.37152099609375,-0.452056884765625,0.310577392578125,-0.749053955078125,0.18310546875,0.06103515625,0.0,0.4462890625,-0.79931640625,0.397216796875,-292.0,149.0,-149.0,101705.0,-3.1660001277923584,0,0
2.017735699992045,0.37152099609375,-0.452056884765625,0.310577392578125,-0.749053955078125,0.244140625,-0.06103515625,-0.1220703125,0.4486083984375,-0.801025390625,0.40087890625,-292.0,149.0,-149.0,101705.0,-3.1660001277923584,0,0
2.017886300003738,0.37152099609375,-0.452056884765625,0.310577392578125,-0.749053955078125,-0.48828125,-0.1220703125,-0.06103515625,0.445556640625,-0.8028564453125,0.3984375,-292.0,149.0,-149.0,101705.0,-3.1660001277923584,0,0
2.0189047000021674,0.37152099609375,-0.452056884765625,0.310577392578125,-0.749053955078125,-0.48828125,-0.1220703125,-0.06103515625,0.445556640625,-0.8028564453125,0.3984375,-292.0,149.0,-149.0,101705.0,-3.1660001277923584,0,0
2.0189891000045463,0.37152099609375,-0.452056884765625,0.310577392578125,-0.74908447265625,-0.06103515625,-0.244140625,-0.244140625,0.4449462890625,-0.8016357421875,0.400146484375,-292.0,149.0,-149.0,101705.0,-3.1660001277923584,0,0
2.0822257999971043,0.37152099609375,-0.452056884765625,0.310577392578125,-0.74908447265625,0.1220703125,0.0,-0.06103515625,0.4476318359375,-0.8021240234375,0.4000244140625,-292.0,149.0,-149.0,101705.0,-3.1660001277923584,0,0
2.0822951000009198,0.37152099609375,-0.4520263671875,0.310577392578125,-0.74908447265625,0.1220703125,0.244140625,0.0,0.447265625,-0.8017578125,0.3980712890625,-293.0,149.0,-149.0,101705.0,-3.1660001277923584,0,0
2.082353099991451,0.37152099609375,-0.4520263671875,0.310577392578125,-0.74908447265625,-0.18310546875,-0.244140625,0.1220703125,0.44482421875,-0.8004150390625,0.400390625,-293.0,149.0,-149.0,101705.0,-3.1660001277923584,0,0
2.0824101000034716,0.37152099609375,-0.4520263671875,0.310577392578125,-0.74908447265625,0.1220703125,-0.244140625,-0.244140625,0.447021484375,-0.80126953125,0.400146484375,-293.0,149.0,-149.0,101705.0,-3.1660001277923584,0,0
2.082465300001786,0.37152099609375,-0.4520263671875,0.310577392578125,-0.74908447265625,0.18310546875,-0.06103515625,0.0,0.44677734375,-0.8031005859375,0.3992919921875,-293.0,149.0,-149.0,101705.0,-3.1660001277923584,0,0
2.0825371999962954,0.37152099609375,-0.4520263671875,0.310577392578125,-0.74908447265625,-0.18310546875,-0.18310546875,-0.30517578125,0.44775390625,-0.8016357421875,0.4000244140625,-293.0,149.0,-149.0,101705.0,-3.1660001277923584,0,0
2.082592199993087,0.37152099609375,-0.4520263671875,0.310577392578125,-0.74908447265625,-0.18310546875,-0.18310546875,-0.30517578125,0.44775390625,-0.8016357421875,0.4000244140625,-293.0,149.0,-149.0,101705.0,-3.1660001277923584,0,0
2.0826455999922473,0.37152099609375,-0.4520263671875,0.310546875,-0.74908447265625,0.18310546875,0.06103515625,0.0,0.447021484375,-0.8018798828125,0.402587890625,-293.0,149.0,-149.0,101705.0,-3.1660001277923584,0,0
2.0826978999975836,0.37152099609375,-0.4520263671875,0.310546875,-0.74908447265625,-0.06103515625,-0.244140625,0.0,0.446533203125,-0.7999267578125,0.398681640625,-293.0,149.0,-149.0,101705.0,-3.1660001277923584,0,0
2.082748699991498,0.37152099609375,-0.451995849609375,0.310546875,-0.74908447265625,0.18310546875,0.06103515625,-0.06103515625,0.44580078125,-0.8013916015625,0.39990234375,-293.0,149.0,-149.0,101705.0,-3.1660001277923584,0,0
2.082800899996073,0.37152099609375,-0.451995849609375,0.310546875,-0.749114990234375,0.3662109375,0.0,-0.30517578125,0.4483642578125,-0.80078125,0.398681640625,-293.0,149.0,-149.0,101705.0,-3.1660001277923584,0,0
2.1412668999982998,0.37152099609375,-0.451995849609375,0.310546875,-0.749114990234375,0.0,-0.30517578125,-0.244140625,0.445556640625,-0.7996826171875,0.3984375,-293.0,149.0,-149.0,101705.0,-3.1660001277923584,0,0
2.141338400004315,0.37152099609375,-0.451995849609375,0.310546875,-0.749114990234375,-0.244140625,-0.1220703125,0.0,0.4461669921875,-0.8013916015625,0.3988037109375,-293.0,149.0,-149.0,101705.0,-3.1660001277923584,0,0
2.141397200000938,0.37152099609375,-0.451995849609375,0.310546875,-0.749114990234375,-0.244140625,-0.1220703125,0.0,0.4461669921875,-0.8013916015625,0.3988037109375,-293.0,149.0,-149.0,101705.0,-3.1660001277923584,0,0
2.141453000003821,0.37152099609375,-0.451995849609375,0.310516357421875,-0.749114990234375,-0.1220703125,-0.06103515625,-0.244140625,0.4464111328125,-0.8009033203125,0.4017333984375,-293.0,149.0,-149.0,101705.0,-3.1660001277923584,0,0
2.14150779999909,0.37152099609375,-0.451995849609375,0.310516357421875,-0.749114990234375,0.1220703125,0.0,0.0,0.4468994140625,-0.8017578125,0.398681640625,-293.0,149.0,-149.0,101705.0,-3.1660001277923584,0,0
2.142398800002411,0.37152099609375,-0.451995849609375,0.310516357421875,-0.749114990234375,0.06103515625,-0.244140625,-0.18310546875,0.445556640625,-0.8023681640625,0.3990478515625,-293.0,149.0,-149.0,101705.0,-3.1660001277923584,0,0
2.1424560000014026,0.37152099609375,-0.451995849609375,0.310516357421875,-0.749114990234375,-0.06103515625,0.06103515625,-0.1220703125,0.4464111328125,-0.80078125,0.3990478515625,-293.0,149.0,-149.0,101705.0,-3.1660001277923584,0,0
2.1425105999951484,0.37152099609375,-0.451995849609375,0.310516357421875,-0.749114990234375,0.1220703125,0.1220703125,-0.1220703125,0.4454345703125,-0.802001953125,0.3988037109375,-293.0,149.0,-149.0,101705.0,-3.1660001277923584,0,0
2.1425633000035305,0.371551513671875,-0.451995849609375,0.310516357421875,-0.749114990234375,-0.30517578125,-0.244140625,0.0,0.4447021484375,-0.802001953125,0.3983154296875,-293.0,149.0,-149.0,101705.0,-3.1660001277923584,0,0
2.1426190999918617,0.37164306640625,-0.4520263671875,0.310455322265625,-0.74908447265625,-0.30517578125,-0.244140625,0.0,0.4447021484375,-0.802001953125,0.3983154296875,-294.0,148.0,-147.0,101705.0,-3.1660001277923584,0,0
2.142672300004051,0.37164306640625,-0.4520263671875,0.310455322265625,-0.749053955078125,0.1220703125,0.06103515625,-0.244140625,0.4449462890625,-0.7999267578125,0.3975830078125,-294.0,148.0,-147.0,101705.0,-3.1660001277923584,0,0
2.142726499994751,0.37164306640625,-0.4520263671875,0.310455322265625,-0.74908447265625,0.06103515625,-0.18310546875,-0.06103515625,0.4462890625,-0.79833984375,0.4000244140625,-294.0,148.0,-147.0,101705.0,-3.1660001277923584,0,0
2.2089829000033205,0.37164306640625,-0.4520263671875,0.310455322265625,-0.74908447265625,0.06103515625,-0.18310546875,-0.06103515625,0.4462890625,-0.79833984375,0.4000244140625,-294.0,148.0,-147.0,101705.0,-3.1660001277923584,0,0
2.2090452999982517,0.37164306640625,-0.4520263671875,0.310455322265625,-0.74908447265625,0.0,-0.1220703125,0.0,0.44677734375,-0.799560546875,0.3984375,-294.0,148.0,-147.0,101705.0,-3.1640000343322754,0,0
2.209100699998089,0.37164306640625,-0.4520263671875,0.310455322265625,-0.74908447265625,0.30517578125,-0.06103515625,-0.244140625,0.447265625,-0.8004150390625,0.39990234375,-294.0,148.0,-147.0,101705.0,-3.1640000343322754,0,0
2.209155299991835,0.37164306640625,-0.4520263671875,0.310455322265625,-0.74908447265625,0.06103515625,0.06103515625,0.1220703125,0.4464111328125,-0.80029296875,0.3995361328125,-294.0,148.0,-147.0,101705.0,-3.1640000343322754,0,0
2.2092951999948127,0.37164306640625,-0.4520263671875,0.310455322265625,-0.74908447265625,0.06103515625,-0.18310546875,-0.30517578125,0.4464111328125,-0.80224609375,0.3973388671875,-294.0,148.0,-147.0,101705.0,-3.1640000343322754,0,0
2.2093534000014188,0.37164306640625,-0.4520263671875,0.310455322265625,-0.74908447265625,0.244140625,-0.18310546875,0.0,0.44677734375,-0.800048828125,0.3984375,-294.0,148.0,-147.0,101705.0,-3.1640000343322754,0,0
2.2097257999994326,0.37164306640625,-0.4520263671875,0.3104248046875,-0.74908447265625,-0.1220703125,-0.06103515625,-0.18310546875,0.44873046875,-0.802001953125,0.39697265625,-294.0,148.0,-147.0,101705.0,-3.1640000343322754,0,0
2.209782499994617,0.37164306640625,-0.4520263671875,0.3104248046875,-0.74908447265625,0.1220703125,-0.1220703125,0.1220703125,0.44873046875,-0.8009033203125,0.4005126953125,-294.0,148.0,-147.0,101705.0,-3.1640000343322754,0,0
2.209836299996823,0.37164306640625,-0.4520263671875,0.3104248046875,-0.74908447265625,-0.06103515625,-0.18310546875,-0.06103515625,0.4456787109375,-0.8006591796875,0.3990478515625,-294.0,148.0,-147.0,101705.0,-3.1640000343322754,0,0
2.2098896999959834,0.37164306640625,-0.4520263671875,0.3104248046875,-0.74908447265625,-0.06103515625,-0.18310546875,-0.06103515625,0.4456787109375,-0.8006591796875,0.3990478515625,-294.0,148.0,-147.0,101705.0,-3.1640000343322754,0,0
2.209943800000474,0.37164306640625,-0.4520263671875,0.310455322265625,-0.74908447265625,0.244140625,-0.18310546875,-0.1220703125,0.4444580078125,-0.8001708984375,0.3974609375,-294.0,148.0,-147.0,101705.0,-3.1640000343322754,0,0
2.2099969999981113,0.37164306640625,-0.4520263671875,0.310455322265625,-0.74908447265625,-0.06103515625,-0.06103515625,0.06103515625,0.4453125,-0.80029296875,0.3992919921875,-294.0,148.0,-147.0,101705.0,-3.1640000343322754,0,0
2.2728097999934107,0.37164306640625,-0.4520263671875,0.310455322265625,-0.74908447265625,0.06103515625,-0.1220703125,-0.1220703125,0.4466552734375,-0.8009033203125,0.3995361328125,-294.0,148.0,-147.0,101705.0,-3.1640000343322754,0,0
2.272876899995026,0.37164306640625,-0.4520263671875,0.3104248046875,-0.74908447265625,0.244140625,-0.18310546875,-0.06103515625,0.4464111328125,-0.80029296875,0.3980712890625,-294.0,148.0,-147.0,101705.0,-3.1640000343322754,0,0
2.2729340999940177,0.37164306640625,-0.4520263671875,0.3104248046875,-0.74908447265625,0.0,-0.18310546875,-0.1220703125,0.4476318359375,-0.7999267578125,0.399169921875,-294.0,148.0,-147.0,101705.0,-3.1640000343322754,0,0
2.2732617000001483,0.37164306640625,-0.4520263671875,0.3104248046875,-0.74908447265625,0.06103515625,-0.06103515625,-0.1220703125,0.448486328125,-0.80126953125,0.3988037109375,-293.0,148.0,-147.0,101705.0,-3.1640000343322754,0,0
2.2733275999926263,0.371856689453125,-0.45208740234375,0.310302734375,-0.748992919921875,0.3662109375,0.0,-0.1220703125,0.445068359375,-0.8028564453125,0.3985595703125,-293.0,148.0,-147.0,101705.0,-3.1640000343322754,0,0
2.273402199993143,0.371856689453125,-0.45208740234375,0.310302734375,-0.748992919921875,0.3662109375,0.0,-0.1220703125,0.445068359375,-0.8028564453125,0.3985595703125,-293.0,148.0,-147.0,101705.0,-3.1640000343322754,0,0
2.2734592000051634,0.371856689453125,-0.45208740234375,0.310302734375,-0.748992919921875,0.06103515625,0.0,0.06103515625,0.448486328125,-0.799560546875,0.400390625,-293.0,148.0,-147.0,101705.0,-3.1640000343322754,0,0
2.273512899992056,0.371856689453125,-0.45208740234375,0.310302734375,-0.748992919921875,-0.1220703125,-0.30517578125,-0.1220703125,0.445556640625,-0.8006591796875,0.3997802734375,-293.0,148.0,-147.0,101705.0,-3.1640000343322754,0,0
2.273567099997308,0.371856689453125,-0.45208740234375,0.310302734375,-0.748992919921875,0.18310546875,-0.06103515625,-0.18310546875,0.4449462890625,-0.7999267578125,0.399658203125,-293.0,148.0,-147.0,101705.0,-3.1660001277923584,0,0
2.2736198999918997,0.371856689453125,-0.45208740234375,0.310302734375,-0.748992919921875,0.06103515625,0.06103515625,-0.1220703125,0.4468994140625,-0.7984619140625,0.3975830078125,-293.0,148.0,-147.0,101705.0,-3.1660001277923584,0,0
2.273673100004089,0.371856689453125,-0.45208740234375,0.310302734375,-0.748992919921875,-0.244140625,-0.18310546875,0.0,0.446044921875,-0.7999267578125,0.3988037109375,-293.0,148.0,-147.0,101705.0,-3.1660001277923584,0,0
2.2737261000002036,0.371856689453125,-0.45208740234375,0.310302734375,-0.748992919921875,-0.1220703125,-0.18310546875,0.0,0.446044921875,-0.8013916015625,0.4002685546875,-293.0,148.0,-147.0,101705.0,-3.1660001277923584,0,0
2.3341832000005525,0.371856689453125,-0.45208740234375,0.310302734375,-0.748992919921875,0.1220703125,-0.18310546875,-0.18310546875,0.4462890625,-0.8004150390625,0.3983154296875,-293.0,148.0,-147.0,101705.0,-3.1660001277923584,0,0
2.3342464000015752,0.371856689453125,-0.45208740234375,0.310302734375,-0.748992919921875,0.1220703125,-0.18310546875,-0.18310546875,0.4462890625,-0.8004150390625,0.3983154296875,-293.0,148.0,-147.0,101705.0,-3.1660001277923584,0,0
2.33430230000522,0.371856689453125,-0.45208740234375,0.310302734375,-0.748992919921875,0.18310546875,-0.18310546875,-0.1220703125,0.4471435546875,-0.80029296875,0.398193359375,-293.0,148.0,-147.0,101705.0,-3.1660001277923584,0,0
2.3343583999958355,0.371856689453125,-0.45208740234375,0.310302734375,-0.748992919921875,0.06103515625,-0.06103515625,0.0,0.4462890625,-0.800048828125,0.3983154296875,-293.0,148.0,-147.0,101705.0,-3.1660001277923584,0,0
2.3344151000055717,0.371856689453125,-0.45208740234375,0.310302734375,-0.748992919921875,0.0,-0.06103515625,-0.1220703125,0.4425048828125,-0.8006591796875,0.3963623046875,-293.0,148.0,-147.0,101705.0,-3.1660001277923584,0,0
2.334613500002888,0.371856689453125,-0.45208740234375,0.310302734375,-0.748992919921875,0.0,-0.06103515625,-0.1220703125,0.4425048828125,-0.8006591796875,0.3963623046875,-293.0,148.0,-147.0,101705.0,-3.1660001277923584,0,0
2.3346707000018796,0.371856689453125,-0.45208740234375,0.310302734375,-0.748992919921875,0.06103515625,0.06103515625,0.0,0.4462890625,-0.80126953125,0.3973388671875,-293.0,148.0,-147.0,101705.0,-3.1660001277923584,0,0
2.334724600004847,0.371856689453125,-0.45208740234375,0.310302734375,-0.748992919921875,-0.3662109375,-0.06103515625,-0.244140625,0.4478759765625,-0.80078125,0.398681640625,-293.0,148.0,-147.0,101705.0,-3.1660001277923584,0,0
2.334776999996393,0.371856689453125,-0.45208740234375,0.310302734375,-0.748992919921875,0.1220703125,0.18310546875,0.1220703125,0.447021484375,-0.79931640625,0.39697265625,-293.0,148.0,-147.0,101705.0,-3.1660001277923584,0,0
2.334830599997076,0.371856689453125,-0.45208740234375,0.310302734375,-0.748992919921875,0.1220703125,0.06103515625,-0.06103515625,0.446044921875,-0.7991943359375,0.3963623046875,-293.0,148.0,-147.0,101705.0,-3.1660001277923584,0,0
2.334885000003851,0.371856689453125,-0.45208740234375,0.310302734375,-0.748992919921875,0.30517578125,-0.1220703125,0.1220703125,0.448486328125,-0.8006591796875,0.3973388671875,-293.0,148.0,-147.0,101705.0,-3.1660001277923584,0,0
2.3349394999968354,0.371856689453125,-0.45208740234375,0.310302734375,-0.748992919921875,0.30517578125,-0.1220703125,0.1220703125,0.448486328125,-0.8006591796875,0.3973388671875,-293.0,148.0,-147.0,101705.0,-3.1660001277923584,0,0
2.3998767000011867,0.3719482421875,-0.4521484375,0.31024169921875,-0.748931884765625,0.732421875,-0.1220703125,-0.18310546875,0.447998046875,-0.7999267578125,0.3978271484375,-294.0,148.0,-147.0,101705.0,-3.1660001277923584,0,0
2.399938300004578,0.3719482421875,-0.4521484375,0.31024169921875,-0.748931884765625,0.1220703125,-0.244140625,-0.30517578125,0.4461669921875,-0.8009033203125,0.3970947265625,-294.0,148.0,-147.0,101705.0,-3.1660001277923584,0,0
2.399995100000524,0.3719482421875,-0.4521484375,0.31024169921875,-0.748931884765625,0.1220703125,-0.1220703125,-0.06103515625,0.44775390625,-0.801513671875,0.3983154296875,-294.0,148.0,-147.0,101705.0,-3.1650002002716064,0,0
2.4000513999926625,0.3719482421875,-0.4521484375,0.31024169921875,-0.748931884765625,0.0,-0.06103515625,0.1220703125,0.449462890625,-0.80126953125,0.3973388671875,-294.0,148.0,-147.0,101705.0,-3.1650002002716064,0,0
2.4001089999947,0.3719482421875,-0.4521484375,0.310272216796875,-0.748931884765625,-0.30517578125,-0.1220703125,-0.30517578125,0.4462890625,-0.803466796875,0.3985595703125,-294.0,148.0,-147.0,101705.0,-3.1650002002716064,0,0
2.400166299994453,0.3719482421875,-0.4521484375,0.310272216796875,-0.748931884765625,0.1220703125,0.06103515625,-0.30517578125,0.4462890625,-0.8026123046875,0.3984375,-294.0,148.0,-147.0,101705.0,-3.1650002002716064,0,0
2.400492699991446,0.3719482421875,-0.4521484375,0.310272216796875,-0.748931884765625,0.0,-0.1220703125,-0.1220703125,0.4443359375,-0.7998046875,0.3974609375,-294.0,148.0,-147.0,101705.0,-3.1650002002716064,0,0
2.4005556000047363,0.3719482421875,-0.4521484375,0.310272216796875,-0.748931884765625,-0.06103515625,-0.06103515625,-0.06103515625,0.443359375,-0.7999267578125,0.3995361328125,-294.0,148.0,-147.0,101705.0,-3.1650002002716064,0,0
2.4006105000007665,0.3719482421875,-0.4521484375,0.310272216796875,-0.748931884765625,-0.06103515625,-0.06103515625,-0.06103515625,0.443359375,-0.7999267578125,0.3995361328125,-294.0,148.0,-147.0,101705.0,-3.1650002002716064,0,0
2.4006643000029726,0.3719482421875,-0.4521484375,0.310272216796875,-0.748931884765625,0.06103515625,-0.06103515625,-0.06103515625,0.4456787109375,-0.802978515625,0.3958740234375,-294.0,148.0,-147.0,101705.0,-3.1650002002716064,0,0
2.400718599994434,0.3719482421875,-0.4521484375,0.310272216796875,-0.748931884765625,0.06103515625,0.0,0.1220703125,0.4454345703125,-0.801025390625,0.3968505859375,-294.0,148.0,-147.0,101705.0,-3.1650002002716064,0,0
2.4007722999958787,0.3719482421875,-0.4521484375,0.310272216796875,-0.748931884765625,-0.06103515625,-0.06103515625,-0.06103515625,0.4461669921875,-0.7999267578125,0.39794921875,-294.0,148.0,-147.0,101705.0,-3.1650002002716064,0,0
2.463909700003569,0.371917724609375,-0.452178955078125,0.310272216796875,-0.748931884765625,-0.06103515625,-0.1220703125,-0.1220703125,0.4462890625,-0.80126953125,0.3975830078125,-294.0,148.0,-147.0,101705.0,-3.1650002002716064,0,0
2.46397139999317,0.3719482421875,-0.452178955078125,0.310272216796875,-0.748931884765625,0.06103515625,0.06103515625,0.0,0.4453125,-0.8033447265625,0.3978271484375,-294.0,148.0,-147.0,101705.0,-3.1650002002716064,0,0
2.464026300003752,0.3719482421875,-0.452178955078125,0.310272216796875,-0.7489013671875,0.18310546875,0.0,0.06103515625,0.44580078125,-0.8013916015625,0.396240234375,-294.0,148.0,-147.0,101705.0,-3.1650002002716064,0,0
2.4640805999952136,0.3719482421875,-0.452178955078125,0.310272216796875,-0.7489013671875,-0.06103515625,-0.06103515625,0.06103515625,0.446533203125,-0.8001708984375,0.398193359375,-294.0,148.0,-147.0,101705.0,-3.1650002002716064,0,0
2.464249500000733,0.3719482421875,-0.452178955078125,0.310272216796875,-0.7489013671875,-0.06103515625,-0.06103515625,0.06103515625,0.446533203125,-0.8001708984375,0.398193359375,-294.0,148.0,-147.0,101705.0,-3.1650002002716064,0,0
2.4650607999938074,0.371917724609375,-0.452178955078125,0.310302734375,-0.7489013671875,0.0,-0.06103515625,0.0,0.446533203125,-0.801025390625,0.39697265625,-294.0,148.0,-147.0,101705.0,-3.1650002002716064,0,0
2.4651172000012593,0.37213134765625,-0.4522705078125,0.3101806640625,-0.748809814453125,0.18310546875,0.1220703125,0.1220703125,0.4466552734375,-0.801513671875,0.3951416015625,-294.0,149.0,-148.0,101705.0,-3.1650002002716064,0,0
2.4651694999920437,0.37213134765625,-0.4522705078125,0.3101806640625,-0.748809814453125,0.1220703125,0.0,-0.3662109375,0.4462890625,-0.80029296875,0.3956298828125,-294.0,149.0,-148.0,101705.0,-3.1650002002716064,0,0
2.4652231999934884,0.37213134765625,-0.4522705078125,0.3101806640625,-0.748809814453125,-0.06103515625,0.1220703125,-0.1220703125,0.4462890625,-0.7994384765625,0.3984375,-294.0,149.0,-148.0,101705.0,-3.1650002002716064,0,0
2.465276399991126,0.37213134765625,-0.452301025390625,0.3101806640625,-0.748809814453125,0.0,-0.06103515625,-0.06103515625,0.447265625,-0.80029296875,0.3980712890625,-294.0,149.0,-148.0,101705.0,-3.1650002002716064,0,0
2.465328499994939,0.37213134765625,-0.452301025390625,0.3101806640625,-0.748779296875,0.06103515625,-0.06103515625,0.30517578125,0.446044921875,-0.8026123046875,0.3974609375,-294.0,149.0,-148.0,101705.0,-3.1650002002716064,0,0
2.4653805999987526,0.37213134765625,-0.452301025390625,0.3101806640625,-0.748779296875,-0.1220703125,-0.06103515625,-0.18310546875,0.445556640625,-0.80029296875,0.3963623046875,-294.0,149.0,-148.0,101705.0,-3.1650002002716064,0,0
2.526590399997076,0.37213134765625,-0.452301025390625,0.3101806640625,-0.748779296875,0.1220703125,0.1220703125,0.1220703125,0.4454345703125,-0.80078125,0.39794921875,-294.0,149.0,-148.0,101705.0,-3.1650002002716064,0,0
2.5266512999951374,0.37213134765625,-0.452301025390625,0.3101806640625,-0.748779296875,0.0,-0.1220703125,0.0,0.444580078125,-0.80126953125,0.395751953125,-294.0,149.0,-148.0,101705.0,-3.1650002002716064,0,0
2.5267078000033507,0.37213134765625,-0.452301025390625,0.3101806640625,-0.748779296875,0.18310546875,-0.30517578125,0.0,0.444091796875,-0.801513671875,0.39794921875,-294.0,149.0,-148.0,101705.0,-3.1650002002716064,0,0
2.526760699998704,0.37213134765625,-0.452301025390625,0.3101806640625,-0.748779296875,-0.18310546875,-0.3662109375,-0.30517578125,0.4466552734375,-0.8017578125,0.3983154296875,-294.0,149.0,-148.0,101705.0,-3.1650002002716064,0,0
2.5291771000047447,0.37213134765625,-0.452301025390625,0.3101806640625,-0.748779296875,0.06103515625,-0.18310546875,-0.06103515625,0.4462890625,-0.8004150390625,0.3974609375,-294.0,149.0,-148.0,101705.0,-3.1650002002716064,0,0
2.529240200005006,0.37213134765625,-0.452301025390625,0.3101806640625,-0.748779296875,0.06103515625,-0.18310546875,-0.06103515625,0.4462890625,-0.8004150390625,0.3974609375,-294.0,149.0,-148.0,101705.0,-3.1650002002716064,0,0
2.529294799998752,0.37213134765625,-0.452301025390625,0.3101806640625,-0.748779296875,-0.18310546875,-0.06103515625,0.06103515625,0.4459228515625,-0.799072265625,0.397216796875,-294.0,149.0,-148.0,101705.0,-3.1650002002716064,0,0
2.5293495999940205,0.37213134765625,-0.452301025390625,0.3101806640625,-0.748779296875,-0.06103515625,-0.1220703125,-0.1220703125,0.4453125,-0.798095703125,0.3980712890625,-294.0,149.0,-148.0,101705.0,-3.1650002002716064,0,0
2.529402799991658,0.37213134765625,-0.452301025390625,0.310211181640625,-0.748779296875,-0.06103515625,-0.06103515625,0.06103515625,0.44580078125,-0.80029296875,0.3961181640625,-294.0,149.0,-148.0,101705.0,-3.1650002002716064,0,0
2.529455299998517,0.37213134765625,-0.452301025390625,0.310211181640625,-0.748779296875,-0.06103515625,-0.06103515625,0.06103515625,0.44580078125,-0.80029296875,0.3961181640625,-294.0,149.0,-148.0,101705.0,-3.1650002002716064,0,0
2.5295084999961546,0.37213134765625,-0.452301025390625,0.310211181640625,-0.748779296875,0.0,-0.1220703125,-0.1220703125,0.44384765625,-0.801025390625,0.396240234375,-294.0,149.0,-148.0,101705.0,-3.1650002002716064,0,0
2.5915488000027835,0.37213134765625,-0.452301025390625,0.310211181640625,-0.748748779296875,0.18310546875,-0.30517578125,0.1220703125,0.4449462890625,-0.801513671875,0.395263671875,-294.0,149.0,-148.0,101705.0,-3.1650002002716064,0,0
2.5916110999969533,0.37213134765625,-0.452301025390625,0.310211181640625,-0.748748779296875,0.06103515625,-0.18310546875,-0.1220703125,0.44677734375,-0.8021240234375,0.3974609375,-295.0,148.0,-147.0,101705.0,-3.1650002002716064,0,0
2.5916668999998365,0.37213134765625,-0.452301025390625,0.310211181640625,-0.748748779296875,0.06103515625,0.0,-0.06103515625,0.44677734375,-0.8001708984375,0.396728515625,-295.0,148.0,-147.0,101705.0,-3.1650002002716064,0,0
2.591721899996628,0.37213134765625,-0.45233154296875,0.310211181640625,-0.748779296875,0.06103515625,-0.06103515625,-0.1220703125,0.446533203125,-0.8017578125,0.3980712890625,-295.0,148.0,-147.0,101705.0,-3.1650002002716064,0,0
2.591779599999427,0.372100830078125,-0.45233154296875,0.310211181640625,-0.748748779296875,0.06103515625,-0.18310546875,0.1220703125,0.44775390625,-0.79931640625,0.398681640625,-295.0,148.0,-147.0,101705.0,-3.1670000553131104,0,0
2.591926199995214,0.372100830078125,-0.45233154296875,0.310211181640625,-0.748748779296875,0.06103515625,0.06103515625,0.1220703125,0.4473876953125,-0.8018798828125,0.396240234375,-295.0,148.0,-147.0,101705.0,-3.1670000553131104,0,0
2.5920595999923535,0.372100830078125,-0.45233154296875,0.310211181640625,-0.748748779296875,0.18310546875,-0.1220703125,-0.48828125,0.4468994140625,-0.8023681640625,0.3980712890625,-295.0,148.0,-147.0,101705.0,-3.1670000553131104,0,0
2.5921184000035282,0.372100830078125,-0.45233154296875,0.310211181640625,-0.748748779296875,0.18310546875,-0.1220703125,-0.48828125,0.4468994140625,-0.8023681640625,0.3980712890625,-295.0,148.0,-147.0,101705.0,-3.1670000553131104,0,0
2.5921721999911824,0.372100830078125,-0.45233154296875,0.310211181640625,-0.748748779296875,0.06103515625,-0.1220703125,-0.244140625,0.443359375,-0.7991943359375,0.396484375,-295.0,148.0,-147.0,101705.0,-3.1670000553131104,0,0
2.592225899992627,0.372100830078125,-0.45233154296875,0.310211181640625,-0.748748779296875,-0.30517578125,-0.1220703125,-0.18310546875,0.44580078125,-0.8018798828125,0.3983154296875,-295.0,148.0,-147.0,101705.0,-3.1670000553131104,0,0
2.5922787000017706,0.372100830078125,-0.45233154296875,0.310211181640625,-0.748748779296875,0.0,-0.1220703125,-0.06103515625,0.4461669921875,-0.800537109375,0.3970947265625,-295.0,148.0,-147.0,101705.0,-3.1670000553131104,0,0
2.5923310999933165,0.372100830078125,-0.45233154296875,0.310211181640625,-0.748748779296875,-0.18310546875,-0.06103515625,0.06103515625,0.4461669921875,-0.7994384765625,0.3970947265625,-295.0,148.0,-147.0,101705.0,-3.1670000553131104,0,0
2.5923842000047443,0.372100830078125,-0.45233154296875,0.310211181640625,-0.748748779296875,0.06103515625,-0.1220703125,0.18310546875,0.44677734375,-0.802490234375,0.396728515625,-295.0,148.0,-147.0,101705.0,-3.1670000553131104,0,0
2.656206100000418,0.372100830078125,-0.45233154296875,0.31024169921875,-0.748748779296875,0.06103515625,0.06103515625,-0.244140625,0.4461669921875,-0.7994384765625,0.3973388671875,-295.0,148.0,-147.0,101705.0,-3.1670000553131104,0,0
2.656267400001525,0.372100830078125,-0.452362060546875,0.31024169921875,-0.748748779296875,0.1220703125,-0.06103515625,0.06103515625,0.4471435546875,-0.8009033203125,0.3968505859375,-295.0,148.0,-147.0,101705.0,-3.1670000553131104,0,0
2.6563211000029696,0.372100830078125,-0.452362060546875,0.31024169921875,-0.748748779296875,0.1220703125,-0.06103515625,0.06103515625,0.4471435546875,-0.8009033203125,0.3968505859375,-295.0,148.0,-147.0,101705.0,-3.1670000553131104,0,0
2.656374700003653,0.372100830078125,-0.452362060546875,0.31024169921875,-0.748748779296875,0.3662109375,-0.1220703125,-0.06103515625,0.4459228515625,-0.8021240234375,0.3974609375,-295.0,148.0,-147.0,101705.0,-3.1670000553131104,0,0
2.656483800004935,0.372100830078125,-0.452362060546875,0.31024169921875,-0.74871826171875,-0.18310546875,-0.06103515625,-0.1220703125,0.446533203125,-0.802978515625,0.3970947265625,-295.0,148.0,-147.0,101705.0,-3.1670000553131104,0,0
2.6565360999957193,0.372100830078125,-0.452362060546875,0.31024169921875,-0.74871826171875,0.0,-0.18310546875,-0.1220703125,0.44677734375,-0.8016357421875,0.3973388671875,-295.0,148.0,-147.0,101705.0,-3.1670000553131104,0,0
2.656587599994964,0.372100830078125,-0.452362060546875,0.31024169921875,-0.74871826171875,0.18310546875,0.0,-0.06103515625,0.4461669921875,-0.801513671875,0.3968505859375,-295.0,147.0,-145.0,101705.0,-3.1670000553131104,0,0
2.6566409999941243,0.372406005859375,-0.452484130859375,0.31005859375,-0.748565673828125,-0.06103515625,0.06103515625,-0.06103515625,0.4459228515625,-0.8016357421875,0.3984375,-295.0,147.0,-145.0,101705.0,-3.1670000553131104,0,0
2.656693199998699,0.372406005859375,-0.452484130859375,0.31005859375,-0.748565673828125,-0.06103515625,-0.244140625,-0.1220703125,0.4449462890625,-0.801513671875,0.397216796875,-295.0,147.0,-145.0,101705.0,-3.1670000553131104,0,0
2.656745400003274,0.372406005859375,-0.452484130859375,0.310089111328125,-0.748565673828125,0.06103515625,-0.1220703125,0.0,0.447509765625,-0.802001953125,0.3973388671875,-295.0,147.0,-145.0,101705.0,-3.1670000553131104,0,0
2.6567999999970198,0.372406005859375,-0.452484130859375,0.310089111328125,-0.748565673828125,0.1220703125,-0.1220703125,-0.18310546875,0.4459228515625,-0.8021240234375,0.3983154296875,-295.0,147.0,-145.0,101705.0,-3.1660001277923584,0,0
2.7226261000032537,0.372406005859375,-0.452484130859375,0.310089111328125,-0.748565673828125,0.0,0.0,0.06103515625,0.445068359375,-0.80126953125,0.396728515625,-295.0,147.0,-145.0,101705.0,-3.1660001277923584,0,0
2.722687200002838,0.372406005859375,-0.452484130859375,0.310089111328125,-0.748565673828125,0.3662109375,-0.1220703125,0.06103515625,0.445556640625,-0.8017578125,0.3968505859375,-295.0,147.0,-145.0,101705.0,-3.1660001277923584,0,0
2.722741199992015,0.372406005859375,-0.452484130859375,0.310089111328125,-0.748565673828125,0.1220703125,0.0,0.06103515625,0.446533203125,-0.8028564453125,0.39697265625,-295.0,147.0,-145.0,101705.0,-3.1660001277923584,0,0
2.722828500001924,0.372406005859375,-0.452484130859375,0.310089111328125,-0.748565673828125,0.244140625,0.1220703125,-0.1220703125,0.4449462890625,-0.8009033203125,0.397216796875,-295.0,147.0,-145.0,101705.0,-3.1660001277923584,0,0
2.7228811999957543,0.372406005859375,-0.452484130859375,0.310089111328125,-0.748565673828125,0.1220703125,-0.1220703125,-0.06103515625,0.446533203125,-0.801513671875,0.39697265625,-295.0,147.0,-145.0,101705.0,-3.1660001277923584,0,0
2.724056599996402,0.372406005859375,-0.452484130859375,0.31011962890625,-0.748565673828125,0.0,-0.1220703125,-0.06103515625,0.4443359375,-0.801513671875,0.397216796875,-295.0,147.0,-145.0,101705.0,-3.1660001277923584,0,0
2.724118999991333,0.372406005859375,-0.452484130859375,0.31011962890625,-0.748565673828125,0.06103515625,-0.06103515625,-0.06103515625,0.4451904296875,-0.8023681640625,0.396728515625,-295.0,147.0,-145.0,101705.0,-3.1660001277923584,0,0
2.724174300004961,0.372406005859375,-0.452484130859375,0.31011962890625,-0.74853515625,0.06103515625,-0.06103515625,-0.06103515625,0.4451904296875,-0.8023681640625,0.396728515625,-295.0,147.0,-145.0,101705.0,-3.1660001277923584,0,0
2.7242268999980297,0.372406005859375,-0.452484130859375,0.31011962890625,-0.74853515625,0.06103515625,-0.06103515625,-0.06103515625,0.4451904296875,-0.8023681640625,0.396728515625,-295.0,147.0,-145.0,101705.0,-3.1660001277923584,0,0
2.7242799999949057,0.372406005859375,-0.4525146484375,0.31011962890625,-0.74853515625,0.0,-0.244140625,-0.1220703125,0.4461669921875,-0.80078125,0.3953857421875,-295.0,147.0,-145.0,101705.0,-3.1660001277923584,0,0
2.7243319999979576,0.372406005859375,-0.4525146484375,0.31011962890625,-0.74853515625,-0.1220703125,-0.1220703125,-0.1220703125,0.447998046875,-0.8031005859375,0.396484375,-295.0,147.0,-145.0,101705.0,-3.1660001277923584,0,0
2.785508500004653,0.372406005859375,-0.4525146484375,0.31011962890625,-0.74853515625,0.06103515625,-0.18310546875,0.06103515625,0.4456787109375,-0.80224609375,0.397216796875,-295.0,147.0,-145.0,101705.0,-3.1660001277923584,0,0
2.7855724999972153,0.372406005859375,-0.4525146484375,0.31011962890625,-0.74853515625,0.1220703125,-0.1220703125,-0.244140625,0.447998046875,-0.8046875,0.39697265625,-295.0,147.0,-145.0,101705.0,-3.1660001277923584,0,0
2.7856300999992527,0.372406005859375,-0.4525146484375,0.31011962890625,-0.74853515625,0.30517578125,-0.18310546875,0.18310546875,0.4476318359375,-0.801513671875,0.3975830078125,-295.0,148.0,-145.0,101705.0,-3.1660001277923584,0,0
2.78568549999909,0.372711181640625,-0.45263671875,0.3099365234375,-0.748382568359375,-0.18310546875,0.0,0.06103515625,0.44580078125,-0.8021240234375,0.3974609375,-295.0,148.0,-145.0,101705.0,-3.1660001277923584,0,0
2.785739700004342,0.372711181640625,-0.45263671875,0.309967041015625,-0.748382568359375,0.30517578125,-0.3662109375,-0.18310546875,0.445556640625,-0.80126953125,0.3973388671875,-295.0,148.0,-145.0,101705.0,-3.1660001277923584,0,0
2.785794800001895,0.372711181640625,-0.45263671875,0.3099365234375,-0.748382568359375,0.1220703125,-0.30517578125,0.0,0.4466552734375,-0.80224609375,0.3963623046875,-295.0,148.0,-145.0,101705.0,-3.1660001277923584,0,0
2.785865800004103,0.372711181640625,-0.45263671875,0.3099365234375,-0.748382568359375,0.1220703125,-0.30517578125,0.0,0.4466552734375,-0.80224609375,0.3963623046875,-295.0,148.0,-145.0,101705.0,-3.1660001277923584,0,0
2.785919100002502,0.372711181640625,-0.452667236328125,0.309967041015625,-0.748382568359375,0.244140625,0.0,0.0,0.4454345703125,-0.801025390625,0.3956298828125,-295.0,148.0,-145.0,101706.0,-3.1680002212524414,0,0
2.7859723000001395,0.372711181640625,-0.45263671875,0.309967041015625,-0.748382568359375,0.18310546875,0.0,-0.1220703125,0.44482421875,-0.8016357421875,0.39697265625,-295.0,148.0,-145.0,101706.0,-3.1680002212524414,0,0
2.7860239000001457,0.372711181640625,-0.452667236328125,0.309967041015625,-0.748382568359375,0.0,0.244140625,-0.06103515625,0.44775390625,-0.8006591796875,0.3961181640625,-295.0,148.0,-145.0,101706.0,-3.1680002212524414,0,0
2.786076599993976,0.372711181640625,-0.452667236328125,0.309967041015625,-0.748382568359375,0.0,-0.30517578125,0.0,0.4466552734375,-0.8004150390625,0.39794921875,-295.0,148.0,-145.0,101706.0,-3.1680002212524414,0,0
2.7861296000046423,0.372711181640625,-0.452667236328125,0.309967041015625,-0.748382568359375,-0.18310546875,0.0,-0.06103515625,0.4466552734375,-0.799560546875,0.39794921875,-295.0,148.0,-145.0,101706.0,-3.1680002212524414,0,0
2.786182399999234,0.372711181640625,-0.452667236328125,0.309967041015625,-0.748382568359375,0.0,-0.1220703125,0.06103515625,0.445556640625,-0.801025390625,0.396484375,-295.0,148.0,-145.0,101706.0,-3.1680002212524414,0,0
2.8509596999938367,0.372711181640625,-0.452667236328125,0.309967041015625,-0.74835205078125,0.1220703125,-0.18310546875,-0.06103515625,0.445556640625,-0.8026123046875,0.398193359375,-295.0,148.0,-145.0,101706.0,-3.1680002212524414,0,0
2.8510957999969833,0.372711181640625,-0.452667236328125,0.309967041015625,-0.74835205078125,0.1220703125,-0.18310546875,-0.06103515625,0.445556640625,-0.8026123046875,0.398193359375,-295.0,148.0,-145.0,101706.0,-3.1680002212524414,0,0
2.851209200001904,0.372711181640625,-0.452667236328125,0.309967041015625,-0.74835205078125,-0.244140625,-0.244140625,0.0,0.4449462890625,-0.80029296875,0.3968505859375,-295.0,148.0,-145.0,101706.0,-3.1680002212524414,0,0
2.851320300003863,0.372711181640625,-0.452667236328125,0.309967041015625,-0.74835205078125,0.18310546875,-0.18310546875,-0.244140625,0.4444580078125,-0.800537109375,0.3953857421875,-295.0,148.0,-145.0,101706.0,-3.1680002212524414,0,0
2.851429599992116,0.372711181640625,-0.452667236328125,0.309967041015625,-0.74835205078125,0.244140625,-0.244140625,0.0,0.44580078125,-0.8011474609375,0.3934326171875,-295.0,148.0,-145.0,101706.0,-3.1680002212524414,0,0
2.8515634999930626,0.372711181640625,-0.452667236328125,0.309967041015625,-0.74835205078125,0.3662109375,0.06103515625,0.0,0.445556640625,-0.801025390625,0.3958740234375,-295.0,148.0,-145.0,101706.0,-3.1680002212524414,0,0
2.851677999991807,0.3726806640625,-0.45269775390625,0.30999755859375,-0.74835205078125,-0.1220703125,0.06103515625,0.06103515625,0.44677734375,-0.800537109375,0.3946533203125,-295.0,148.0,-145.0,101706.0,-3.1680002212524414,0,0
2.8518110000004526,0.3726806640625,-0.45269775390625,0.309967041015625,-0.74835205078125,0.06103515625,0.0,0.0,0.4471435546875,-0.8017578125,0.3975830078125,-295.0,148.0,-145.0,101706.0,-3.1680002212524414,0,0
2.851872800005367,0.3726806640625,-0.45269775390625,0.309967041015625,-0.74835205078125,0.1220703125,0.06103515625,0.18310546875,0.4483642578125,-0.8004150390625,0.396728515625,-295.0,150.0,-145.0,101706.0,-3.1680002212524414,0,0
2.8587486000033095,0.37298583984375,-0.45281982421875,0.309814453125,-0.748199462890625,0.06103515625,-0.06103515625,-0.30517578125,0.446044921875,-0.8018798828125,0.3961181640625,-295.0,150.0,-145.0,101706.0,-3.1680002212524414,0,0
2.8588163999957033,0.37298583984375,-0.45281982421875,0.309814453125,-0.748199462890625,0.06103515625,-0.06103515625,-0.30517578125,0.446044921875,-0.8018798828125,0.3961181640625,-295.0,150.0,-145.0,101706.0,-3.1680002212524414,0,0
2.91180699999677,0.37298583984375,-0.45281982421875,0.309814453125,-0.748199462890625,0.0,-0.30517578125,-0.06103515625,0.4461669921875,-0.802001953125,0.3968505859375,-295.0,150.0,-145.0,101706.0,-3.1680002212524414,0,0
2.9118712000054074,0.37298583984375,-0.45281982421875,0.309814453125,-0.748199462890625,-0.30517578125,0.0,-0.06103515625,0.4439697265625,-0.799560546875,0.399169921875,-295.0,150.0,-145.0,101706.0,-3.1680002212524414,0,0
2.9119270999945,0.37298583984375,-0.45281982421875,0.309814453125,-0.748199462890625,0.244140625,-0.244140625,0.06103515625,0.44677734375,-0.8004150390625,0.396728515625,-295.0,150.0,-145.0,101706.0,-3.1680002212524414,0,0
2.911981299999752,0.37298583984375,-0.45281982421875,0.309814453125,-0.748199462890625,0.0,-0.18310546875,-0.06103515625,0.4461669921875,-0.799560546875,0.3973388671875,-295.0,150.0,-145.0,101706.0,-3.1680002212524414,0,0
2.9120342999958666,0.37298583984375,-0.45281982421875,0.309814453125,-0.748199462890625,0.18310546875,0.0,-0.06103515625,0.4471435546875,-0.80078125,0.3984375,-295.0,150.0,-145.0,101706.0,-3.1680002212524414,0,0
2.9121084999933373,0.37298583984375,-0.45281982421875,0.309814453125,-0.748199462890625,0.0,-0.3662109375,0.1220703125,0.445556640625,-0.802001953125,0.3975830078125,-295.0,150.0,-145.0,101706.0,-3.1680002212524414,0,0
2.9121610000001965,0.37298583984375,-0.45281982421875,0.309814453125,-0.748199462890625,-0.06103515625,-0.30517578125,-0.1220703125,0.4471435546875,-0.801513671875,0.3978271484375,-295.0,150.0,-145.0,101706.0,-3.1680002212524414,0,0
2.912213999996311,0.37298583984375,-0.45281982421875,0.309814453125,-0.748199462890625,-0.06103515625,-0.30517578125,-0.1220703125,0.4471435546875,-0.801513671875,0.3978271484375,-295.0,150.0,-145.0,101706.0,-3.1680002212524414,0,0
2.912267099993187,0.37298583984375,-0.45281982421875,0.309814453125,-0.748199462890625,-0.06103515625,0.0,-0.1220703125,0.4466552734375,-0.80126953125,0.397216796875,-295.0,150.0,-145.0,101706.0,-3.1680002212524414,0,0
2.912319800001569,0.37298583984375,-0.45281982421875,0.309814453125,-0.748199462890625,-0.06103515625,0.0,-0.1220703125,0.4466552734375,-0.80126953125,0.397216796875,-295.0,150.0,-145.0,101706.0,-3.1680002212524414,0,0
2.912371600003098,0.373016357421875,-0.45281982421875,0.309814453125,-0.748199462890625,-0.06103515625,-0.18310546875,-0.18310546875,0.44482421875,-0.8031005859375,0.3968505859375,-295.0,150.0,-145.0,101706.0,-3.1680002212524414,0,0
2.9729853000026196,0.373016357421875,-0.45281982421875,0.309814453125,-0.748199462890625,0.06103515625,-0.1220703125,0.06103515625,0.4439697265625,-0.8011474609375,0.3992919921875,-295.0,150.0,-145.0,101706.0,-3.1680002212524414,0,0
2.973094899993157,0.373016357421875,-0.45281982421875,0.309814453125,-0.748199462890625,-0.06103515625,0.0,-0.18310546875,0.4451904296875,-0.8011474609375,0.3958740234375,-295.0,150.0,-145.0,101706.0,-3.1680002212524414,0,0
2.9731579999934183,0.373016357421875,-0.45281982421875,0.309814453125,-0.748199462890625,-0.06103515625,-0.06103515625,-0.18310546875,0.448486328125,-0.80224609375,0.399169921875,-295.0,150.0,-145.0,101706.0,-3.1680002212524414,0,0
