Time stamp(sec),adc1,adc2,roll_angular_rate,pitch_angular_rate,yaw_angular_rate,acc_X,acc_Y,acc_Z,mag_X,mag_Y,mag_Z,pressure,altitude
0.02214129999629222,0.372589111328125,-0.45281982421875,0.31085205078125,-0.747955322265625,-0.06103515625,-0.06103515625,-0.18310546875,0.446044921875,-0.8033447265625,0.39599609375,-295.0,150.0,-147.0,101701.0,-3.129000186920166,0,0
0.022207699992577545,0.372589111328125,-0.45281982421875,0.31085205078125,-0.747955322265625,0.1220703125,-0.18310546875,-0.1220703125,0.4481201171875,-0.80078125,0.396240234375,-295.0,150.0,-147.0,101701.0,-3.129000186920166,0,0
0.02226479999080766,0.372589111328125,-0.45281982421875,0.31085205078125,-0.747955322265625,0.1220703125,-0.18310546875,-0.1220703125,0.4481201171875,-0.80078125,0.396240234375,-295.0,150.0,-147.0,101701.0,-3.129000186920166,0,0
0.0223175999999512,0.372589111328125,-0.45281982421875,0.31085205078125,-0.747955322265625,0.18310546875,-0.06103515625,-0.06103515625,0.447265625,-0.8017578125,0.3966064453125,-295.0,150.0,-147.0,101701.0,-3.129000186920166,0,0
0.023170200001914054,0.372589111328125,-0.45281982421875,0.31085205078125,-0.747955322265625,0.0,0.1220703125,0.1220703125,0.446044921875,-0.80224609375,0.3948974609375,-295.0,150.0,-147.0,101701.0,-3.129000186920166,0,0
0.023225999990245327,0.3726806640625,-0.452880859375,0.310791015625,-0.7479248046875,0.0,0.1220703125,0.1220703125,0.446044921875,-0.80224609375,0.3948974609375,-295.0,150.0,-147.0,101701.0,-3.129000186920166,0,0
0.023279200002434663,0.3726806640625,-0.452880859375,0.310791015625,-0.7479248046875,-0.18310546875,-0.1220703125,0.0,0.44580078125,-0.8018798828125,0.3975830078125,-295.0,150.0,-147.0,101701.0,-3.129000186920166,0,0
0.023369000002276152,0.3726806640625,-0.452880859375,0.310791015625,-0.7479248046875,0.06103515625,-0.1220703125,-0.244140625,0.4449462890625,-0.801513671875,0.395751953125,-295.0,150.0,-147.0,101701.0,-3.129000186920166,0,0
0.02342119999229908,0.3726806640625,-0.452880859375,0.310760498046875,-0.7479248046875,0.06103515625,-0.18310546875,-0.1220703125,0.4468994140625,-0.80078125,0.39599609375,-295.0,150.0,-147.0,101701.0,-3.129000186920166,0,0
0.023474999994505197,0.3726806640625,-0.452880859375,0.310791015625,-0.7479248046875,0.1220703125,0.1220703125,0.0,0.4449462890625,-0.8031005859375,0.3944091796875,-295.0,150.0,-147.0,101701.0,-3.129000186920166,0,0
0.023526599994511344,0.3726806640625,-0.452880859375,0.310760498046875,-0.7479248046875,0.06103515625,-0.06103515625,-0.06103515625,0.445068359375,-0.80078125,0.3980712890625,-295.0,150.0,-147.0,101701.0,-3.129000186920166,0,0
0.07776230000308715,0.3726806640625,-0.452880859375,0.310791015625,-0.7479248046875,0.06103515625,-0.06103515625,0.18310546875,0.4461669921875,-0.803955078125,0.39501953125,-295.0,150.0,-147.0,101701.0,-3.129000186920166,0,0
0.07782259999657981,0.3726806640625,-0.452880859375,0.310791015625,-0.747894287109375,-0.06103515625,-0.18310546875,0.1220703125,0.4439697265625,-0.8052978515625,0.39599609375,-295.0,150.0,-147.0,101701.0,-3.129000186920166,0,0
0.07787619999726303,0.3726806640625,-0.452880859375,0.310791015625,-0.7479248046875,-0.06103515625,-0.18310546875,0.1220703125,0.4439697265625,-0.8052978515625,0.39599609375,-295.0,150.0,-147.0,101701.0,-3.127000093460083,0,0
0.07792749999498483,0.3726806640625,-0.452880859375,0.310791015625,-0.747894287109375,-0.42724609375,-0.06103515625,-0.1220703125,0.4464111328125,-0.8011474609375,0.396240234375,-295.0,150.0,-147.0,101701.0,-3.127000093460083,0,0
0.07797889999346808,0.3726806640625,-0.452880859375,0.310791015625,-0.747894287109375,0.0,-0.18310546875,-0.06103515625,0.44384765625,-0.8017578125,0.39404296875,-295.0,150.0,-147.0,101701.0,-3.127000093460083,0,0
0.07926109999243636,0.3726806640625,-0.452880859375,0.310791015625,-0.747894287109375,0.18310546875,-0.06103515625,-0.3662109375,0.4476318359375,-0.8009033203125,0.3934326171875,-295.0,150.0,-147.0,101701.0,-3.127000093460083,0,0
0.07932029999210499,0.3726806640625,-0.452911376953125,0.310791015625,-0.747894287109375,0.244140625,-0.244140625,-0.06103515625,0.44775390625,-0.8016357421875,0.394775390625,-295.0,150.0,-147.0,101701.0,-3.127000093460083,0,0
0.07947409999906085,0.372650146484375,-0.452911376953125,0.310791015625,-0.747894287109375,-0.18310546875,-0.18310546875,-0.1220703125,0.4437255859375,-0.8011474609375,0.393798828125,-295.0,150.0,-147.0,101701.0,-3.127000093460083,0,0
0.07955059999949299,0.372650146484375,-0.452911376953125,0.310791015625,-0.747894287109375,-0.18310546875,-0.18310546875,-0.1220703125,0.4437255859375,-0.8011474609375,0.393798828125,-295.0,150.0,-147.0,101701.0,-3.127000093460083,0,0
0.07960630000161473,0.372650146484375,-0.452911376953125,0.310791015625,-0.747894287109375,-0.1220703125,0.0,-0.1220703125,0.4444580078125,-0.7996826171875,0.3956298828125,-295.0,150.0,-147.0,101701.0,-3.127000093460083,0,0
0.07965849999163765,0.372650146484375,-0.452911376953125,0.310791015625,-0.747894287109375,0.18310546875,0.18310546875,0.06103515625,0.4461669921875,-0.800537109375,0.3948974609375,-295.0,150.0,-147.0,101701.0,-3.127000093460083,0,0
0.1476877999957651,0.372650146484375,-0.452911376953125,0.310791015625,-0.747894287109375,-0.1220703125,-0.42724609375,-0.18310546875,0.444580078125,-0.8001708984375,0.3956298828125,-295.0,150.0,-147.0,101701.0,-3.127000093460083,0,0
0.14775180000287946,0.372650146484375,-0.452911376953125,0.310791015625,-0.747894287109375,0.06103515625,0.0,0.18310546875,0.44580078125,-0.8009033203125,0.3941650390625,-294.0,152.0,-146.0,101701.0,-3.127000093460083,0,0
0.1478069000004325,0.37286376953125,-0.4530029296875,0.3106689453125,-0.747802734375,-0.06103515625,-0.244140625,0.06103515625,0.4454345703125,-0.80029296875,0.395263671875,-294.0,152.0,-146.0,101701.0,-3.127000093460083,0,0
0.14786159999493975,0.37286376953125,-0.4530029296875,0.3106689453125,-0.747772216796875,0.3662109375,0.18310546875,0.0,0.4456787109375,-0.802490234375,0.39453125,-294.0,152.0,-146.0,101701.0,-3.127000093460083,0,0
0.14791590000095312,0.37286376953125,-0.4530029296875,0.310699462890625,-0.747772216796875,-0.06103515625,-0.18310546875,0.0,0.4454345703125,-0.8043212890625,0.394287109375,-294.0,152.0,-146.0,101701.0,-3.127000093460083,0,0
0.14796979998936877,0.37286376953125,-0.4530029296875,0.310699462890625,-0.747772216796875,-0.1220703125,-0.1220703125,0.0,0.445556640625,-0.801513671875,0.3951416015625,-294.0,152.0,-146.0,101701.0,-3.127000093460083,0,0
0.1482030999904964,0.37286376953125,-0.4530029296875,0.310699462890625,-0.747772216796875,0.0,-0.1220703125,-0.06103515625,0.4444580078125,-0.80078125,0.3968505859375,-294.0,152.0,-146.0,101701.0,-3.127000093460083,0,0
0.14826190000167117,0.37286376953125,-0.4530029296875,0.310699462890625,-0.747772216796875,0.0,-0.1220703125,-0.06103515625,0.4444580078125,-0.80078125,0.3968505859375,-294.0,152.0,-146.0,101701.0,-3.127000093460083,0,0
0.14831589999084827,0.37286376953125,-0.4530029296875,0.310699462890625,-0.747772216796875,0.0,-0.18310546875,-0.244140625,0.4464111328125,-0.8017578125,0.3919677734375,-294.0,152.0,-146.0,101701.0,-3.127000093460083,0,0
0.14836989999457728,0.37286376953125,-0.453033447265625,0.310699462890625,-0.747772216796875,0.18310546875,0.06103515625,-0.18310546875,0.445068359375,-0.800537109375,0.3939208984375,-294.0,152.0,-146.0,101701.0,-3.127000093460083,0,0
0.14842359999602195,0.37286376953125,-0.453033447265625,0.310699462890625,-0.747772216796875,0.06103515625,-0.18310546875,-0.244140625,0.44384765625,-0.800537109375,0.3941650390625,-294.0,152.0,-146.0,101701.0,-3.127000093460083,0,0
0.1484788999950979,0.37286376953125,-0.453033447265625,0.310699462890625,-0.747772216796875,0.18310546875,0.0,-0.1220703125,0.4429931640625,-0.80126953125,0.394775390625,-294.0,152.0,-146.0,101701.0,-3.128000259399414,0,0
0.14856549999967683,0.37286376953125,-0.453033447265625,0.310699462890625,-0.747772216796875,-0.18310546875,-0.244140625,-0.18310546875,0.445068359375,-0.8013916015625,0.394287109375,-294.0,152.0,-146.0,101701.0,-3.128000259399414,0,0
0.2079812000010861,0.372833251953125,-0.453033447265625,0.310699462890625,-0.747772216796875,0.0,-0.18310546875,0.0,0.4473876953125,-0.7999267578125,0.3953857421875,-294.0,152.0,-146.0,101701.0,-3.128000259399414,0,0
0.20804459998907987,0.372833251953125,-0.453033447265625,0.310699462890625,-0.747772216796875,0.0,-0.18310546875,0.0,0.4473876953125,-0.7999267578125,0.3953857421875,-294.0,152.0,-146.0,101701.0,-3.128000259399414,0,0
0.21334139999817125,0.372833251953125,-0.45306396484375,0.310699462890625,-0.74774169921875,0.42724609375,0.06103515625,-0.1220703125,0.44580078125,-0.799560546875,0.392578125,-294.0,152.0,-146.0,101701.0,-3.128000259399414,0,0
0.21354739999515004,0.372833251953125,-0.45306396484375,0.310699462890625,-0.74774169921875,-0.1220703125,0.0,-0.18310546875,0.4453125,-0.7999267578125,0.3936767578125,-294.0,152.0,-146.0,101701.0,-3.128000259399414,0,0
0.21360750000167172,0.372833251953125,-0.45306396484375,0.310699462890625,-0.74774169921875,0.06103515625,-0.1220703125,-0.18310546875,0.4464111328125,-0.800537109375,0.3946533203125,-294.0,152.0,-146.0,101701.0,-3.128000259399414,0,0
0.21367599999939557,0.372833251953125,-0.45306396484375,0.310699462890625,-0.74774169921875,0.18310546875,0.1220703125,-0.1220703125,0.446533203125,-0.8021240234375,0.3916015625,-294.0,152.0,-146.0,101701.0,-3.128000259399414,0,0
0.21373079999466427,0.372833251953125,-0.45306396484375,0.310699462890625,-0.74774169921875,-0.244140625,-0.1220703125,0.0,0.4466552734375,-0.80322265625,0.3968505859375,-294.0,152.0,-146.0,101701.0,-3.128000259399414,0,0
0.2137856999906944,0.373046875,-0.453155517578125,0.310577392578125,-0.747650146484375,-0.244140625,-0.1220703125,0.0,0.4466552734375,-0.80322265625,0.3968505859375,-295.0,152.0,-147.0,101701.0,-3.128000259399414,0,0
0.21383979999518488,0.373046875,-0.453155517578125,0.310577392578125,-0.747650146484375,0.244140625,0.1220703125,0.06103515625,0.447998046875,-0.8052978515625,0.395751953125,-295.0,152.0,-147.0,101701.0,-3.128000259399414,0,0
0.21389139999519102,0.373046875,-0.453155517578125,0.310577392578125,-0.747650146484375,-0.06103515625,-0.1220703125,0.06103515625,0.4439697265625,-0.801025390625,0.395263671875,-295.0,152.0,-147.0,101701.0,-3.128000259399414,0,0
0.21394400000281166,0.373016357421875,-0.453155517578125,0.31060791015625,-0.747650146484375,0.06103515625,-0.18310546875,0.0,0.447265625,-0.8038330078125,0.3946533203125,-295.0,152.0,-147.0,101701.0,-3.128000259399414,0,0
0.2768364999938058,0.373016357421875,-0.45318603515625,0.31060791015625,-0.74761962890625,-0.1220703125,-0.1220703125,-0.18310546875,0.44384765625,-0.799560546875,0.390625,-295.0,152.0,-147.0,101701.0,-3.128000259399414,0,0
0.27690319999237545,0.373016357421875,-0.45318603515625,0.31060791015625,-0.74761962890625,0.0,-0.244140625,-0.42724609375,0.443115234375,-0.7989501953125,0.3939208984375,-295.0,152.0,-147.0,101701.0,-3.128000259399414,0,0
0.27696049999212846,0.373016357421875,-0.45318603515625,0.31060791015625,-0.74761962890625,0.244140625,-0.244140625,-0.18310546875,0.4420166015625,-0.80126953125,0.393798828125,-295.0,152.0,-147.0,101701.0,-3.128000259399414,0,0
0.27701710000110324,0.373016357421875,-0.45318603515625,0.31060791015625,-0.74761962890625,0.244140625,-0.244140625,-0.18310546875,0.4420166015625,-0.80126953125,0.393798828125,-295.0,152.0,-147.0,101701.0,-3.127000093460083,0,0
0.27707299999019597,0.373016357421875,-0.45318603515625,0.31060791015625,-0.74761962890625,0.06103515625,-0.06103515625,-0.244140625,0.4437255859375,-0.8001708984375,0.394287109375,-295.0,152.0,-147.0,101701.0,-3.127000093460083,0,0
0.2771438999916427,0.373016357421875,-0.45318603515625,0.31060791015625,-0.74761962890625,0.48828125,-0.06103515625,-0.18310546875,0.4442138671875,-0.7987060546875,0.394287109375,-295.0,152.0,-147.0,101701.0,-3.127000093460083,0,0
0.27719719999004155,0.373016357421875,-0.45318603515625,0.31060791015625,-0.74761962890625,0.06103515625,0.244140625,0.1220703125,0.447265625,-0.8035888671875,0.3955078125,-295.0,152.0,-147.0,101701.0,-3.127000093460083,0,0
0.27725119999377057,0.373016357421875,-0.45318603515625,0.31060791015625,-0.74761962890625,0.06103515625,0.244140625,0.1220703125,0.447265625,-0.8035888671875,0.3955078125,-295.0,152.0,-147.0,101701.0,-3.127000093460083,0,0
0.2773078999889549,0.373016357421875,-0.45318603515625,0.31060791015625,-0.74761962890625,0.06103515625,0.1220703125,0.3662109375,0.4483642578125,-0.8031005859375,0.395263671875,-295.0,152.0,-147.0,101701.0,-3.127000093460083,0,0
0.2773632999887923,0.373016357421875,-0.453216552734375,0.31060791015625,-0.74761962890625,-0.42724609375,0.1220703125,0.244140625,0.4466552734375,-0.80419921875,0.3963623046875,-295.0,152.0,-147.0,101701.0,-3.127000093460083,0,0
0.277418999990914,0.373016357421875,-0.45318603515625,0.31060791015625,-0.74761962890625,0.0,0.18310546875,0.54931640625,0.446533203125,-0.80517578125,0.3970947265625,-295.0,152.0,-147.0,101701.0,-3.127000093460083,0,0
0.336774700001115,0.373016357421875,-0.45318603515625,0.310638427734375,-0.74761962890625,-0.18310546875,0.06103515625,0.1220703125,0.444580078125,-0.8037109375,0.39892578125,-295.0,152.0,-147.0,101701.0,-3.127000093460083,0,0
0.3368432999996003,0.373016357421875,-0.45318603515625,0.310638427734375,-0.74761962890625,-0.06103515625,-0.06103515625,-0.06103515625,0.44482421875,-0.803955078125,0.3958740234375,-295.0,152.0,-147.0,101701.0,-3.127000093460083,0,0
0.3368997999932617,0.373016357421875,-0.45318603515625,0.310638427734375,-0.74761962890625,0.06103515625,-0.1220703125,-0.42724609375,0.4434814453125,-0.8035888671875,0.39404296875,-295.0,152.0,-147.0,101701.0,-3.127000093460083,0,0
0.33695260000240523,0.373016357421875,-0.45318603515625,0.310638427734375,-0.747589111328125,0.30517578125,-0.18310546875,-0.54931640625,0.4449462890625,-0.8023681640625,0.3941650390625,-295.0,153.0,-149.0,101701.0,-3.127000093460083,0,0
0.3370059000008041,0.373016357421875,-0.453216552734375,0.310638427734375,-0.747589111328125,0.18310546875,-0.18310546875,-0.6103515625,0.447509765625,-0.8021240234375,0.39404296875,-295.0,153.0,-149.0,101701.0,-3.127000093460083,0,0
0.3370586999953957,0.373016357421875,-0.453216552734375,0.310638427734375,-0.747589111328125,0.30517578125,-0.1220703125,-0.3662109375,0.445556640625,-0.8028564453125,0.3939208984375,-295.0,153.0,-149.0,101701.0,-3.127000093460083,0,0
0.33977239999512676,0.373016357421875,-0.453216552734375,0.310638427734375,-0.747589111328125,0.30517578125,-0.1220703125,-0.3662109375,0.445556640625,-0.8028564453125,0.3939208984375,-295.0,153.0,-149.0,101701.0,-3.127000093460083,0,0
0.339835699996911,0.373016357421875,-0.453216552734375,0.310638427734375,-0.747589111328125,-0.244140625,0.0,-0.18310546875,0.4482421875,-0.8017578125,0.396728515625,-295.0,153.0,-149.0,101701.0,-3.127000093460083,0,0
0.3398931999981869,0.373016357421875,-0.453216552734375,0.310638427734375,-0.747589111328125,-0.30517578125,-0.30517578125,0.244140625,0.4443359375,-0.8013916015625,0.396240234375,-295.0,153.0,-149.0,101701.0,-3.127000093460083,0,0
0.33994789999269415,0.373016357421875,-0.453216552734375,0.310638427734375,-0.747589111328125,0.1220703125,-0.1220703125,0.1220703125,0.446044921875,-0.79931640625,0.3939208984375,-295.0,153.0,-149.0,101701.0,-3.127000093460083,0,0
0.3422161999915261,0.373016357421875,-0.453216552734375,0.310638427734375,-0.747589111328125,0.0,0.1220703125,0.06103515625,0.4444580078125,-0.798095703125,0.3939208984375,-295.0,153.0,-149.0,101701.0,-3.127000093460083,0,0
0.3422913999966113,0.373016357421875,-0.453216552734375,0.310638427734375,-0.747589111328125,0.0,0.06103515625,-0.1220703125,0.445068359375,-0.7999267578125,0.394287109375,-295.0,153.0,-149.0,101701.0,-3.127000093460083,0,0
0.3423500999924727,0.373016357421875,-0.453216552734375,0.310638427734375,-0.747589111328125,-0.18310546875,0.1220703125,0.1220703125,0.4459228515625,-0.801025390625,0.3935546875,-295.0,153.0,-149.0,101701.0,-3.128000259399414,0,0
0.4119853000011062,0.373016357421875,-0.4532470703125,0.310638427734375,-0.747589111328125,0.0,0.0,0.1220703125,0.445556640625,-0.8009033203125,0.3941650390625,-295.0,153.0,-149.0,101701.0,-3.128000259399414,0,0
0.41205749999789987,0.373016357421875,-0.4532470703125,0.310638427734375,-0.747589111328125,0.06103515625,0.0,0.244140625,0.4443359375,-0.8023681640625,0.3953857421875,-295.0,153.0,-149.0,101701.0,-3.128000259399414,0,0
0.412115699989954,0.373016357421875,-0.453216552734375,0.310638427734375,-0.747589111328125,0.18310546875,0.0,0.06103515625,0.441162109375,-0.7987060546875,0.396484375,-295.0,153.0,-149.0,101701.0,-3.128000259399414,0,0
0.4121697999944445,0.373016357421875,-0.453216552734375,0.310638427734375,-0.747589111328125,0.244140625,-0.1220703125,-0.48828125,0.44287109375,-0.7982177734375,0.3948974609375,-295.0,153.0,-149.0,101701.0,-3.128000259399414,0,0
0.41222289999132045,0.373016357421875,-0.4532470703125,0.310638427734375,-0.747589111328125,-0.18310546875,-0.30517578125,-0.48828125,0.445556640625,-0.799560546875,0.3934326171875,-295.0,153.0,-149.0,101701.0,-3.128000259399414,0,0
0.41229169999132864,0.373016357421875,-0.4532470703125,0.310638427734375,-0.747589111328125,0.06103515625,-0.18310546875,-0.42724609375,0.4478759765625,-0.8033447265625,0.3956298828125,-295.0,153.0,-149.0,101701.0,-3.128000259399414,0,0
0.4123442999989493,0.37298583984375,-0.4532470703125,0.310638427734375,-0.747589111328125,-0.06103515625,-0.42724609375,-0.1220703125,0.4476318359375,-0.7998046875,0.39404296875,-295.0,153.0,-149.0,101701.0,-3.128000259399414,0,0
0.41239859999041073,0.37298583984375,-0.4532470703125,0.310638427734375,-0.747589111328125,0.30517578125,0.06103515625,0.1220703125,0.4473876953125,-0.8006591796875,0.3922119140625,-295.0,153.0,-149.0,101701.0,-3.128000259399414,0,0
0.41245119999803137,0.37298583984375,-0.453277587890625,0.310638427734375,-0.747589111328125,0.06103515625,-0.06103515625,0.3662109375,0.445068359375,-0.80078125,0.3941650390625,-295.0,153.0,-149.0,101701.0,-3.128000259399414,0,0
0.41250469999795314,0.37298583984375,-0.453277587890625,0.310638427734375,-0.747589111328125,0.06103515625,-0.06103515625,0.3662109375,0.445068359375,-0.80078125,0.3941650390625,-295.0,153.0,-149.0,101701.0,-3.128000259399414,0,0
0.41255639999872074,0.372894287109375,-0.453216552734375,0.310699462890625,-0.74761962890625,0.18310546875,0.30517578125,0.1220703125,0.4459228515625,-0.8016357421875,0.396484375,-296.0,153.0,-149.0,101701.0,-3.128000259399414,0,0
0.4642769999918528,0.372894287109375,-0.453216552734375,0.310699462890625,-0.74761962890625,-0.06103515625,-0.18310546875,0.30517578125,0.4464111328125,-0.802978515625,0.395263671875,-296.0,153.0,-149.0,101701.0,-3.128000259399414,0,0
0.46433999999135267,0.372894287109375,-0.453216552734375,0.310699462890625,-0.74761962890625,-0.06103515625,-0.244140625,0.0,0.444580078125,-0.8026123046875,0.3955078125,-296.0,153.0,-149.0,101701.0,-3.128000259399414,0,0
0.46439539999119006,0.372894287109375,-0.453216552734375,0.31072998046875,-0.74761962890625,0.1220703125,0.18310546875,-0.42724609375,0.4461669921875,-0.8017578125,0.3912353515625,-296.0,153.0,-149.0,101701.0,-3.128000259399414,0,0
0.46448929999314714,0.372894287109375,-0.4532470703125,0.31072998046875,-0.74761962890625,0.244140625,-0.06103515625,-0.30517578125,0.4456787109375,-0.8018798828125,0.39453125,-296.0,153.0,-149.0,101701.0,-3.128000259399414,0,0
0.46454410000296775,0.372894287109375,-0.4532470703125,0.31072998046875,-0.74761962890625,0.244140625,0.06103515625,-0.06103515625,0.4456787109375,-0.800537109375,0.39599609375,-296.0,153.0,-149.0,101701.0,-3.128000259399414,0,0
0.4646137999952771,0.372894287109375,-0.4532470703125,0.31072998046875,-0.74761962890625,0.244140625,0.06103515625,-0.06103515625,0.4456787109375,-0.800537109375,0.39599609375,-296.0,153.0,-149.0,101701.0,-3.127000093460083,0,0
0.46466859999054577,0.372894287109375,-0.4532470703125,0.31072998046875,-0.74761962890625,0.244140625,0.06103515625,-0.06103515625,0.4456787109375,-0.800537109375,0.39599609375,-296.0,153.0,-149.0,101701.0,-3.127000093460083,0,0
0.46472209999046754,0.372894287109375,-0.4532470703125,0.31072998046875,-0.74761962890625,-0.06103515625,-0.18310546875,-0.06103515625,0.4434814453125,-0.8023681640625,0.3970947265625,-296.0,153.0,-149.0,101701.0,-3.127000093460083,0,0
0.46482059999834746,0.372894287109375,-0.453216552734375,0.31072998046875,-0.74761962890625,0.0,0.06103515625,0.06103515625,0.44580078125,-0.8026123046875,0.39453125,-296.0,153.0,-149.0,101701.0,-3.127000093460083,0,0
0.46489889999793377,0.372894287109375,-0.4532470703125,0.31072998046875,-0.74761962890625,-0.06103515625,-0.06103515625,-0.06103515625,0.4461669921875,-0.8016357421875,0.396728515625,-296.0,153.0,-149.0,101701.0,-3.127000093460083,0,0
0.4649566000007326,0.372894287109375,-0.4532470703125,0.31072998046875,-0.74761962890625,0.1220703125,-0.06103515625,0.1220703125,0.44580078125,-0.80126953125,0.3948974609375,-296.0,153.0,-149.0,101701.0,-3.127000093460083,0,0
0.5281205999926897,0.372894287109375,-0.453216552734375,0.31072998046875,-0.74761962890625,0.06103515625,-0.18310546875,0.18310546875,0.446044921875,-0.8031005859375,0.3961181640625,-296.0,153.0,-149.0,101701.0,-3.127000093460083,0,0
0.5281852999905823,0.372894287109375,-0.453216552734375,0.31072998046875,-0.74761962890625,0.244140625,-0.06103515625,0.0,0.4443359375,-0.7998046875,0.394775390625,-296.0,153.0,-149.0,101701.0,-3.127000093460083,0,0
0.5413102000020444,0.372802734375,-0.453155517578125,0.310791015625,-0.747650146484375,0.30517578125,-0.18310546875,-0.06103515625,0.442626953125,-0.8037109375,0.3944091796875,-297.0,153.0,-150.0,101701.0,-3.127000093460083,0,0
0.5413747999991756,0.372802734375,-0.453155517578125,0.310821533203125,-0.747650146484375,0.1220703125,-0.1220703125,-0.18310546875,0.4439697265625,-0.8028564453125,0.3946533203125,-297.0,153.0,-150.0,101701.0,-3.127000093460083,0,0
0.5414315999951214,0.372802734375,-0.453155517578125,0.310791015625,-0.747650146484375,-0.1220703125,-0.06103515625,-0.244140625,0.4466552734375,-0.801025390625,0.3963623046875,-297.0,153.0,-150.0,101701.0,-3.127000093460083,0,0
0.5414867999934359,0.372802734375,-0.453155517578125,0.310791015625,-0.747650146484375,-0.244140625,-0.3662109375,-0.06103515625,0.4456787109375,-0.801513671875,0.3956298828125,-297.0,153.0,-150.0,101701.0,-3.127000093460083,0,0
0.5415435999893816,0.372802734375,-0.453155517578125,0.310791015625,-0.747650146484375,0.1220703125,0.244140625,-0.244140625,0.445556640625,-0.80029296875,0.3955078125,-297.0,153.0,-150.0,101701.0,-3.127000093460083,0,0
0.5415994999930263,0.372802734375,-0.453155517578125,0.310791015625,-0.7476806640625,-0.18310546875,-0.18310546875,0.06103515625,0.443115234375,-0.802001953125,0.3970947265625,-297.0,153.0,-150.0,101701.0,-3.127000093460083,0,0
0.5939456999913091,0.372833251953125,-0.453155517578125,0.310821533203125,-0.747650146484375,0.0,0.0,0.0,0.44287109375,-0.802490234375,0.3961181640625,-297.0,153.0,-150.0,101701.0,-3.127000093460083,0,0
0.5940074999962235,0.372833251953125,-0.453155517578125,0.310821533203125,-0.747650146484375,0.1220703125,-0.06103515625,-0.18310546875,0.445068359375,-0.7999267578125,0.39404296875,-297.0,153.0,-150.0,101701.0,-3.127000093460083,0,0
0.5940633999998681,0.372833251953125,-0.453155517578125,0.310821533203125,-0.747650146484375,0.1220703125,-0.06103515625,0.1220703125,0.445556640625,-0.800048828125,0.3956298828125,-297.0,153.0,-150.0,101701.0,-3.127000093460083,0,0
0.5941428999940399,0.372802734375,-0.453155517578125,0.310821533203125,-0.747650146484375,0.1220703125,-0.06103515625,0.06103515625,0.4476318359375,-0.8016357421875,0.3956298828125,-297.0,153.0,-150.0,101701.0,-3.127000093460083,0,0
0.5942012000014074,0.372802734375,-0.453155517578125,0.310821533203125,-0.747650146484375,0.06103515625,0.1220703125,-0.244140625,0.445068359375,-0.8031005859375,0.3944091796875,-297.0,153.0,-150.0,101701.0,-3.127000093460083,0,0
0.5944263999990653,0.372802734375,-0.453155517578125,0.310821533203125,-0.747650146484375,-0.1220703125,-0.18310546875,-0.06103515625,0.4456787109375,-0.8006591796875,0.3978271484375,-297.0,153.0,-150.0,101701.0,-3.127000093460083,0,0
0.5944828999927267,0.372802734375,-0.453155517578125,0.310821533203125,-0.747650146484375,0.06103515625,-0.18310546875,0.0,0.4459228515625,-0.80224609375,0.3951416015625,-297.0,153.0,-150.0,101701.0,-3.127000093460083,0,0
0.5946007000020472,0.372802734375,-0.453155517578125,0.310821533203125,-0.747650146484375,0.30517578125,0.0,0.06103515625,0.445556640625,-0.80322265625,0.3966064453125,-297.0,153.0,-150.0,101701.0,-3.127000093460083,0,0
0.5946600000024773,0.372802734375,-0.453155517578125,0.310821533203125,-0.747650146484375,0.30517578125,0.0,0.06103515625,0.445556640625,-0.80322265625,0.3966064453125,-297.0,153.0,-150.0,101701.0,-3.127000093460083,0,0
0.5947542999929283,0.372833251953125,-0.453155517578125,0.310791015625,-0.7476806640625,-0.18310546875,0.0,-0.1220703125,0.44677734375,-0.801513671875,0.3974609375,-297.0,153.0,-150.0,101701.0,-3.127000093460083,0,0
0.5950015999987954,0.372833251953125,-0.453155517578125,0.310791015625,-0.7476806640625,-0.18310546875,0.0,-0.1220703125,0.44677734375,-0.801513671875,0.3974609375,-296.0,153.0,-150.0,101701.0,-3.127000093460083,0,0
0.6615787999908207,0.37274169921875,-0.453094482421875,0.31085205078125,-0.747711181640625,-0.1220703125,0.0,-0.06103515625,0.445068359375,-0.8026123046875,0.395263671875,-296.0,153.0,-150.0,101701.0,-3.127000093460083,0,0
0.6616456999909133,0.37274169921875,-0.453094482421875,0.31085205078125,-0.747711181640625,0.06103515625,-0.06103515625,-0.18310546875,0.4454345703125,-0.8018798828125,0.3978271484375,-296.0,153.0,-150.0,101701.0,-3.127000093460083,0,0
0.6617054999951506,0.37274169921875,-0.453094482421875,0.31085205078125,-0.74774169921875,-0.06103515625,0.06103515625,0.06103515625,0.4454345703125,-0.801513671875,0.397216796875,-296.0,153.0,-150.0,101701.0,-3.127000093460083,0,0
0.6617646999948192,0.37274169921875,-0.453094482421875,0.31085205078125,-0.74774169921875,0.244140625,0.1220703125,-0.30517578125,0.444580078125,-0.80078125,0.395751953125,-296.0,153.0,-150.0,101701.0,-3.127000093460083,0,0
0.661869099989417,0.37274169921875,-0.45306396484375,0.31085205078125,-0.74774169921875,0.06103515625,-0.244140625,-0.06103515625,0.4443359375,-0.800048828125,0.396484375,-296.0,153.0,-150.0,101701.0,-3.127000093460083,0,0
0.6622949000011431,0.37274169921875,-0.45306396484375,0.31085205078125,-0.74774169921875,0.06103515625,-0.244140625,-0.06103515625,0.4443359375,-0.800048828125,0.396484375,-296.0,153.0,-150.0,101701.0,-3.127000093460083,0,0
0.6623627999942983,0.37274169921875,-0.45306396484375,0.31085205078125,-0.74774169921875,-0.18310546875,0.0,-0.1220703125,0.4434814453125,-0.8037109375,0.3963623046875,-296.0,153.0,-150.0,101701.0,-3.127000093460083,0,0
0.662424900001497,0.37274169921875,-0.45306396484375,0.31085205078125,-0.74774169921875,0.06103515625,-0.06103515625,0.06103515625,0.4453125,-0.8031005859375,0.3958740234375,-296.0,153.0,-150.0,101701.0,-3.126000165939331,0,0
0.6624860000010813,0.37274169921875,-0.45306396484375,0.31085205078125,-0.74774169921875,0.0,0.0,-0.18310546875,0.4447021484375,-0.8013916015625,0.3966064453125,-296.0,153.0,-150.0,101701.0,-3.126000165939331,0,0
0.6625999999960186,0.37274169921875,-0.45306396484375,0.31085205078125,-0.74774169921875,0.0,-0.06103515625,-0.06103515625,0.44482421875,-0.8017578125,0.396240234375,-296.0,153.0,-150.0,101701.0,-3.126000165939331,0,0
0.662657599998056,0.37274169921875,-0.45306396484375,0.31085205078125,-0.74774169921875,0.1220703125,-0.06103515625,-0.1220703125,0.447021484375,-0.801513671875,0.3958740234375,-296.0,153.0,-150.0,101701.0,-3.126000165939331,0,0
0.7191165999975055,0.37274169921875,-0.45306396484375,0.31085205078125,-0.74774169921875,-0.1220703125,-0.1220703125,0.18310546875,0.447265625,-0.80322265625,0.3961181640625,-296.0,153.0,-150.0,101701.0,-3.126000165939331,0,0
0.7191844999906607,0.37274169921875,-0.45306396484375,0.31085205078125,-0.74774169921875,0.244140625,0.06103515625,-0.18310546875,0.44287109375,-0.80029296875,0.3961181640625,-296.0,153.0,-150.0,101701.0,-3.126000165939331,0,0
0.7192448999994667,0.37274169921875,-0.45306396484375,0.31085205078125,-0.74774169921875,0.30517578125,0.06103515625,0.18310546875,0.446044921875,-0.802001953125,0.3963623046875,-296.0,153.0,-150.0,101701.0,-3.126000165939331,0,0
0.7193018999969354,0.37274169921875,-0.45306396484375,0.31085205078125,-0.74774169921875,0.30517578125,0.06103515625,0.18310546875,0.446044921875,-0.802001953125,0.3963623046875,-296.0,153.0,-150.0,101701.0,-3.126000165939331,0,0
0.71936000000278,0.37274169921875,-0.45306396484375,0.31085205078125,-0.74774169921875,0.30517578125,0.1220703125,0.0,0.444091796875,-0.8037109375,0.3961181640625,-296.0,153.0,-150.0,101701.0,-3.126000165939331,0,0
0.719417300002533,0.37274169921875,-0.45306396484375,0.31085205078125,-0.74774169921875,0.18310546875,-0.06103515625,0.06103515625,0.44482421875,-0.8023681640625,0.395263671875,-296.0,153.0,-150.0,101701.0,-3.126000165939331,0,0
0.7194750999915414,0.37274169921875,-0.45306396484375,0.31085205078125,-0.74774169921875,0.0,0.06103515625,0.0,0.4454345703125,-0.801025390625,0.39599609375,-296.0,153.0,-150.0,101701.0,-3.126000165939331,0,0
0.7209127999958582,0.37274169921875,-0.45306396484375,0.31085205078125,-0.74774169921875,0.0,0.06103515625,0.0,0.4454345703125,-0.801025390625,0.39599609375,-296.0,153.0,-150.0,101701.0,-3.126000165939331,0,0
0.7209787999890978,0.37274169921875,-0.45306396484375,0.31085205078125,-0.74774169921875,0.06103515625,0.06103515625,0.0,0.44580078125,-0.802734375,0.396240234375,-296.0,153.0,-150.0,101701.0,-3.126000165939331,0,0
0.7210370999964653,0.37274169921875,-0.45306396484375,0.31085205078125,-0.74774169921875,-0.06103515625,-0.1220703125,-0.1220703125,0.4451904296875,-0.8035888671875,0.3978271484375,-296.0,153.0,-150.0,101701.0,-3.126000165939331,0,0
0.7210931000008713,0.37274169921875,-0.45306396484375,0.31085205078125,-0.74774169921875,0.0,-0.06103515625,0.1220703125,0.4462890625,-0.8018798828125,0.3961181640625,-296.0,153.0,-150.0,101701.0,-3.126000165939331,0,0
0.7211499999975786,0.37274169921875,-0.45306396484375,0.31085205078125,-0.74774169921875,-0.30517578125,-0.1220703125,0.0,0.4444580078125,-0.8017578125,0.3978271484375,-296.0,153.0,-150.0,101701.0,-3.126000165939331,0,0
0.7212059000012232,0.37274169921875,-0.45306396484375,0.31085205078125,-0.74774169921875,0.18310546875,-0.244140625,-0.18310546875,0.4468994140625,-0.8004150390625,0.3958740234375,-296.0,153.0,-150.0,101701.0,-3.126000165939331,0,0
0.7861122000031173,0.37274169921875,-0.453033447265625,0.31085205078125,-0.74774169921875,0.18310546875,0.06103515625,-0.06103515625,0.4495849609375,-0.8026123046875,0.39794921875,-296.0,153.0,-150.0,101701.0,-3.126000165939331,0,0
0.7861752000026172,0.37274169921875,-0.453033447265625,0.310821533203125,-0.74774169921875,-0.1220703125,-0.06103515625,-0.06103515625,0.44677734375,-0.8026123046875,0.39697265625,-296.0,153.0,-150.0,101701.0,-3.126000165939331,0,0
0.7862335999961942,0.37274169921875,-0.453033447265625,0.310821533203125,-0.74774169921875,-0.06103515625,0.06103515625,0.0,0.447021484375,-0.802001953125,0.3974609375,-296.0,153.0,-150.0,101701.0,-3.126000165939331,0,0
0.7862908999959473,0.37274169921875,-0.453033447265625,0.310821533203125,-0.747772216796875,0.06103515625,-0.1220703125,0.1220703125,0.4437255859375,-0.801513671875,0.3975830078125,-296.0,153.0,-150.0,101701.0,-3.126000165939331,0,0
0.7863475999911316,0.37274169921875,-0.453033447265625,0.310821533203125,-0.747772216796875,0.30517578125,0.1220703125,-0.06103515625,0.4451904296875,-0.8018798828125,0.395751953125,-296.0,153.0,-150.0,101701.0,-3.126000165939331,0,0
0.7874537999887252,0.37274169921875,-0.453033447265625,0.310821533203125,-0.747772216796875,0.30517578125,0.1220703125,-0.06103515625,0.4451904296875,-0.8018798828125,0.395751953125,-296.0,153.0,-150.0,101701.0,-3.126000165939331,0,0
0.7875187000026926,0.37274169921875,-0.453033447265625,0.310821533203125,-0.747772216796875,0.0,0.06103515625,-0.06103515625,0.4449462890625,-0.802001953125,0.3973388671875,-296.0,153.0,-150.0,101701.0,-3.126000165939331,0,0
0.7875781999900937,0.37274169921875,-0.453033447265625,0.310821533203125,-0.747772216796875,0.0,0.06103515625,-0.06103515625,0.4449462890625,-0.802001953125,0.3973388671875,-296.0,153.0,-150.0,101701.0,-3.126000165939331,0,0
0.7876342999952612,0.372772216796875,-0.453033447265625,0.31085205078125,-0.747772216796875,0.06103515625,0.06103515625,0.1220703125,0.4453125,-0.801513671875,0.39599609375,-296.0,153.0,-150.0,101701.0,-3.126000165939331,0,0
0.7876891999912914,0.37274169921875,-0.453033447265625,0.31085205078125,-0.747772216796875,-0.06103515625,-0.1220703125,-0.30517578125,0.4459228515625,-0.8013916015625,0.39697265625,-296.0,153.0,-150.0,101701.0,-3.126000165939331,0,0
0.7877458000002662,0.37274169921875,-0.453033447265625,0.31085205078125,-0.747772216796875,0.06103515625,-0.06103515625,0.244140625,0.4456787109375,-0.8028564453125,0.395751953125,-296.0,153.0,-150.0,101701.0,-3.126000165939331,0,0
0.8478677999955835,0.372772216796875,-0.4530029296875,0.310821533203125,-0.747772216796875,0.1220703125,0.0,-0.18310546875,0.4456787109375,-0.8017578125,0.396728515625,-297.0,152.0,-150.0,101701.0,-3.126000165939331,0,0
0.8479388999985531,0.372772216796875,-0.4530029296875,0.310821533203125,-0.747772216796875,-0.06103515625,-0.1220703125,-0.244140625,0.44384765625,-0.8018798828125,0.3953857421875,-297.0,152.0,-150.0,101701.0,-3.126000165939331,0,0
0.8480025999888312,0.372772216796875,-0.4530029296875,0.310821533203125,-0.747772216796875,0.06103515625,0.0,0.0,0.4447021484375,-0.7996826171875,0.3946533203125,-297.0,152.0,-150.0,101701.0,-3.126000165939331,0,0
0.8547114999964833,0.372772216796875,-0.4530029296875,0.310821533203125,-0.747772216796875,0.30517578125,-0.18310546875,-0.18310546875,0.44482421875,-0.8016357421875,0.395751953125,-297.0,152.0,-150.0,101701.0,-3.126000165939331,0,0
0.8547983000025852,0.372772216796875,-0.4530029296875,0.310821533203125,-0.747772216796875,0.30517578125,-0.18310546875,-0.18310546875,0.44482421875,-0.8016357421875,0.395751953125,-297.0,152.0,-150.0,101701.0,-3.126000165939331,0,0
0.8548748000030173,0.372772216796875,-0.4530029296875,0.310821533203125,-0.747772216796875,-0.06103515625,-0.06103515625,0.0,0.4449462890625,-0.80126953125,0.3948974609375,-297.0,152.0,-150.0,101701.0,-3.126000165939331,0,0
0.855576399990241,0.372772216796875,-0.4530029296875,0.310821533203125,-0.747772216796875,0.0,0.06103515625,-0.1220703125,0.4459228515625,-0.8017578125,0.3963623046875,-297.0,152.0,-150.0,101701.0,-3.126000165939331,0,0
0.855644499999471,0.37274169921875,-0.4530029296875,0.310821533203125,-0.747772216796875,-0.18310546875,0.06103515625,-0.18310546875,0.446044921875,-0.8001708984375,0.39697265625,-297.0,152.0,-150.0,101701.0,-3.126000165939331,0,0
0.8557020000007469,0.372772216796875,-0.4530029296875,0.310821533203125,-0.747772216796875,0.18310546875,-0.06103515625,-0.1220703125,0.44677734375,-0.8009033203125,0.397216796875,-297.0,152.0,-150.0,101701.0,-3.126000165939331,0,0
0.8557562999922084,0.372772216796875,-0.4530029296875,0.310821533203125,-0.747772216796875,0.06103515625,0.0,0.30517578125,0.4432373046875,-0.80224609375,0.39599609375,-297.0,152.0,-150.0,101701.0,-3.127000093460083,0,0
0.8558093999890843,0.372772216796875,-0.4530029296875,0.310821533203125,-0.747772216796875,0.30517578125,0.18310546875,0.06103515625,0.4439697265625,-0.8045654296875,0.39794921875,-297.0,152.0,-150.0,101701.0,-3.127000093460083,0,0
0.9118799999996554,0.372772216796875,-0.4530029296875,0.310821533203125,-0.747772216796875,0.30517578125,0.18310546875,0.06103515625,0.4439697265625,-0.8045654296875,0.39794921875,-297.0,152.0,-150.0,101701.0,-3.127000093460083,0,0
0.9119470000005094,0.372772216796875,-0.4530029296875,0.31085205078125,-0.747772216796875,0.0,0.0,-0.18310546875,0.44482421875,-0.8045654296875,0.396484375,-297.0,152.0,-150.0,101701.0,-3.127000093460083,0,0
0.9120060999994166,0.372772216796875,-0.4530029296875,0.31085205078125,-0.747772216796875,0.0,0.0,-0.18310546875,0.44482421875,-0.8045654296875,0.396484375,-297.0,152.0,-150.0,101701.0,-3.127000093460083,0,0
0.9120650999975624,0.372772216796875,-0.4530029296875,0.31085205078125,-0.747772216796875,0.06103515625,-0.1220703125,0.1220703125,0.4461669921875,-0.8023681640625,0.396240234375,-297.0,152.0,-150.0,101701.0,-3.127000093460083,0,0
0.9121677999937674,0.372772216796875,-0.4530029296875,0.31085205078125,-0.747772216796875,-0.06103515625,-0.06103515625,0.0,0.444580078125,-0.8031005859375,0.3975830078125,-297.0,152.0,-150.0,101701.0,-3.127000093460083,0,0
0.9122332999977516,0.372772216796875,-0.4530029296875,0.310821533203125,-0.747772216796875,-0.1220703125,-0.06103515625,-0.06103515625,0.4444580078125,-0.802001953125,0.3973388671875,-297.0,152.0,-150.0,101701.0,-3.127000093460083,0,0
0.9122913000028348,0.372772216796875,-0.4530029296875,0.310821533203125,-0.747772216796875,-0.1220703125,0.0,-0.1220703125,0.4451904296875,-0.8016357421875,0.3968505859375,-297.0,152.0,-150.0,101701.0,-3.127000093460083,0,0
0.9533516999945277,0.372772216796875,-0.4530029296875,0.310821533203125,-0.747772216796875,-0.1220703125,0.06103515625,-0.30517578125,0.4454345703125,-0.8016357421875,0.3968505859375,-297.0,152.0,-150.0,101701.0,-3.127000093460083,0,0
0.9534157000016421,0.372772216796875,-0.4530029296875,0.310821533203125,-0.747772216796875,0.06103515625,-0.244140625,-0.1220703125,0.4449462890625,-0.8011474609375,0.395751953125,-297.0,151.0,-151.0,101701.0,-3.127000093460083,0,0
0.9534750000020722,0.372589111328125,-0.452911376953125,0.310943603515625,-0.747894287109375,0.0,0.06103515625,-0.1220703125,0.446533203125,-0.799560546875,0.398193359375,-297.0,151.0,-151.0,101701.0,-3.127000093460083,0,0
0.9535318999987794,0.372589111328125,-0.452911376953125,0.310943603515625,-0.747894287109375,0.54931640625,0.1220703125,0.244140625,0.4443359375,-0.8018798828125,0.396484375,-297.0,151.0,-151.0,101701.0,-3.127000093460083,0,0
0.9535929999983637,0.372589111328125,-0.452911376953125,0.310943603515625,-0.747894287109375,0.06103515625,-0.18310546875,0.0,0.4439697265625,-0.8013916015625,0.39697265625,-297.0,151.0,-151.0,101701.0,-3.127000093460083,0,0
0.9536500999965938,0.372589111328125,-0.452911376953125,0.310943603515625,-0.747894287109375,0.06103515625,-0.18310546875,0.0,0.4439697265625,-0.8013916015625,0.39697265625,-297.0,151.0,-151.0,101701.0,-3.127000093460083,0,0
0.9766747999965446,0.372589111328125,-0.452880859375,0.310943603515625,-0.747894287109375,0.0,-0.06103515625,0.0,0.444580078125,-0.8040771484375,0.3966064453125,-297.0,151.0,-151.0,101701.0,-3.127000093460083,0,0
0.9767391999921529,0.372589111328125,-0.452880859375,0.310943603515625,-0.747894287109375,0.244140625,-0.1220703125,-0.06103515625,0.44384765625,-0.80078125,0.3970947265625,-297.0,151.0,-151.0,101701.0,-3.127000093460083,0,0
0.9767953999980818,0.372589111328125,-0.452880859375,0.310943603515625,-0.747894287109375,0.18310546875,-0.244140625,-0.1220703125,0.4462890625,-0.8016357421875,0.396484375,-297.0,151.0,-151.0,101701.0,-3.127000093460083,0,0
0.9768501999933505,0.372589111328125,-0.452880859375,0.3109130859375,-0.747894287109375,-0.06103515625,-0.06103515625,-0.1220703125,0.4476318359375,-0.8016357421875,0.396484375,-297.0,151.0,-151.0,101701.0,-3.126000165939331,0,0
0.9769069000030868,0.372589111328125,-0.452880859375,0.3109130859375,-0.747894287109375,0.06103515625,-0.1220703125,-0.06103515625,0.445068359375,-0.8037109375,0.3984375,-297.0,151.0,-151.0,101701.0,-3.126000165939331,0,0
0.977726299999631,0.372589111328125,-0.452880859375,0.3109130859375,-0.747894287109375,-0.18310546875,-0.1220703125,-0.1220703125,0.445556640625,-0.80126953125,0.396484375,-297.0,151.0,-151.0,101701.0,-3.126000165939331,0,0
0.9777821999887237,0.372589111328125,-0.452880859375,0.3109130859375,-0.747894287109375,-0.18310546875,-0.1220703125,-0.1220703125,0.445556640625,-0.80126953125,0.396484375,-297.0,151.0,-151.0,101701.0,-3.126000165939331,0,0
0.9778362999932142,0.372589111328125,-0.452880859375,0.3109130859375,-0.747894287109375,-0.1220703125,-0.30517578125,0.18310546875,0.4442138671875,-0.8028564453125,0.3963623046875,-297.0,151.0,-151.0,101701.0,-3.126000165939331,0,0
0.977890699999989,0.372589111328125,-0.452880859375,0.3109130859375,-0.747894287109375,0.0,0.0,-0.1220703125,0.44482421875,-0.8023681640625,0.3975830078125,-297.0,151.0,-151.0,101701.0,-3.126000165939331,0,0
0.9779430999915348,0.372589111328125,-0.452880859375,0.3109130859375,-0.747894287109375,0.06103515625,0.06103515625,-0.1220703125,0.44287109375,-0.8013916015625,0.39794921875,-297.0,151.0,-151.0,101701.0,-3.126000165939331,0,0
0.9779956999991555,0.372589111328125,-0.452850341796875,0.3109130859375,-0.747894287109375,0.06103515625,-0.06103515625,0.0,0.446533203125,-0.8038330078125,0.39892578125,-297.0,151.0,-151.0,101701.0,-3.126000165939331,0,0
1.0371153000014601,0.372589111328125,-0.45281982421875,0.3109130859375,-0.7479248046875,0.06103515625,0.06103515625,-0.18310546875,0.4447021484375,-0.801513671875,0.3975830078125,-297.0,151.0,-151.0,101701.0,-3.126000165939331,0,0
1.037193500000285,0.372406005859375,-0.452728271484375,0.31103515625,-0.748016357421875,0.06103515625,0.06103515625,-0.18310546875,0.4447021484375,-0.801513671875,0.3975830078125,-297.0,151.0,-151.0,101701.0,-3.126000165939331,0,0
1.0372516999923391,0.372406005859375,-0.452728271484375,0.311004638671875,-0.748046875,0.06103515625,0.0,-0.06103515625,0.445556640625,-0.8017578125,0.399169921875,-297.0,151.0,-151.0,101701.0,-3.126000165939331,0,0
1.0373082000005525,0.372406005859375,-0.452728271484375,0.311004638671875,-0.748046875,0.06103515625,0.0,-0.06103515625,0.445556640625,-0.8017578125,0.399169921875,-297.0,151.0,-151.0,101701.0,-3.126000165939331,0,0
1.037363399998867,0.372406005859375,-0.452728271484375,0.311004638671875,-0.748046875,0.06103515625,-0.06103515625,-0.18310546875,0.446044921875,-0.8038330078125,0.3992919921875,-297.0,151.0,-151.0,101701.0,-3.126000165939331,0,0
1.0374594000022626,0.372406005859375,-0.452728271484375,0.311004638671875,-0.748046875,0.42724609375,-0.18310546875,-0.18310546875,0.4449462890625,-0.8018798828125,0.396484375,-297.0,151.0,-151.0,101701.0,-3.126000165939331,0,0
1.0375193999934709,0.372406005859375,-0.452728271484375,0.311004638671875,-0.748046875,-0.06103515625,-0.1220703125,-0.06103515625,0.4449462890625,-0.80078125,0.3968505859375,-297.0,151.0,-151.0,101701.0,-3.126000165939331,0,0
1.0375712999957614,0.372406005859375,-0.452728271484375,0.311004638671875,-0.748046875,0.244140625,0.06103515625,-0.1220703125,0.4454345703125,-0.8017578125,0.3983154296875,-297.0,151.0,-151.0,101701.0,-3.126000165939331,0,0
1.0376235000003362,0.372406005859375,-0.452728271484375,0.311004638671875,-0.748046875,0.06103515625,-0.1220703125,0.0,0.4454345703125,-0.8006591796875,0.3970947265625,-297.0,151.0,-151.0,101701.0,-3.126000165939331,0,0
1.0376759999926435,0.372406005859375,-0.452728271484375,0.311004638671875,-0.748046875,-0.244140625,-0.18310546875,0.0,0.44580078125,-0.801025390625,0.397216796875,-297.0,151.0,-151.0,101701.0,-3.126000165939331,0,0
1.0377277999941725,0.372406005859375,-0.452728271484375,0.311004638671875,-0.748046875,0.244140625,-0.18310546875,0.1220703125,0.446533203125,-0.8038330078125,0.396484375,-297.0,151.0,-151.0,101701.0,-3.126000165939331,0,0
1.0377792999934172,0.372406005859375,-0.452728271484375,0.311004638671875,-0.748046875,-0.1220703125,0.0,-0.1220703125,0.446533203125,-0.8006591796875,0.3968505859375,-297.0,151.0,-151.0,101701.0,-3.126000165939331,0,0
1.1048048999946332,0.372406005859375,-0.452728271484375,0.311004638671875,-0.748046875,-0.1220703125,0.0,-0.1220703125,0.446533203125,-0.8006591796875,0.3968505859375,-297.0,151.0,-151.0,101701.0,-3.126000165939331,0,0
1.104869000002509,0.372406005859375,-0.45269775390625,0.31097412109375,-0.748046875,0.06103515625,-0.1220703125,0.0,0.4459228515625,-0.802490234375,0.39794921875,-297.0,151.0,-151.0,101701.0,-3.126000165939331,0,0
1.104928300002939,0.372406005859375,-0.452728271484375,0.31097412109375,-0.748046875,-0.06103515625,-0.1220703125,-0.1220703125,0.44580078125,-0.80078125,0.3968505859375,-297.0,151.0,-151.0,101701.0,-3.126000165939331,0,0
1.1049864999949932,0.372406005859375,-0.45269775390625,0.31097412109375,-0.748046875,0.0,0.0,-0.1220703125,0.4456787109375,-0.80126953125,0.395751953125,-297.0,151.0,-151.0,101701.0,-3.126000165939331,0,0
1.1050405999994837,0.372406005859375,-0.45269775390625,0.31097412109375,-0.748046875,0.0,0.1220703125,-0.06103515625,0.443359375,-0.80029296875,0.395751953125,-297.0,151.0,-151.0,101701.0,-3.126000165939331,0,0
1.1050933999940753,0.372406005859375,-0.45269775390625,0.31097412109375,-0.748077392578125,0.0,-0.06103515625,0.06103515625,0.4427490234375,-0.8018798828125,0.3984375,-297.0,151.0,-151.0,101701.0,-3.126000165939331,0,0
1.1056590999942273,0.372406005859375,-0.45269775390625,0.31097412109375,-0.748077392578125,0.18310546875,0.06103515625,-0.244140625,0.4468994140625,-0.8046875,0.39892578125,-297.0,151.0,-151.0,101701.0,-3.126000165939331,0,0
1.1057569999975385,0.372406005859375,-0.45269775390625,0.31097412109375,-0.748077392578125,0.1220703125,0.0,0.30517578125,0.446533203125,-0.80126953125,0.3985595703125,-297.0,151.0,-151.0,101701.0,-3.126000165939331,0,0
1.1058116999920458,0.372406005859375,-0.45269775390625,0.31097412109375,-0.748077392578125,0.1220703125,-0.1220703125,-0.1220703125,0.445068359375,-0.8013916015625,0.3975830078125,-297.0,151.0,-151.0,101701.0,-3.130000114440918,0,0
1.1058647000027122,0.372406005859375,-0.45269775390625,0.31097412109375,-0.748077392578125,-0.30517578125,-0.06103515625,0.0,0.4466552734375,-0.8028564453125,0.3963623046875,-297.0,150.0,-152.0,101701.0,-3.130000114440918,0,0
1.105918399989605,0.372406005859375,-0.45269775390625,0.31097412109375,-0.748077392578125,-0.30517578125,-0.06103515625,0.0,0.4466552734375,-0.8028564453125,0.3963623046875,-297.0,150.0,-152.0,101701.0,-3.130000114440918,0,0
1.105975300000864,0.372222900390625,-0.452606201171875,0.31109619140625,-0.7481689453125,0.30517578125,0.1220703125,0.3662109375,0.4442138671875,-0.801025390625,0.396728515625,-297.0,150.0,-152.0,101701.0,-3.130000114440918,0,0
1.1724408000009134,0.372222900390625,-0.452606201171875,0.31109619140625,-0.7481689453125,0.1220703125,-0.1220703125,0.0,0.44677734375,-0.80078125,0.3961181640625,-297.0,150.0,-152.0,101701.0,-3.130000114440918,0,0
1.172516499995254,0.372222900390625,-0.452606201171875,0.31109619140625,-0.7481689453125,-0.18310546875,0.06103515625,0.0,0.44677734375,-0.80078125,0.397216796875,-297.0,150.0,-152.0,101701.0,-3.130000114440918,0,0
1.172576700002537,0.372222900390625,-0.452606201171875,0.31109619140625,-0.7481689453125,0.06103515625,-0.1220703125,0.0,0.4464111328125,-0.8009033203125,0.396728515625,-297.0,150.0,-152.0,101701.0,-3.130000114440918,0,0
1.1726346999930684,0.372222900390625,-0.452606201171875,0.311065673828125,-0.7481689453125,0.0,0.0,-0.244140625,0.4453125,-0.7996826171875,0.396728515625,-297.0,150.0,-152.0,101701.0,-3.130000114440918,0,0
1.1726923999958672,0.372222900390625,-0.452606201171875,0.311065673828125,-0.7481689453125,0.06103515625,0.1220703125,-0.1220703125,0.446044921875,-0.80029296875,0.39697265625,-297.0,150.0,-152.0,101701.0,-3.130000114440918,0,0
1.1727670999971451,0.372222900390625,-0.452606201171875,0.311065673828125,-0.7481689453125,0.06103515625,0.1220703125,-0.1220703125,0.446044921875,-0.80029296875,0.39697265625,-297.0,150.0,-152.0,101701.0,-3.130000114440918,0,0
1.1728252000029897,0.372222900390625,-0.452606201171875,0.311065673828125,-0.748199462890625,-0.1220703125,-0.244140625,0.18310546875,0.446044921875,-0.8017578125,0.3978271484375,-297.0,150.0,-152.0,101701.0,-3.130000114440918,0,0
1.1728812999936054,0.372222900390625,-0.452606201171875,0.311065673828125,-0.748199462890625,0.18310546875,0.18310546875,-0.06103515625,0.445068359375,-0.8018798828125,0.3968505859375,-297.0,150.0,-152.0,101701.0,-3.130000114440918,0,0
1.1729381999903126,0.372222900390625,-0.452606201171875,0.311065673828125,-0.748199462890625,0.1220703125,-0.1220703125,0.18310546875,0.4447021484375,-0.8001708984375,0.398193359375,-297.0,150.0,-152.0,101701.0,-3.130000114440918,0,0
1.1729936999909114,0.372222900390625,-0.452606201171875,0.311065673828125,-0.748199462890625,-0.06103515625,-0.1220703125,-0.18310546875,0.44482421875,-0.8021240234375,0.3970947265625,-297.0,150.0,-152.0,101701.0,-3.130000114440918,0,0
1.1730510999914259,0.372222900390625,-0.452606201171875,0.311065673828125,-0.748199462890625,0.1220703125,-0.244140625,-0.06103515625,0.44677734375,-0.8017578125,0.3988037109375,-297.0,150.0,-152.0,101701.0,-3.130000114440918,0,0
1.2270330999890575,0.372222900390625,-0.45257568359375,0.311065673828125,-0.748199462890625,0.1220703125,-0.06103515625,-0.06103515625,0.443603515625,-0.801025390625,0.399169921875,-297.0,150.0,-152.0,101701.0,-3.130000114440918,0,0
1.227099800002179,0.372222900390625,-0.45257568359375,0.311065673828125,-0.748199462890625,0.0,0.1220703125,-0.1220703125,0.4453125,-0.8028564453125,0.3988037109375,-297.0,150.0,-152.0,101701.0,-3.130000114440918,0,0
1.2271592999895802,0.372222900390625,-0.45257568359375,0.311065673828125,-0.748199462890625,0.0,0.1220703125,-0.1220703125,0.4453125,-0.8028564453125,0.3988037109375,-297.0,150.0,-152.0,101701.0,-3.130000114440918,0,0
1.2272174999961862,0.372222900390625,-0.452545166015625,0.311065673828125,-0.748199462890625,0.1220703125,-0.1220703125,-0.06103515625,0.4444580078125,-0.8028564453125,0.399169921875,-297.0,149.0,-152.0,101700.0,-3.124000072479248,0,0
1.2272755000012694,0.372039794921875,-0.452484130859375,0.3111572265625,-0.748321533203125,-0.30517578125,0.06103515625,0.0,0.4461669921875,-0.801025390625,0.3978271484375,-297.0,149.0,-152.0,101700.0,-3.124000072479248,0,0
1.2285238999902504,0.372039794921875,-0.452484130859375,0.3111572265625,-0.748321533203125,0.0,0.1220703125,0.06103515625,0.4461669921875,-0.80126953125,0.3975830078125,-297.0,149.0,-152.0,101700.0,-3.124000072479248,0,0
1.2285848000028636,0.372039794921875,-0.452484130859375,0.3111572265625,-0.748321533203125,-0.06103515625,0.0,-0.18310546875,0.447265625,-0.8016357421875,0.3975830078125,-297.0,149.0,-152.0,101700.0,-3.124000072479248,0,0
1.2286424999911105,0.372039794921875,-0.452484130859375,0.3111572265625,-0.748321533203125,0.1220703125,0.0,-0.3662109375,0.4453125,-0.80126953125,0.397216796875,-297.0,149.0,-152.0,101700.0,-3.124000072479248,0,0
1.2286993000016082,0.372039794921875,-0.452484130859375,0.3111572265625,-0.748321533203125,0.18310546875,-0.1220703125,0.1220703125,0.4453125,-0.8026123046875,0.39453125,-297.0,149.0,-152.0,101700.0,-3.124000072479248,0,0
1.2287566000013612,0.372039794921875,-0.452484130859375,0.3111572265625,-0.748321533203125,0.06103515625,0.06103515625,-0.06103515625,0.4454345703125,-0.801513671875,0.3975830078125,-297.0,149.0,-152.0,101700.0,-3.124000072479248,0,0
1.2288132999965455,0.372039794921875,-0.452484130859375,0.3111572265625,-0.748321533203125,0.1220703125,0.1220703125,-0.42724609375,0.4451904296875,-0.8017578125,0.397216796875,-297.0,149.0,-152.0,101700.0,-3.124000072479248,0,0
1.2288715000031516,0.372039794921875,-0.452484130859375,0.3111572265625,-0.748321533203125,0.1220703125,0.1220703125,-0.42724609375,0.4451904296875,-0.8017578125,0.397216796875,-297.0,149.0,-152.0,101700.0,-3.124000072479248,0,0
1.295377299989923,0.372039794921875,-0.45245361328125,0.3111572265625,-0.748321533203125,0.0,-0.244140625,0.0,0.444580078125,-0.8011474609375,0.3988037109375,-297.0,149.0,-152.0,101700.0,-3.124000072479248,0,0
1.2954463999922154,0.372039794921875,-0.45245361328125,0.3111572265625,-0.748321533203125,0.18310546875,-0.1220703125,0.06103515625,0.4434814453125,-0.800048828125,0.3963623046875,-297.0,149.0,-152.0,101700.0,-3.124000072479248,0,0
1.2955058999941684,0.372039794921875,-0.45245361328125,0.3111572265625,-0.748321533203125,-0.18310546875,-0.06103515625,0.0,0.44482421875,-0.802978515625,0.396484375,-297.0,149.0,-152.0,101700.0,-3.124000072479248,0,0
1.2955646999907913,0.372039794921875,-0.45245361328125,0.3111572265625,-0.748321533203125,-0.18310546875,-0.1220703125,-0.30517578125,0.446044921875,-0.8017578125,0.396728515625,-297.0,149.0,-152.0,101700.0,-3.124000072479248,0,0
1.295750399993267,0.372039794921875,-0.45245361328125,0.3111572265625,-0.748321533203125,0.1220703125,-0.06103515625,-0.06103515625,0.4447021484375,-0.80322265625,0.397216796875,-297.0,149.0,-152.0,101700.0,-3.124000072479248,0,0
1.295816300000297,0.372039794921875,-0.45245361328125,0.3111572265625,-0.748321533203125,-0.06103515625,-0.06103515625,0.1220703125,0.443115234375,-0.8016357421875,0.396484375,-297.0,149.0,-152.0,101700.0,-3.124000072479248,0,0
1.2958760999899823,0.372039794921875,-0.45245361328125,0.3111572265625,-0.748321533203125,0.1220703125,-0.18310546875,0.0,0.4454345703125,-0.8016357421875,0.396728515625,-297.0,149.0,-152.0,101700.0,-3.124000072479248,0,0
1.2959356999926968,0.372039794921875,-0.45245361328125,0.3111572265625,-0.748321533203125,0.1220703125,-0.18310546875,0.0,0.4454345703125,-0.8016357421875,0.396728515625,-297.0,149.0,-152.0,101700.0,-3.124000072479248,0,0
1.296008499994059,0.372039794921875,-0.45245361328125,0.3111572265625,-0.748321533203125,0.06103515625,0.1220703125,0.18310546875,0.446533203125,-0.8033447265625,0.398193359375,-297.0,149.0,-152.0,101701.0,-3.130000114440918,0,0
1.296067099989159,0.372039794921875,-0.45245361328125,0.3111572265625,-0.748321533203125,0.244140625,-0.06103515625,0.0,0.443115234375,-0.8035888671875,0.3973388671875,-297.0,148.0,-151.0,101701.0,-3.130000114440918,0,0
1.3636738999921363,0.371856689453125,-0.452362060546875,0.311279296875,-0.748443603515625,-0.06103515625,0.1220703125,-0.244140625,0.4464111328125,-0.8017578125,0.3980712890625,-297.0,148.0,-151.0,101701.0,-3.130000114440918,0,0
1.3637458000011975,0.371856689453125,-0.452362060546875,0.311279296875,-0.748443603515625,0.1220703125,-0.06103515625,-0.1220703125,0.4466552734375,-0.802001953125,0.396728515625,-297.0,148.0,-151.0,101701.0,-3.130000114440918,0,0
1.3638085999991745,0.371856689453125,-0.452362060546875,0.311279296875,-0.748443603515625,0.0,-0.18310546875,-0.06103515625,0.4449462890625,-0.80126953125,0.3966064453125,-297.0,148.0,-151.0,101701.0,-3.130000114440918,0,0
1.3638693999964744,0.371856689453125,-0.452362060546875,0.311279296875,-0.748443603515625,-0.1220703125,-0.18310546875,-0.30517578125,0.4442138671875,-0.799072265625,0.3966064453125,-297.0,148.0,-151.0,101701.0,-3.130000114440918,0,0
1.3639294000022346,0.371856689453125,-0.452362060546875,0.311279296875,-0.748443603515625,-0.1220703125,-0.18310546875,-0.30517578125,0.4442138671875,-0.799072265625,0.3966064453125,-297.0,148.0,-151.0,101701.0,-3.130000114440918,0,0
1.3683806999906665,0.371856689453125,-0.452362060546875,0.311279296875,-0.748443603515625,-0.18310546875,0.0,-0.06103515625,0.445068359375,-0.8009033203125,0.396484375,-297.0,148.0,-151.0,101701.0,-3.130000114440918,0,0
1.3684414000017568,0.371826171875,-0.452362060546875,0.311248779296875,-0.748443603515625,-0.06103515625,0.06103515625,-0.06103515625,0.44677734375,-0.7999267578125,0.395751953125,-297.0,148.0,-151.0,101701.0,-3.130000114440918,0,0
1.3685002999991411,0.371826171875,-0.452362060546875,0.311248779296875,-0.748443603515625,-0.06103515625,0.06103515625,-0.06103515625,0.44677734375,-0.7999267578125,0.395751953125,-297.0,148.0,-151.0,101701.0,-3.130000114440918,0,0
1.3685565999912797,0.371826171875,-0.452392578125,0.311248779296875,-0.748443603515625,-0.18310546875,0.0,0.0,0.4468994140625,-0.800537109375,0.3966064453125,-297.0,148.0,-151.0,101701.0,-3.130000114440918,0,0
1.36861510000017,0.371826171875,-0.452392578125,0.311248779296875,-0.748443603515625,0.1220703125,-0.1220703125,0.0,0.4464111328125,-0.8026123046875,0.39697265625,-297.0,148.0,-151.0,101701.0,-3.130000114440918,0,0
1.368672399999923,0.371826171875,-0.452392578125,0.311248779296875,-0.748443603515625,0.244140625,-0.30517578125,0.06103515625,0.4471435546875,-0.8026123046875,0.3975830078125,-297.0,148.0,-151.0,101701.0,-3.130000114440918,0,0
1.3687283999897772,0.371826171875,-0.452392578125,0.311248779296875,-0.748443603515625,0.0,-0.18310546875,-0.06103515625,0.4454345703125,-0.801025390625,0.39892578125,-297.0,148.0,-151.0,101701.0,-3.130000114440918,0,0
1.4200544999912381,0.371826171875,-0.452362060546875,0.311248779296875,-0.748443603515625,-0.1220703125,0.0,-0.06103515625,0.4443359375,-0.8018798828125,0.3992919921875,-297.0,148.0,-151.0,101701.0,-3.130000114440918,0,0
1.4201308999909088,0.371826171875,-0.452362060546875,0.311248779296875,-0.748443603515625,0.1220703125,0.06103515625,0.0,0.446044921875,-0.802734375,0.3975830078125,-297.0,148.0,-151.0,101701.0,-3.130000114440918,0,0
1.4201900999905774,0.371856689453125,-0.452362060546875,0.311248779296875,-0.748443603515625,-0.244140625,-0.30517578125,0.06103515625,0.4451904296875,-0.801025390625,0.3974609375,-297.0,148.0,-151.0,101701.0,-3.130000114440918,0,0
1.420246199995745,0.371856689453125,-0.452362060546875,0.311248779296875,-0.748443603515625,0.0,-0.06103515625,-0.1220703125,0.443359375,-0.8038330078125,0.3975830078125,-297.0,146.0,-150.0,101700.0,-3.124000072479248,0,0
1.4203134999988833,0.371856689453125,-0.452362060546875,0.311248779296875,-0.748443603515625,0.06103515625,-0.1220703125,-0.244140625,0.4453125,-0.8018798828125,0.3963623046875,-297.0,146.0,-150.0,101700.0,-3.124000072479248,0,0
1.4203670999995666,0.37164306640625,-0.4522705078125,0.311370849609375,-0.74853515625,0.1220703125,-0.1220703125,-0.1220703125,0.4466552734375,-0.8023681640625,0.3973388671875,-297.0,146.0,-150.0,101700.0,-3.124000072479248,0,0
1.4204210999887437,0.37164306640625,-0.4522705078125,0.311370849609375,-0.748565673828125,0.0,-0.1220703125,0.06103515625,0.4462890625,-0.8017578125,0.3983154296875,-297.0,146.0,-150.0,101700.0,-3.124000072479248,0,0
1.4204746999894269,0.37164306640625,-0.4522705078125,0.311370849609375,-0.748565673828125,0.06103515625,-0.06103515625,-0.06103515625,0.4451904296875,-0.8016357421875,0.3966064453125,-297.0,146.0,-150.0,101700.0,-3.124000072479248,0,0
1.42052829999011,0.37164306640625,-0.4522705078125,0.311370849609375,-0.748565673828125,0.0,0.1220703125,-0.18310546875,0.4442138671875,-0.8006591796875,0.396484375,-297.0,146.0,-150.0,101700.0,-3.124000072479248,0,0
1.4205805999954464,0.37164306640625,-0.4522705078125,0.311370849609375,-0.748565673828125,0.0,0.1220703125,-0.18310546875,0.4442138671875,-0.8006591796875,0.396484375,-297.0,146.0,-150.0,101700.0,-3.124000072479248,0,0
1.4206329000007827,0.37164306640625,-0.4522705078125,0.311370849609375,-0.74853515625,0.0,-0.244140625,0.1220703125,0.4442138671875,-0.8028564453125,0.3958740234375,-297.0,146.0,-150.0,101700.0,-3.124000072479248,0,0
1.4864588999917032,0.37164306640625,-0.4522705078125,0.311370849609375,-0.74853515625,0.18310546875,0.0,0.0,0.4464111328125,-0.8016357421875,0.3955078125,-297.0,146.0,-150.0,101700.0,-3.124000072479248,0,0
1.4865288000000874,0.37164306640625,-0.4522705078125,0.311370849609375,-0.74853515625,0.0,-0.244140625,-0.1220703125,0.4462890625,-0.80078125,0.395263671875,-297.0,146.0,-150.0,101700.0,-3.124000072479248,0,0
1.486587999999756,0.37164306640625,-0.4522705078125,0.311370849609375,-0.74853515625,-0.1220703125,0.0,-0.1220703125,0.4451904296875,-0.8035888671875,0.3975830078125,-297.0,146.0,-150.0,101700.0,-3.124000072479248,0,0
1.4881827999925008,0.37164306640625,-0.4522705078125,0.311370849609375,-0.74853515625,0.1220703125,-0.1220703125,0.0,0.4454345703125,-0.8013916015625,0.3974609375,-297.0,146.0,-150.0,101700.0,-3.124000072479248,0,0
1.488262400001986,0.37164306640625,-0.4522705078125,0.311370849609375,-0.74853515625,-0.18310546875,-0.244140625,-0.06103515625,0.444091796875,-0.8023681640625,0.39453125,-297.0,146.0,-150.0,101700.0,-3.124000072479248,0,0
1.48832279999624,0.37164306640625,-0.4522705078125,0.311370849609375,-0.74853515625,0.1220703125,0.06103515625,-0.06103515625,0.4439697265625,-0.8011474609375,0.39599609375,-297.0,146.0,-150.0,101700.0,-3.124000072479248,0,0
1.4883924000023399,0.37164306640625,-0.4522705078125,0.311370849609375,-0.74853515625,0.42724609375,0.06103515625,-0.06103515625,0.445556640625,-0.802490234375,0.3958740234375,-297.0,146.0,-150.0,101700.0,-3.124000072479248,0,0
1.488448599993717,0.37164306640625,-0.4522705078125,0.311370849609375,-0.74853515625,0.0,0.0,-0.06103515625,0.445556640625,-0.8018798828125,0.396484375,-297.0,146.0,-150.0,101700.0,-3.124000072479248,0,0
1.4885024999966845,0.37164306640625,-0.4522705078125,0.311370849609375,-0.74853515625,0.0,0.0,-0.06103515625,0.445556640625,-0.8018798828125,0.396484375,-297.0,146.0,-150.0,101700.0,-3.124000072479248,0,0
1.4885572999919532,0.37164306640625,-0.4522705078125,0.311370849609375,-0.74853515625,0.0,-0.244140625,-0.244140625,0.447021484375,-0.802001953125,0.3978271484375,-297.0,146.0,-150.0,101700.0,-3.124000072479248,0,0
1.4886111999949208,0.37164306640625,-0.452301025390625,0.311370849609375,-0.74853515625,0.0,-0.1220703125,0.06103515625,0.4449462890625,-0.8016357421875,0.3955078125,-297.0,146.0,-150.0,101700.0,-3.124000072479248,0,0
1.4886665999947581,0.37164306640625,-0.452301025390625,0.311370849609375,-0.74853515625,0.0,0.1220703125,0.0,0.4466552734375,-0.802490234375,0.3956298828125,-297.0,146.0,-150.0,101700.0,-3.124000072479248,0,0
1.4887201999954414,0.37164306640625,-0.452301025390625,0.311370849609375,-0.74853515625,-0.244140625,-0.06103515625,0.18310546875,0.445068359375,-0.80126953125,0.396240234375,-297.0,146.0,-150.0,101700.0,-3.124000072479248,0,0
1.5506575999897905,0.371551513671875,-0.4522705078125,0.31146240234375,-0.748565673828125,-0.18310546875,0.0,-0.1220703125,0.4437255859375,-0.80224609375,0.39501953125,-297.0,145.0,-150.0,101701.0,-3.130000114440918,0,0
1.5507225999899674,0.371551513671875,-0.4522705078125,0.31146240234375,-0.748565673828125,0.0,0.06103515625,-0.18310546875,0.4451904296875,-0.8011474609375,0.3948974609375,-297.0,145.0,-150.0,101701.0,-3.130000114440918,0,0
1.550781799989636,0.371551513671875,-0.4522705078125,0.31146240234375,-0.748565673828125,0.0,0.06103515625,-0.18310546875,0.4451904296875,-0.8011474609375,0.3948974609375,-297.0,145.0,-150.0,101701.0,-3.130000114440918,0,0
1.550834699999541,0.37152099609375,-0.4522705078125,0.31146240234375,-0.748565673828125,-0.18310546875,-0.06103515625,0.0,0.4454345703125,-0.8031005859375,0.3936767578125,-297.0,145.0,-150.0,101701.0,-3.130000114440918,0,0
1.550904299991089,0.37152099609375,-0.4522705078125,0.31146240234375,-0.748565673828125,0.3662109375,-0.244140625,-0.1220703125,0.44580078125,-0.8016357421875,0.3944091796875,-297.0,145.0,-150.0,101701.0,-3.130000114440918,0,0
1.5509591000009095,0.37152099609375,-0.452301025390625,0.31146240234375,-0.748565673828125,0.0,-0.1220703125,-0.1220703125,0.4459228515625,-0.799560546875,0.39501953125,-297.0,145.0,-150.0,101701.0,-3.130000114440918,0,0
1.5510154999938095,0.37152099609375,-0.452301025390625,0.31146240234375,-0.748565673828125,0.0,-0.30517578125,-0.06103515625,0.446533203125,-0.80078125,0.39404296875,-297.0,145.0,-150.0,101701.0,-3.130000114440918,0,0
1.5510742999904323,0.37152099609375,-0.452301025390625,0.31146240234375,-0.748565673828125,0.18310546875,-0.06103515625,0.0,0.444580078125,-0.8009033203125,0.39404296875,-297.0,145.0,-150.0,101701.0,-3.130000114440918,0,0
1.5511304999963613,0.37152099609375,-0.452301025390625,0.31146240234375,-0.748565673828125,0.0,0.06103515625,-0.1220703125,0.4451904296875,-0.802734375,0.3946533203125,-297.0,145.0,-150.0,101701.0,-3.130000114440918,0,0
1.5514681999920867,0.37152099609375,-0.452301025390625,0.31146240234375,-0.74853515625,-0.18310546875,-0.06103515625,-0.30517578125,0.4464111328125,-0.8006591796875,0.3939208984375,-297.0,145.0,-150.0,101701.0,-3.130000114440918,0,0
1.551536999992095,0.37152099609375,-0.452301025390625,0.31146240234375,-0.74853515625,0.0,-0.18310546875,0.06103515625,0.4454345703125,-0.8018798828125,0.3953857421875,-297.0,145.0,-150.0,101701.0,-3.130000114440918,0,0
1.6157319999911124,0.37152099609375,-0.45233154296875,0.31146240234375,-0.74853515625,0.0,-0.06103515625,0.0,0.4456787109375,-0.802490234375,0.39453125,-297.0,145.0,-150.0,101701.0,-3.130000114440918,0,0
1.6157957999967039,0.37152099609375,-0.45233154296875,0.311492919921875,-0.74853515625,0.1220703125,-0.06103515625,0.0,0.44384765625,-0.801513671875,0.39501953125,-297.0,145.0,-150.0,101701.0,-3.130000114440918,0,0
1.6158532999979798,0.37152099609375,-0.45233154296875,0.311492919921875,-0.74853515625,-0.1220703125,0.06103515625,-0.1220703125,0.4449462890625,-0.8006591796875,0.396240234375,-297.0,145.0,-150.0,101701.0,-3.130000114440918,0,0
1.61590889999934,0.37152099609375,-0.45233154296875,0.311492919921875,-0.74853515625,-0.06103515625,-0.1220703125,-0.244140625,0.4443359375,-0.802001953125,0.3939208984375,-297.0,145.0,-150.0,101701.0,-3.130000114440918,0,0
1.61596309999004,0.37152099609375,-0.45233154296875,0.311492919921875,-0.74853515625,0.06103515625,0.06103515625,0.244140625,0.4459228515625,-0.802001953125,0.395263671875,-297.0,145.0,-150.0,101701.0,-3.130000114440918,0,0
1.617352100001881,0.37152099609375,-0.45233154296875,0.311492919921875,-0.74853515625,0.06103515625,0.06103515625,0.244140625,0.4459228515625,-0.802001953125,0.395263671875,-296.0,147.0,-149.0,101701.0,-3.126000165939331,0,0
1.6174079999909736,0.37152099609375,-0.45233154296875,0.311492919921875,-0.74853515625,0.1220703125,-0.06103515625,0.0,0.444580078125,-0.80078125,0.3934326171875,-296.0,147.0,-149.0,101701.0,-3.126000165939331,0,0
1.617463399990811,0.371612548828125,-0.452392578125,0.311431884765625,-0.74847412109375,-0.1220703125,0.06103515625,-0.06103515625,0.4449462890625,-0.8006591796875,0.3924560546875,-296.0,147.0,-149.0,101701.0,-3.126000165939331,0,0
1.617519799998263,0.371612548828125,-0.452392578125,0.311431884765625,-0.74847412109375,-0.1220703125,0.06103515625,-0.06103515625,0.4449462890625,-0.8006591796875,0.3924560546875,-296.0,147.0,-149.0,101701.0,-3.126000165939331,0,0
1.6175734999997076,0.371612548828125,-0.452392578125,0.311431884765625,-0.74847412109375,0.0,-0.1220703125,-0.1220703125,0.4442138671875,-0.8011474609375,0.393798828125,-296.0,147.0,-149.0,101701.0,-3.126000165939331,0,0
1.617628899999545,0.371612548828125,-0.452392578125,0.311431884765625,-0.74847412109375,-0.244140625,-0.1220703125,-0.1220703125,0.4423828125,-0.80078125,0.3939208984375,-296.0,147.0,-149.0,101701.0,-3.126000165939331,0,0
1.6868036999949254,0.371612548828125,-0.452392578125,0.31146240234375,-0.748443603515625,0.0,-0.18310546875,-0.18310546875,0.4447021484375,-0.7994384765625,0.3936767578125,-296.0,147.0,-149.0,101701.0,-3.126000165939331,0,0
1.686870599995018,0.371612548828125,-0.452423095703125,0.31146240234375,-0.748443603515625,-0.06103515625,-0.06103515625,-0.30517578125,0.4442138671875,-0.8021240234375,0.39306640625,-296.0,147.0,-149.0,101701.0,-3.126000165939331,0,0
1.6869315999938408,0.371612548828125,-0.452423095703125,0.31146240234375,-0.748443603515625,0.06103515625,0.0,-0.1220703125,0.4471435546875,-0.802490234375,0.393798828125,-296.0,147.0,-149.0,101701.0,-3.126000165939331,0,0
1.6869907999935094,0.371612548828125,-0.452423095703125,0.31146240234375,-0.748443603515625,-0.18310546875,0.0,-0.1220703125,0.4437255859375,-0.8018798828125,0.392333984375,-296.0,147.0,-149.0,101701.0,-3.126000165939331,0,0
1.687048899999354,0.371612548828125,-0.452423095703125,0.31146240234375,-0.748443603515625,0.1220703125,-0.1220703125,0.06103515625,0.444091796875,-0.8016357421875,0.3958740234375,-296.0,147.0,-149.0,101701.0,-3.126000165939331,0,0
1.68710640000063,0.37158203125,-0.452423095703125,0.311492919921875,-0.748443603515625,0.1220703125,-0.1220703125,-0.244140625,0.446044921875,-0.80224609375,0.3924560546875,-296.0,147.0,-149.0,101701.0,-3.126000165939331,0,0
1.6871968999912497,0.37158203125,-0.452423095703125,0.311492919921875,-0.748443603515625,0.1220703125,-0.1220703125,-0.244140625,0.446044921875,-0.80224609375,0.3924560546875,-296.0,147.0,-149.0,101701.0,-3.126000165939331,0,0
1.6872550999978557,0.37158203125,-0.45245361328125,0.311492919921875,-0.7484130859375,0.0,0.0,0.0,0.4462890625,-0.7999267578125,0.392822265625,-296.0,147.0,-149.0,101701.0,-3.126000165939331,0,0
1.6873112999892328,0.37158203125,-0.45245361328125,0.311492919921875,-0.7484130859375,-0.18310546875,-0.1220703125,0.1220703125,0.44482421875,-0.8017578125,0.3935546875,-296.0,147.0,-149.0,101701.0,-3.126000165939331,0,0
1.6873703000019304,0.37158203125,-0.45245361328125,0.311492919921875,-0.7484130859375,-0.06103515625,-0.244140625,0.06103515625,0.4462890625,-0.80126953125,0.3929443359375,-296.0,147.0,-149.0,101701.0,-3.126000165939331,0,0
1.6874264999933075,0.37158203125,-0.452484130859375,0.311492919921875,-0.7484130859375,-0.18310546875,0.0,-0.06103515625,0.4464111328125,-0.80224609375,0.3914794921875,-296.0,147.0,-149.0,101701.0,-3.126000165939331,0,0
1.6874837999930605,0.37158203125,-0.452484130859375,0.311492919921875,-0.7484130859375,0.18310546875,0.06103515625,-0.06103515625,0.4442138671875,-0.8021240234375,0.3924560546875,-296.0,147.0,-149.0,101701.0,-3.126000165939331,0,0
1.6875403000012739,0.371551513671875,-0.452484130859375,0.311492919921875,-0.748382568359375,0.244140625,0.1220703125,-0.06103515625,0.4478759765625,-0.802490234375,0.3924560546875,-296.0,147.0,-149.0,101701.0,-3.126000165939331,0,0
1.741354899990256,0.371551513671875,-0.4525146484375,0.3115234375,-0.748382568359375,0.0,-0.244140625,0.06103515625,0.44384765625,-0.803466796875,0.39501953125,-294.0,147.0,-148.0,101701.0,-3.128000259399414,0,0
1.7414336999936495,0.371551513671875,-0.4525146484375,0.3115234375,-0.748382568359375,0.0,-0.244140625,0.06103515625,0.44384765625,-0.803466796875,0.39501953125,-294.0,147.0,-148.0,101701.0,-3.128000259399414,0,0
1.7414948999939952,0.371551513671875,-0.4525146484375,0.311553955078125,-0.74835205078125,0.244140625,-0.244140625,0.0,0.444091796875,-0.8021240234375,0.392578125,-294.0,147.0,-148.0,101701.0,-3.128000259399414,0,0
1.7415555999905337,0.371551513671875,-0.452545166015625,0.311553955078125,-0.74835205078125,0.06103515625,-0.18310546875,-0.18310546875,0.4461669921875,-0.802001953125,0.3935546875,-294.0,147.0,-148.0,101701.0,-3.128000259399414,0,0
1.7416138999979012,0.371551513671875,-0.452545166015625,0.311553955078125,-0.74835205078125,0.30517578125,0.0,-0.18310546875,0.4432373046875,-0.802490234375,0.393310546875,-294.0,147.0,-148.0,101701.0,-3.128000259399414,0,0
1.741734399998677,0.371551513671875,-0.452545166015625,0.311553955078125,-0.74835205078125,0.06103515625,0.0,0.0,0.445068359375,-0.8021240234375,0.392578125,-294.0,147.0,-148.0,101701.0,-3.128000259399414,0,0
1.741792999993777,0.371551513671875,-0.452545166015625,0.311553955078125,-0.74835205078125,0.1220703125,-0.06103515625,-0.1220703125,0.4459228515625,-0.8031005859375,0.3924560546875,-294.0,147.0,-148.0,101701.0,-3.128000259399414,0,0
1.7418496000027517,0.371551513671875,-0.45257568359375,0.31158447265625,-0.748321533203125,0.06103515625,-0.1220703125,-0.06103515625,0.44482421875,-0.8013916015625,0.39208984375,-294.0,147.0,-148.0,101701.0,-3.128000259399414,0,0
1.7419081999978516,0.371551513671875,-0.45257568359375,0.31158447265625,-0.748321533203125,0.0,-0.30517578125,-0.1220703125,0.4456787109375,-0.80224609375,0.3927001953125,-294.0,147.0,-148.0,101701.0,-3.128000259399414,0,0
1.7419640000007348,0.371551513671875,-0.45257568359375,0.31158447265625,-0.748321533203125,0.1220703125,0.18310546875,-0.06103515625,0.444580078125,-0.8023681640625,0.391357421875,-294.0,147.0,-148.0,101701.0,-3.128000259399414,0,0
1.7420205999951577,0.371551513671875,-0.45257568359375,0.31158447265625,-0.748321533203125,0.1220703125,0.18310546875,-0.06103515625,0.444580078125,-0.8023681640625,0.391357421875,-294.0,147.0,-148.0,101701.0,-3.128000259399414,0,0
1.809603200003039,0.371551513671875,-0.452606201171875,0.311614990234375,-0.748291015625,0.1220703125,0.1220703125,0.06103515625,0.443115234375,-0.8009033203125,0.3929443359375,-294.0,147.0,-148.0,101701.0,-3.128000259399414,0,0
1.809666000001016,0.37152099609375,-0.452606201171875,0.311614990234375,-0.748291015625,0.06103515625,-0.1220703125,0.06103515625,0.4464111328125,-0.80126953125,0.392333984375,-294.0,147.0,-148.0,101701.0,-3.128000259399414,0,0
1.8097246999968775,0.37152099609375,-0.452606201171875,0.311614990234375,-0.748291015625,0.06103515625,0.06103515625,0.0,0.447265625,-0.802001953125,0.395263671875,-294.0,147.0,-148.0,101701.0,-3.128000259399414,0,0
1.8097821999981534,0.37152099609375,-0.45263671875,0.311614990234375,-0.748291015625,-0.06103515625,-0.06103515625,-0.30517578125,0.445068359375,-0.802490234375,0.3929443359375,-294.0,147.0,-148.0,101701.0,-3.128000259399414,0,0
1.8098398000001907,0.37152099609375,-0.45263671875,0.311614990234375,-0.748291015625,0.1220703125,-0.06103515625,0.06103515625,0.4459228515625,-0.8009033203125,0.3948974609375,-294.0,147.0,-148.0,101701.0,-3.128000259399414,0,0
1.8148670999944443,0.37152099609375,-0.45263671875,0.311614990234375,-0.748291015625,0.1220703125,-0.06103515625,-0.18310546875,0.444580078125,-0.802001953125,0.39501953125,-294.0,147.0,-148.0,101701.0,-3.128000259399414,0,0
1.8149301999947056,0.37152099609375,-0.45263671875,0.311614990234375,-0.748291015625,-0.06103515625,-0.1220703125,0.1220703125,0.4464111328125,-0.80126953125,0.3948974609375,-294.0,147.0,-148.0,101701.0,-3.128000259399414,0,0
1.8149876999959815,0.37152099609375,-0.45263671875,0.311614990234375,-0.748291015625,-0.06103515625,-0.1220703125,0.1220703125,0.4464111328125,-0.80126953125,0.3948974609375,-294.0,147.0,-148.0,101701.0,-3.128000259399414,0,0
1.815048199990997,0.37152099609375,-0.45263671875,0.311614990234375,-0.748291015625,-0.1220703125,0.0,0.1220703125,0.4456787109375,-0.80126953125,0.395751953125,-293.0,148.0,-150.0,101701.0,-3.128000259399414,0,0
1.815104599998449,0.3712158203125,-0.4525146484375,0.311798095703125,-0.748443603515625,0.1220703125,0.0,0.1220703125,0.444091796875,-0.802001953125,0.39306640625,-293.0,148.0,-150.0,101701.0,-3.128000259399414,0,0
1.8155887000029907,0.3712158203125,-0.4525146484375,0.311798095703125,-0.748443603515625,0.0,0.0,-0.1220703125,0.4447021484375,-0.8006591796875,0.3948974609375,-293.0,148.0,-150.0,101701.0,-3.128000259399414,0,0
1.871349699998973,0.3712158203125,-0.4525146484375,0.311798095703125,-0.748443603515625,-0.6103515625,0.0,-0.06103515625,0.4447021484375,-0.799560546875,0.39404296875,-293.0,148.0,-150.0,101701.0,-3.128000259399414,0,0
1.871417799993651,0.3712158203125,-0.4525146484375,0.311798095703125,-0.7484130859375,0.1220703125,-0.1220703125,-0.30517578125,0.4449462890625,-0.800537109375,0.39306640625,-293.0,148.0,-150.0,101701.0,-3.128000259399414,0,0
1.8714793999970425,0.3712158203125,-0.4525146484375,0.31182861328125,-0.7484130859375,0.18310546875,-0.244140625,0.06103515625,0.44580078125,-0.8033447265625,0.394287109375,-293.0,148.0,-150.0,101701.0,-3.128000259399414,0,0
1.8715372000006028,0.3712158203125,-0.452545166015625,0.31182861328125,-0.7484130859375,0.0,-0.244140625,0.06103515625,0.4451904296875,-0.803955078125,0.394287109375,-293.0,148.0,-150.0,101701.0,-3.128000259399414,0,0
1.8715947000018787,0.3712158203125,-0.452545166015625,0.31182861328125,-0.7484130859375,0.1220703125,0.18310546875,0.06103515625,0.4447021484375,-0.800537109375,0.3934326171875,-293.0,148.0,-150.0,101701.0,-3.128000259399414,0,0
1.871651399997063,0.3712158203125,-0.452545166015625,0.31182861328125,-0.7484130859375,0.1220703125,0.18310546875,0.06103515625,0.4447021484375,-0.800537109375,0.3934326171875,-293.0,148.0,-150.0,101701.0,-3.128000259399414,0,0
1.8732958999898983,0.3712158203125,-0.452545166015625,0.31182861328125,-0.7484130859375,0.06103515625,-0.30517578125,-0.18310546875,0.4462890625,-0.8037109375,0.3934326171875,-293.0,148.0,-150.0,101701.0,-3.128000259399414,0,0
1.8733712999965064,0.3712158203125,-0.452545166015625,0.31182861328125,-0.7484130859375,0.06103515625,-0.06103515625,-0.1220703125,0.4442138671875,-0.8021240234375,0.394775390625,-293.0,148.0,-150.0,101701.0,-3.128000259399414,0,0
1.873431799991522,0.3712158203125,-0.452545166015625,0.31182861328125,-0.7484130859375,-0.1220703125,-0.18310546875,-0.244140625,0.4453125,-0.7989501953125,0.3956298828125,-293.0,148.0,-150.0,101701.0,-3.128000259399414,0,0
1.8734905000019353,0.3712158203125,-0.452545166015625,0.31182861328125,-0.7484130859375,0.244140625,-0.48828125,-0.06103515625,0.444580078125,-0.8021240234375,0.3948974609375,-293.0,148.0,-150.0,101701.0,-3.128000259399414,0,0
1.8735466999933124,0.3712158203125,-0.452545166015625,0.31182861328125,-0.7484130859375,0.0,0.06103515625,0.18310546875,0.444580078125,-0.8018798828125,0.3966064453125,-293.0,148.0,-150.0,101701.0,-3.128000259399414,0,0
1.873605699991458,0.3712158203125,-0.452545166015625,0.31182861328125,-0.7484130859375,-0.06103515625,-0.18310546875,-0.1220703125,0.4459228515625,-0.8023681640625,0.39501953125,-293.0,148.0,-150.0,101701.0,-3.128000259399414,0,0
1.8736624000011943,0.3712158203125,-0.452545166015625,0.31182861328125,-0.7484130859375,0.1220703125,-0.1220703125,-0.1220703125,0.4461669921875,-0.80322265625,0.392822265625,-293.0,148.0,-150.0,101701.0,-3.128000259399414,0,0
1.9357223999977577,0.3712158203125,-0.452545166015625,0.311859130859375,-0.7484130859375,0.244140625,-0.06103515625,0.06103515625,0.4449462890625,-0.80224609375,0.3948974609375,-293.0,148.0,-150.0,101701.0,-3.128000259399414,0,0
1.9357978999905754,0.3712158203125,-0.452545166015625,0.311859130859375,-0.748382568359375,0.0,-0.1220703125,-0.06103515625,0.445068359375,-0.8016357421875,0.3961181640625,-293.0,148.0,-150.0,101701.0,-3.127000093460083,0,0
1.9358608999900753,0.3712158203125,-0.452545166015625,0.31182861328125,-0.748382568359375,0.244140625,0.0,-0.06103515625,0.4473876953125,-0.80126953125,0.3953857421875,-294.0,148.0,-149.0,101701.0,-3.127000093460083,0,0
1.935921899988898,0.37109375,-0.4525146484375,0.311920166015625,-0.748443603515625,-0.1220703125,-0.3662109375,-0.244140625,0.4447021484375,-0.8026123046875,0.3956298828125,-294.0,148.0,-149.0,101701.0,-3.127000093460083,0,0
1.9359819999954198,0.37109375,-0.4525146484375,0.3118896484375,-0.748443603515625,-0.1220703125,0.06103515625,0.0,0.4459228515625,-0.802001953125,0.3953857421875,-294.0,148.0,-149.0,101701.0,-3.127000093460083,0,0
1.9360567999974592,0.37109375,-0.4525146484375,0.3118896484375,-0.748443603515625,-0.1220703125,0.1220703125,0.0,0.4462890625,-0.8001708984375,0.39404296875,-294.0,148.0,-149.0,101701.0,-3.127000093460083,0,0
1.9361829999979818,0.37109375,-0.4525146484375,0.311920166015625,-0.748443603515625,0.244140625,-0.244140625,-0.18310546875,0.444091796875,-0.800537109375,0.3941650390625,-294.0,148.0,-149.0,101701.0,-3.127000093460083,0,0
1.9362723999947775,0.37109375,-0.4525146484375,0.3118896484375,-0.748443603515625,0.06103515625,-0.1220703125,-0.244140625,0.4464111328125,-0.8009033203125,0.3944091796875,-294.0,148.0,-149.0,101701.0,-3.127000093460083,0,0
1.9363386999903014,0.37109375,-0.4525146484375,0.3118896484375,-0.748443603515625,0.0,-0.1220703125,-0.06103515625,0.447265625,-0.7999267578125,0.3927001953125,-294.0,148.0,-149.0,101701.0,-3.127000093460083,0,0
1.9363981999922544,0.37109375,-0.4525146484375,0.3118896484375,-0.748443603515625,0.0,-0.1220703125,-0.06103515625,0.447265625,-0.7999267578125,0.3927001953125,-294.0,148.0,-149.0,101701.0,-3.127000093460083,0,0
1.9364564999996219,0.37109375,-0.452545166015625,0.311920166015625,-0.748443603515625,0.1220703125,0.06103515625,0.06103515625,0.445556640625,-0.802490234375,0.394287109375,-294.0,148.0,-149.0,101701.0,-3.127000093460083,0,0
1.9952591999899596,0.37109375,-0.452545166015625,0.311920166015625,-0.7484130859375,-0.06103515625,0.18310546875,0.244140625,0.4451904296875,-0.8026123046875,0.39404296875,-294.0,148.0,-149.0,101701.0,-3.127000093460083,0,0
1.9953252999985125,0.37109375,-0.452545166015625,0.311920166015625,-0.7484130859375,0.1220703125,-0.06103515625,0.0,0.4454345703125,-0.8026123046875,0.39404296875,-294.0,148.0,-149.0,101701.0,-3.127000093460083,0,0
1.9953858999942895,0.37109375,-0.452545166015625,0.311920166015625,-0.7484130859375,0.30517578125,0.0,0.18310546875,0.4468994140625,-0.80078125,0.3956298828125,-294.0,148.0,-149.0,101701.0,-3.127000093460083,0,0
1.995444200001657,0.37109375,-0.452545166015625,0.311920166015625,-0.7484130859375,0.18310546875,-0.06103515625,-0.30517578125,0.444580078125,-0.8018798828125,0.3939208984375,-294.0,148.0,-149.0,101701.0,-3.127000093460083,0,0
1.9955050999997184,0.37109375,-0.45257568359375,0.311920166015625,-0.7484130859375,-0.06103515625,0.06103515625,0.1220703125,0.44580078125,-0.8017578125,0.3953857421875,-294.0,148.0,-149.0,101701.0,-3.127000093460083,0,0
1.995970199990552,0.37109375,-0.45257568359375,0.311920166015625,-0.7484130859375,-0.06103515625,-0.06103515625,-0.30517578125,0.44482421875,-0.8023681640625,0.395263671875,-294.0,148.0,-149.0,101701.0,-3.127000093460083,0,0
1.996034800002235,0.37109375,-0.45257568359375,0.311920166015625,-0.7484130859375,-0.06103515625,-0.06103515625,-0.30517578125,0.44482421875,-0.8023681640625,0.395263671875,-294.0,148.0,-149.0,101701.0,-3.127000093460083,0,0
1.9960929999942891,0.37109375,-0.45257568359375,0.311920166015625,-0.7484130859375,0.06103515625,-0.06103515625,-0.06103515625,0.4478759765625,-0.80322265625,0.395263671875,-294.0,148.0,-149.0,101701.0,-3.127000093460083,0,0
1.9961490999994567,0.37109375,-0.45257568359375,0.311920166015625,-0.7484130859375,0.06103515625,-0.1220703125,0.18310546875,0.4439697265625,-0.8009033203125,0.394775390625,-294.0,148.0,-149.0,101701.0,-3.127000093460083,0,0
1.9962058999954024,0.37109375,-0.45257568359375,0.311920166015625,-0.7484130859375,0.06103515625,-0.1220703125,0.18310546875,0.4439697265625,-0.8009033203125,0.394775390625,-294.0,147.0,-149.0,101701.0,-3.128000259399414,0,0
1.9962611999944784,0.3709716796875,-0.4525146484375,0.311981201171875,-0.74847412109375,0.18310546875,-0.1220703125,-0.1220703125,0.4444580078125,-0.8016357421875,0.395263671875,-294.0,147.0,-149.0,101701.0,-3.128000259399414,0,0
2.0606005000008736,0.3709716796875,-0.4525146484375,0.311981201171875,-0.74847412109375,-0.06103515625,0.1220703125,-0.06103515625,0.4444580078125,-0.800048828125,0.3939208984375,-294.0,147.0,-149.0,101701.0,-3.128000259399414,0,0
2.0606641999911517,0.3709716796875,-0.452545166015625,0.311981201171875,-0.74847412109375,0.0,0.06103515625,-0.06103515625,0.446533203125,-0.80126953125,0.3941650390625,-294.0,147.0,-149.0,101701.0,-3.128000259399414,0,0
2.060720699999365,0.3709716796875,-0.452545166015625,0.31201171875,-0.748443603515625,-0.1220703125,-0.18310546875,-0.06103515625,0.4471435546875,-0.8037109375,0.3946533203125,-294.0,147.0,-149.0,101701.0,-3.128000259399414,0,0
2.060775599995395,0.3709716796875,-0.452545166015625,0.31201171875,-0.748443603515625,-0.1220703125,-0.06103515625,-0.06103515625,0.4456787109375,-0.802978515625,0.3956298828125,-294.0,147.0,-149.0,101701.0,-3.128000259399414,0,0
2.0608291999960784,0.3709716796875,-0.452545166015625,0.31201171875,-0.748443603515625,-0.1220703125,-0.06103515625,-0.06103515625,0.4456787109375,-0.802978515625,0.3956298828125,-294.0,147.0,-149.0,101701.0,-3.128000259399414,0,0
2.060881799989147,0.371002197265625,-0.4525146484375,0.31201171875,-0.748443603515625,0.48828125,-0.1220703125,-0.1220703125,0.4443359375,-0.80224609375,0.3939208984375,-294.0,147.0,-149.0,101701.0,-3.128000259399414,0,0
2.060936399997445,0.371002197265625,-0.4525146484375,0.31201171875,-0.748443603515625,0.0,0.1220703125,0.18310546875,0.4444580078125,-0.802978515625,0.39404296875,-294.0,147.0,-149.0,101701.0,-3.128000259399414,0,0
2.0617098999937298,0.3709716796875,-0.452545166015625,0.31201171875,-0.748443603515625,0.18310546875,-0.30517578125,-0.18310546875,0.4453125,-0.8016357421875,0.394775390625,-294.0,147.0,-149.0,101701.0,-3.128000259399414,0,0
2.0617723999894224,0.3709716796875,-0.452545166015625,0.31201171875,-0.748443603515625,0.1220703125,-0.1220703125,-0.18310546875,0.447265625,-0.800537109375,0.39501953125,-294.0,147.0,-149.0,101701.0,-3.128000259399414,0,0
2.0618267999961972,0.3709716796875,-0.452545166015625,0.31201171875,-0.748443603515625,0.18310546875,-0.1220703125,-0.1220703125,0.4454345703125,-0.8023681640625,0.3941650390625,-294.0,147.0,-149.0,101701.0,-3.128000259399414,0,0
2.061882099995273,0.3709716796875,-0.452545166015625,0.31201171875,-0.748443603515625,-0.06103515625,0.1220703125,-0.06103515625,0.447021484375,-0.803466796875,0.39501953125,-294.0,147.0,-149.0,101701.0,-3.128000259399414,0,0
2.0619409999926575,0.3709716796875,-0.452545166015625,0.31201171875,-0.748443603515625,-0.244140625,-0.06103515625,0.06103515625,0.446044921875,-0.80322265625,0.39453125,-294.0,147.0,-149.0,101701.0,-3.128000259399414,0,0
2.0619937000010395,0.3709716796875,-0.452545166015625,0.31201171875,-0.748443603515625,-0.1220703125,-0.1220703125,0.18310546875,0.4473876953125,-0.802490234375,0.3944091796875,-294.0,147.0,-149.0,101701.0,-3.128000259399414,0,0
2.1261255999997957,0.3709716796875,-0.452545166015625,0.31201171875,-0.748443603515625,0.244140625,-0.1220703125,-0.06103515625,0.446533203125,-0.80322265625,0.396240234375,-294.0,147.0,-149.0,101701.0,-3.128000259399414,0,0
2.126190900002257,0.3709716796875,-0.452545166015625,0.31201171875,-0.748443603515625,0.244140625,-0.06103515625,-0.06103515625,0.446044921875,-0.803955078125,0.396240234375,-294.0,147.0,-149.0,101701.0,-3.128000259399414,0,0
2.1262495999981184,0.3709716796875,-0.452545166015625,0.31201171875,-0.748443603515625,-0.06103515625,0.06103515625,0.0,0.4468994140625,-0.8023681640625,0.3955078125,-294.0,147.0,-149.0,101701.0,-3.128000259399414,0,0
2.1263037999888184,0.3709716796875,-0.452545166015625,0.31201171875,-0.748443603515625,-0.06103515625,0.0,-0.1220703125,0.444091796875,-0.801025390625,0.396484375,-294.0,147.0,-149.0,101701.0,-3.127000093460083,0,0
2.1263562999956775,0.3709716796875,-0.452545166015625,0.31201171875,-0.748443603515625,0.1220703125,-0.06103515625,-0.06103515625,0.445556640625,-0.800048828125,0.3934326171875,-295.0,147.0,-148.0,101701.0,-3.127000093460083,0,0
2.1272475000005215,0.3709716796875,-0.452545166015625,0.31201171875,-0.748443603515625,0.244140625,-0.1220703125,-0.18310546875,0.44580078125,-0.802001953125,0.394775390625,-295.0,147.0,-148.0,101701.0,-3.127000093460083,0,0
2.1273131999914767,0.3709716796875,-0.452545166015625,0.31201171875,-0.748443603515625,-0.244140625,-0.30517578125,0.0,0.4453125,-0.801513671875,0.393798828125,-295.0,147.0,-148.0,101701.0,-3.127000093460083,0,0
2.1274671999999555,0.3709716796875,-0.45257568359375,0.31201171875,-0.748443603515625,0.06103515625,0.18310546875,0.06103515625,0.445068359375,-0.80078125,0.3934326171875,-295.0,147.0,-148.0,101701.0,-3.127000093460083,0,0
2.127563199988799,0.3709716796875,-0.45257568359375,0.31201171875,-0.748443603515625,0.06103515625,0.18310546875,0.06103515625,0.445068359375,-0.80078125,0.3934326171875,-295.0,147.0,-148.0,101701.0,-3.127000093460083,0,0
2.1276408999983687,0.3709716796875,-0.45257568359375,0.31201171875,-0.748443603515625,-0.244140625,-0.1220703125,-0.06103515625,0.4456787109375,-0.8011474609375,0.3951416015625,-295.0,147.0,-148.0,101701.0,-3.127000093460083,0,0
2.1277785999991465,0.3709716796875,-0.45257568359375,0.31201171875,-0.748443603515625,0.30517578125,-0.06103515625,0.1220703125,0.4461669921875,-0.80126953125,0.395751953125,-295.0,147.0,-148.0,101701.0,-3.127000093460083,0,0
2.189491500001168,0.3709716796875,-0.45257568359375,0.31201171875,-0.748443603515625,-0.1220703125,-0.06103515625,0.1220703125,0.4449462890625,-0.8031005859375,0.3953857421875,-295.0,147.0,-148.0,101701.0,-3.127000093460083,0,0
2.1895556999952532,0.3709716796875,-0.45257568359375,0.31201171875,-0.748443603515625,0.0,0.0,-0.06103515625,0.4444580078125,-0.8011474609375,0.3944091796875,-295.0,147.0,-148.0,101701.0,-3.127000093460083,0,0
2.189611900001182,0.3709716796875,-0.45257568359375,0.31201171875,-0.748443603515625,0.06103515625,-0.18310546875,0.06103515625,0.4449462890625,-0.8016357421875,0.3948974609375,-295.0,147.0,-148.0,101701.0,-3.127000093460083,0,0
2.1896665999956895,0.3709716796875,-0.452545166015625,0.312042236328125,-0.748443603515625,0.0,0.06103515625,-0.244140625,0.443603515625,-0.802978515625,0.3953857421875,-295.0,147.0,-148.0,101701.0,-3.127000093460083,0,0
2.1897211999894353,0.3709716796875,-0.452545166015625,0.312042236328125,-0.748443603515625,0.0,0.06103515625,-0.244140625,0.443603515625,-0.802978515625,0.3953857421875,-295.0,147.0,-148.0,101701.0,-3.127000093460083,0,0
2.189789199997904,0.3709716796875,-0.452545166015625,0.312042236328125,-0.748443603515625,0.0,0.06103515625,-0.244140625,0.443603515625,-0.802978515625,0.3953857421875,-295.0,147.0,-148.0,101701.0,-3.127000093460083,0,0
2.189844099993934,0.3709716796875,-0.452545166015625,0.312042236328125,-0.748443603515625,0.06103515625,-0.06103515625,-0.06103515625,0.443603515625,-0.7996826171875,0.3955078125,-295.0,147.0,-148.0,101701.0,-3.127000093460083,0,0
2.1899437999963993,0.3709716796875,-0.452545166015625,0.312042236328125,-0.748443603515625,0.42724609375,0.0,-0.18310546875,0.44580078125,-0.8009033203125,0.39599609375,-295.0,147.0,-148.0,101701.0,-3.127000093460083,0,0
2.1903492999990704,0.3709716796875,-0.452545166015625,0.31201171875,-0.748443603515625,-0.244140625,-0.1220703125,-0.3662109375,0.4443359375,-0.80029296875,0.3961181640625,-295.0,147.0,-148.0,101701.0,-3.127000093460083,0,0
2.190431600000011,0.3709716796875,-0.452545166015625,0.31201171875,-0.748443603515625,0.06103515625,0.06103515625,-0.1220703125,0.4462890625,-0.7999267578125,0.3961181640625,-295.0,147.0,-148.0,101701.0,-3.127000093460083,0,0
2.1904912999889348,0.3709716796875,-0.452545166015625,0.31201171875,-0.748443603515625,0.18310546875,0.06103515625,-0.18310546875,0.4454345703125,-0.8013916015625,0.39501953125,-295.0,147.0,-148.0,101701.0,-3.127000093460083,0,0
2.260989199989126,0.370880126953125,-0.4525146484375,0.31207275390625,-0.748504638671875,0.18310546875,0.06103515625,-0.18310546875,0.4454345703125,-0.8013916015625,0.39501953125,-295.0,147.0,-149.0,101701.0,-3.128000259399414,0,0
2.261054199989303,0.370880126953125,-0.4525146484375,0.31207275390625,-0.748504638671875,0.1220703125,0.06103515625,-0.1220703125,0.4466552734375,-0.7994384765625,0.394775390625,-295.0,147.0,-149.0,101701.0,-3.128000259399414,0,0
2.2611098999914248,0.370880126953125,-0.4525146484375,0.31207275390625,-0.748504638671875,0.30517578125,-0.06103515625,-0.18310546875,0.4454345703125,-0.8001708984375,0.3939208984375,-295.0,147.0,-149.0,101701.0,-3.128000259399414,0,0
2.261165299991262,0.370880126953125,-0.4525146484375,0.31207275390625,-0.748504638671875,0.30517578125,-0.06103515625,-0.18310546875,0.4454345703125,-0.8001708984375,0.3939208984375,-295.0,147.0,-149.0,101701.0,-3.128000259399414,0,0
2.261220200001844,0.370880126953125,-0.4525146484375,0.31207275390625,-0.748504638671875,-0.06103515625,-0.1220703125,0.06103515625,0.4456787109375,-0.80078125,0.39501953125,-295.0,147.0,-149.0,101701.0,-3.128000259399414,0,0
2.261272399991867,0.370880126953125,-0.4525146484375,0.31207275390625,-0.748504638671875,-0.18310546875,0.1220703125,0.06103515625,0.4459228515625,-0.8018798828125,0.3948974609375,-295.0,147.0,-149.0,101701.0,-3.128000259399414,0,0
2.2613259999925504,0.370880126953125,-0.4525146484375,0.31207275390625,-0.74847412109375,0.18310546875,0.06103515625,0.1220703125,0.4454345703125,-0.80078125,0.394287109375,-295.0,147.0,-149.0,101701.0,-3.128000259399414,0,0
2.2614126999978907,0.370880126953125,-0.4525146484375,0.31207275390625,-0.748504638671875,0.06103515625,-0.1220703125,0.0,0.4451904296875,-0.802734375,0.3939208984375,-295.0,147.0,-149.0,101701.0,-3.128000259399414,0,0
2.2614657999947667,0.370880126953125,-0.4525146484375,0.31207275390625,-0.748504638671875,-0.1220703125,0.06103515625,0.06103515625,0.446044921875,-0.800537109375,0.3955078125,-295.0,147.0,-149.0,101701.0,-3.128000259399414,0,0
2.2615187999908812,0.370880126953125,-0.4525146484375,0.31207275390625,-0.748504638671875,-0.1220703125,-0.244140625,-0.1220703125,0.4451904296875,-0.8028564453125,0.39599609375,-295.0,147.0,-149.0,101701.0,-3.128000259399414,0,0
2.2615725999930874,0.370880126953125,-0.4525146484375,0.31207275390625,-0.748504638671875,0.48828125,-0.06103515625,-0.06103515625,0.4453125,-0.8009033203125,0.394287109375,-295.0,147.0,-149.0,101701.0,-3.128000259399414,0,0
2.261628099993686,0.370880126953125,-0.4525146484375,0.31207275390625,-0.748504638671875,0.0,-0.18310546875,0.0,0.4461669921875,-0.80322265625,0.3955078125,-295.0,147.0,-149.0,101701.0,-3.128000259399414,0,0
2.2616794999921694,0.370849609375,-0.4525146484375,0.31207275390625,-0.748504638671875,0.0,-0.1220703125,0.0,0.4481201171875,-0.8017578125,0.3951416015625,-295.0,147.0,-149.0,101701.0,-3.128000259399414,0,0
2.317163100000471,0.370849609375,-0.4525146484375,0.31207275390625,-0.748504638671875,0.18310546875,0.0,-0.1220703125,0.444091796875,-0.80224609375,0.3966064453125,-295.0,147.0,-149.0,101701.0,-3.128000259399414,0,0
2.317225699996925,0.370849609375,-0.4525146484375,0.31207275390625,-0.748504638671875,-0.18310546875,0.0,0.0,0.4481201171875,-0.8040771484375,0.3955078125,-295.0,147.0,-149.0,101701.0,-3.128000259399414,0,0
2.3172819999890635,0.370849609375,-0.4525146484375,0.31207275390625,-0.748504638671875,0.30517578125,0.0,-0.06103515625,0.44580078125,-0.8018798828125,0.394775390625,-295.0,147.0,-149.0,101701.0,-3.128000259399414,0,0
2.3173364999965997,0.370849609375,-0.4525146484375,0.31207275390625,-0.748504638671875,0.1220703125,0.0,-0.06103515625,0.4444580078125,-0.801025390625,0.394775390625,-295.0,147.0,-149.0,101701.0,-3.128000259399414,0,0
2.3173912999918684,0.370849609375,-0.452545166015625,0.312042236328125,-0.748504638671875,-0.18310546875,-0.06103515625,0.0,0.446533203125,-0.80029296875,0.3948974609375,-295.0,147.0,-149.0,101701.0,-3.128000259399414,0,0
2.3182478999951854,0.370849609375,-0.4525146484375,0.312042236328125,-0.748504638671875,0.3662109375,0.06103515625,0.0,0.44677734375,-0.8037109375,0.39697265625,-295.0,147.0,-149.0,101701.0,-3.128000259399414,0,0
2.318310599992401,0.37054443359375,-0.452392578125,0.312225341796875,-0.7486572265625,-0.30517578125,-0.1220703125,0.244140625,0.4456787109375,-0.8018798828125,0.3966064453125,-294.0,146.0,-150.0,101701.0,-3.128000259399414,0,0
2.3183674000028986,0.37054443359375,-0.452392578125,0.312225341796875,-0.7486572265625,-0.30517578125,-0.1220703125,0.244140625,0.4456787109375,-0.8018798828125,0.3966064453125,-294.0,146.0,-150.0,101701.0,-3.128000259399414,0,0
2.318421199990553,0.370574951171875,-0.452392578125,0.312225341796875,-0.7486572265625,0.1220703125,0.06103515625,-0.1220703125,0.444580078125,-0.7978515625,0.396240234375,-294.0,146.0,-150.0,101701.0,-3.128000259399414,0,0
2.3184752999950433,0.370574951171875,-0.452392578125,0.312225341796875,-0.7486572265625,-0.1220703125,-0.1220703125,-0.18310546875,0.44482421875,-0.7994384765625,0.3975830078125,-294.0,146.0,-150.0,101701.0,-3.128000259399414,0,0
2.318527499999618,0.370574951171875,-0.452392578125,0.312225341796875,-0.7486572265625,-0.06103515625,-0.1220703125,0.06103515625,0.4453125,-0.8021240234375,0.3953857421875,-294.0,146.0,-150.0,101701.0,-3.128000259399414,0,0
2.3877408999978798,0.370574951171875,-0.452392578125,0.312225341796875,-0.7486572265625,0.18310546875,0.0,-0.06103515625,0.4439697265625,-0.8009033203125,0.3966064453125,-294.0,146.0,-150.0,101701.0,-3.128000259399414,0,0
2.387807099992642,0.370574951171875,-0.452362060546875,0.312225341796875,-0.7486572265625,-0.1220703125,0.06103515625,-0.06103515625,0.4454345703125,-0.8021240234375,0.3983154296875,-294.0,146.0,-150.0,101701.0,-3.128000259399414,0,0
2.387924099995871,0.370574951171875,-0.452362060546875,0.31219482421875,-0.7486572265625,0.244140625,0.06103515625,-0.1220703125,0.4473876953125,-0.802490234375,0.3963623046875,-294.0,146.0,-150.0,101701.0,-3.128000259399414,0,0
2.387984899993171,0.370574951171875,-0.452362060546875,0.31219482421875,-0.7486572265625,0.06103515625,0.06103515625,0.0,0.447021484375,-0.8018798828125,0.3958740234375,-294.0,146.0,-150.0,101701.0,-3.128000259399414,0,0
2.3880410999991,0.370574951171875,-0.452362060546875,0.31219482421875,-0.7486572265625,0.06103515625,0.06103515625,0.0,0.447021484375,-0.8018798828125,0.3958740234375,-294.0,146.0,-150.0,101701.0,-3.128000259399414,0,0
2.3890202999900794,0.370574951171875,-0.452362060546875,0.31219482421875,-0.748687744140625,0.1220703125,-0.06103515625,0.18310546875,0.4454345703125,-0.80126953125,0.3968505859375,-294.0,146.0,-150.0,101701.0,-3.128000259399414,0,0
2.389081699991948,0.370574951171875,-0.452362060546875,0.31219482421875,-0.748687744140625,-0.30517578125,-0.244140625,0.06103515625,0.4456787109375,-0.80126953125,0.3956298828125,-294.0,146.0,-150.0,101701.0,-3.128000259399414,0,0
2.389138999991701,0.370574951171875,-0.452362060546875,0.31219482421875,-0.748687744140625,0.06103515625,-0.06103515625,-0.06103515625,0.444580078125,-0.8006591796875,0.3963623046875,-294.0,146.0,-150.0,101701.0,-3.128000259399414,0,0
2.3891959999891696,0.370574951171875,-0.452362060546875,0.31219482421875,-0.748687744140625,-0.1220703125,-0.18310546875,0.0,0.446044921875,-0.8004150390625,0.396240234375,-294.0,146.0,-150.0,101701.0,-3.128000259399414,0,0
2.3892508999997517,0.370574951171875,-0.452362060546875,0.31219482421875,-0.748687744140625,0.1220703125,0.06103515625,-0.18310546875,0.4468994140625,-0.8028564453125,0.3953857421875,-294.0,146.0,-150.0,101701.0,-3.128000259399414,0,0
2.3893050999904517,0.370574951171875,-0.452362060546875,0.31219482421875,-0.748687744140625,-0.06103515625,-0.18310546875,-0.244140625,0.444091796875,-0.8009033203125,0.394287109375,-294.0,146.0,-150.0,101701.0,-3.128000259399414,0,0
2.44731609999144,0.370574951171875,-0.452362060546875,0.31219482421875,-0.748687744140625,0.06103515625,-0.1220703125,-0.06103515625,0.4444580078125,-0.8018798828125,0.3955078125,-294.0,146.0,-150.0,101701.0,-3.128000259399414,0,0
2.4473789999901783,0.370574951171875,-0.452362060546875,0.31219482421875,-0.748687744140625,0.06103515625,-0.1220703125,-0.06103515625,0.4444580078125,-0.8018798828125,0.3955078125,-294.0,146.0,-150.0,101701.0,-3.128000259399414,0,0
2.4483003999921493,0.370574951171875,-0.452362060546875,0.31219482421875,-0.748687744140625,0.06103515625,-0.1220703125,-0.06103515625,0.4444580078125,-0.8018798828125,0.3955078125,-294.0,146.0,-150.0,101701.0,-3.128000259399414,0,0
2.448373499995796,0.370361328125,-0.4522705078125,0.31231689453125,-0.748779296875,0.06103515625,-0.18310546875,0.0,0.44677734375,-0.802490234375,0.39794921875,-294.0,147.0,-150.0,101701.0,-3.128000259399414,0,0
2.4485353999916697,0.370361328125,-0.4522705078125,0.312286376953125,-0.748779296875,0.06103515625,-0.1220703125,0.06103515625,0.4462890625,-0.80224609375,0.3963623046875,-294.0,147.0,-150.0,101701.0,-3.128000259399414,0,0
2.448675899999216,0.370361328125,-0.4522705078125,0.312286376953125,-0.748809814453125,0.0,-0.06103515625,-0.06103515625,0.4453125,-0.8001708984375,0.396484375,-294.0,147.0,-150.0,101701.0,-3.128000259399414,0,0
2.448797499993816,0.370391845703125,-0.452239990234375,0.312286376953125,-0.748809814453125,-0.18310546875,0.0,0.1220703125,0.4454345703125,-0.8013916015625,0.396240234375,-294.0,147.0,-150.0,101701.0,-3.128000259399414,0,0
2.44908310000028,0.370391845703125,-0.452239990234375,0.312286376953125,-0.748809814453125,0.06103515625,-0.18310546875,-0.18310546875,0.4443359375,-0.8026123046875,0.3970947265625,-294.0,147.0,-150.0,101701.0,-3.128000259399414,0,0
2.4491579000023194,0.370391845703125,-0.452239990234375,0.312286376953125,-0.748809814453125,-0.06103515625,-0.06103515625,-0.1220703125,0.4471435546875,-0.802978515625,0.3968505859375,-294.0,147.0,-150.0,101701.0,-3.128000259399414,0,0
2.449212699997588,0.370391845703125,-0.452239990234375,0.312286376953125,-0.748809814453125,0.67138671875,0.06103515625,0.06103515625,0.4462890625,-0.8021240234375,0.396240234375,-294.0,147.0,-150.0,101701.0,-3.128000259399414,0,0
2.449266499999794,0.370391845703125,-0.452239990234375,0.312286376953125,-0.748809814453125,0.1220703125,-0.18310546875,-0.244140625,0.4471435546875,-0.80224609375,0.3963623046875,-294.0,147.0,-150.0,101701.0,-3.128000259399414,0,0
2.449344499997096,0.370391845703125,-0.452239990234375,0.312286376953125,-0.748809814453125,0.06103515625,-0.244140625,-0.18310546875,0.444580078125,-0.80078125,0.39599609375,-294.0,147.0,-150.0,101701.0,-3.128000259399414,0,0
2.4494596000004094,0.370391845703125,-0.452239990234375,0.312286376953125,-0.748809814453125,0.06103515625,-0.244140625,-0.18310546875,0.444580078125,-0.80078125,0.39599609375,-294.0,147.0,-150.0,101701.0,-3.128000259399414,0,0
2.511676800000714,0.370391845703125,-0.452239990234375,0.312286376953125,-0.748809814453125,0.0,0.0,0.06103515625,0.4443359375,-0.801513671875,0.3961181640625,-294.0,147.0,-150.0,101701.0,-3.128000259399414,0,0
2.5117401000024984,0.370391845703125,-0.452239990234375,0.312286376953125,-0.748809814453125,-0.1220703125,-0.1220703125,-0.244140625,0.4454345703125,-0.801513671875,0.39697265625,-294.0,147.0,-150.0,101701.0,-3.128000259399414,0,0
2.5117962999938754,0.370391845703125,-0.452239990234375,0.312286376953125,-0.748809814453125,0.06103515625,-0.06103515625,-0.06103515625,0.44384765625,-0.802001953125,0.396240234375,-294.0,147.0,-150.0,101701.0,-3.128000259399414,0,0
2.51184999999532,0.370391845703125,-0.452239990234375,0.312286376953125,-0.748809814453125,0.0,0.18310546875,-0.30517578125,0.4476318359375,-0.8009033203125,0.3968505859375,-294.0,147.0,-150.0,101701.0,-3.128000259399414,0,0
2.5119035999960033,0.370391845703125,-0.45220947265625,0.312286376953125,-0.748809814453125,0.0,-0.1220703125,0.0,0.4454345703125,-0.8011474609375,0.3973388671875,-294.0,147.0,-150.0,101701.0,-3.128000259399414,0,0
2.5134537999983877,0.370391845703125,-0.45220947265625,0.312286376953125,-0.748809814453125,0.1220703125,0.3662109375,-0.18310546875,0.4464111328125,-0.8037109375,0.3973388671875,-294.0,147.0,-150.0,101701.0,-3.128000259399414,0,0
2.5135123999934876,0.370391845703125,-0.45220947265625,0.312286376953125,-0.748809814453125,0.1220703125,0.3662109375,-0.18310546875,0.4464111328125,-0.8037109375,0.3973388671875,-294.0,147.0,-150.0,101701.0,-3.128000259399414,0,0
2.5137676000013016,0.370391845703125,-0.45220947265625,0.312286376953125,-0.74884033203125,-0.3662109375,-0.1220703125,0.06103515625,0.4471435546875,-0.80224609375,0.3970947265625,-294.0,147.0,-150.0,101701.0,-3.128000259399414,0,0
2.5138234999903943,0.37030029296875,-0.452178955078125,0.31231689453125,-0.748870849609375,-0.18310546875,-0.18310546875,-0.30517578125,0.446533203125,-0.8021240234375,0.3980712890625,-295.0,149.0,-150.0,101701.0,-3.128000259399414,0,0
2.5138788999902317,0.37030029296875,-0.452178955078125,0.31231689453125,-0.748870849609375,0.0,-0.1220703125,0.0,0.4454345703125,-0.8021240234375,0.3966064453125,-295.0,149.0,-150.0,101701.0,-3.128000259399414,0,0
2.513932299989392,0.37030029296875,-0.452178955078125,0.31231689453125,-0.748870849609375,0.30517578125,-0.06103515625,-0.244140625,0.445068359375,-0.8004150390625,0.39697265625,-295.0,149.0,-150.0,101701.0,-3.128000259399414,0,0
2.5737060999963433,0.37030029296875,-0.4521484375,0.31231689453125,-0.7489013671875,0.18310546875,-0.1220703125,0.1220703125,0.443603515625,-0.8011474609375,0.39794921875,-295.0,149.0,-150.0,101701.0,-3.128000259399414,0,0
2.5737708999949973,0.37030029296875,-0.4521484375,0.31231689453125,-0.7489013671875,-0.1220703125,0.1220703125,0.0,0.445068359375,-0.8016357421875,0.3958740234375,-295.0,149.0,-150.0,101701.0,-3.128000259399414,0,0
2.573829200002365,0.37030029296875,-0.4521484375,0.31231689453125,-0.7489013671875,0.1220703125,-0.06103515625,-0.1220703125,0.4447021484375,-0.80224609375,0.39697265625,-295.0,149.0,-150.0,101701.0,-3.128000259399414,0,0
2.5825924999953713,0.37030029296875,-0.4521484375,0.31231689453125,-0.7489013671875,0.1220703125,-0.06103515625,-0.1220703125,0.4447021484375,-0.80224609375,0.39697265625,-295.0,149.0,-150.0,101701.0,-3.128000259399414,0,0
2.5826620000007097,0.37030029296875,-0.452117919921875,0.31231689453125,-0.7489013671875,0.1220703125,0.0,-0.06103515625,0.4459228515625,-0.8009033203125,0.396240234375,-295.0,149.0,-150.0,101701.0,-3.126000165939331,0,0
2.5835101999982726,0.37030029296875,-0.452117919921875,0.31231689453125,-0.7489013671875,0.1220703125,0.1220703125,-0.06103515625,0.4464111328125,-0.804443359375,0.3975830078125,-295.0,149.0,-150.0,101701.0,-3.126000165939331,0,0
2.5835707999940496,0.37030029296875,-0.452117919921875,0.31231689453125,-0.7489013671875,-0.18310546875,0.0,-0.1220703125,0.4451904296875,-0.8016357421875,0.395751953125,-295.0,149.0,-150.0,101701.0,-3.126000165939331,0,0
2.5836255000031088,0.37030029296875,-0.452117919921875,0.31231689453125,-0.7489013671875,0.18310546875,-0.1220703125,0.30517578125,0.4461669921875,-0.8033447265625,0.3963623046875,-295.0,149.0,-150.0,101701.0,-3.126000165939331,0,0
2.5836790000030305,0.37030029296875,-0.452117919921875,0.31231689453125,-0.7489013671875,0.30517578125,-0.18310546875,-0.1220703125,0.445556640625,-0.8001708984375,0.3963623046875,-295.0,149.0,-150.0,101701.0,-3.126000165939331,0,0
2.583732200000668,0.37030029296875,-0.452117919921875,0.31231689453125,-0.7489013671875,-0.06103515625,-0.1220703125,-0.18310546875,0.4449462890625,-0.80029296875,0.3955078125,-295.0,149.0,-150.0,101701.0,-3.126000165939331,0,0
2.5837849999952596,0.370330810546875,-0.452117919921875,0.31231689453125,-0.7489013671875,0.0,0.1220703125,-0.18310546875,0.4444580078125,-0.80078125,0.396484375,-295.0,149.0,-150.0,101701.0,-3.126000165939331,0,0
2.58383909999975,0.370330810546875,-0.452117919921875,0.31231689453125,-0.7489013671875,-0.06103515625,-0.30517578125,-0.1220703125,0.4461669921875,-0.802734375,0.398193359375,-295.0,149.0,-150.0,101701.0,-3.126000165939331,0,0
2.6387142000021413,0.370330810546875,-0.452117919921875,0.31231689453125,-0.7489013671875,-0.06103515625,-0.30517578125,-0.1220703125,0.4461669921875,-0.802734375,0.398193359375,-295.0,149.0,-150.0,101701.0,-3.126000165939331,0,0
2.638781100002234,0.370330810546875,-0.45208740234375,0.31231689453125,-0.7489013671875,-0.1220703125,0.06103515625,0.18310546875,0.4439697265625,-0.801513671875,0.39599609375,-295.0,149.0,-150.0,101701.0,-3.126000165939331,0,0
2.638836199999787,0.370330810546875,-0.45208740234375,0.31231689453125,-0.7489013671875,-0.1220703125,0.06103515625,0.18310546875,0.4439697265625,-0.801513671875,0.39599609375,-295.0,147.0,-151.0,101701.0,-3.126000165939331,0,0
2.6388913999981014,0.370330810546875,-0.45208740234375,0.312286376953125,-0.748931884765625,0.18310546875,0.0,0.0,0.44384765625,-0.7996826171875,0.398193359375,-295.0,147.0,-151.0,101701.0,-3.126000165939331,0,0
2.638944899998023,0.370025634765625,-0.45196533203125,0.312469482421875,-0.74908447265625,0.06103515625,-0.06103515625,0.06103515625,0.4456787109375,-0.801513671875,0.397216796875,-295.0,147.0,-151.0,101701.0,-3.126000165939331,0,0
2.6389990000025136,0.370025634765625,-0.45196533203125,0.312469482421875,-0.74908447265625,0.0,-0.18310546875,0.0,0.444580078125,-0.799072265625,0.3975830078125,-295.0,147.0,-151.0,101701.0,-3.126000165939331,0,0
2.639177099990775,0.370025634765625,-0.45196533203125,0.312469482421875,-0.74908447265625,-0.18310546875,-0.18310546875,0.18310546875,0.4454345703125,-0.8011474609375,0.3966064453125,-295.0,147.0,-151.0,101701.0,-3.126000165939331,0,0
2.6392384999926435,0.370025634765625,-0.451934814453125,0.312469482421875,-0.74908447265625,-0.1220703125,-0.06103515625,0.18310546875,0.4468994140625,-0.8001708984375,0.3984375,-295.0,147.0,-151.0,101701.0,-3.126000165939331,0,0
2.639295899993158,0.370025634765625,-0.451934814453125,0.312469482421875,-0.74908447265625,0.06103515625,0.18310546875,0.06103515625,0.443115234375,-0.8006591796875,0.3974609375,-295.0,147.0,-151.0,101701.0,-3.126000165939331,0,0
2.6393502999999328,0.370025634765625,-0.451934814453125,0.31243896484375,-0.74908447265625,-0.3662109375,-0.30517578125,0.1220703125,0.446044921875,-0.8011474609375,0.3953857421875,-295.0,147.0,-151.0,101701.0,-3.126000165939331,0,0
2.6394040000013774,0.370025634765625,-0.451934814453125,0.31243896484375,-0.74908447265625,-0.3662109375,-0.30517578125,0.1220703125,0.446044921875,-0.8011474609375,0.3953857421875,-295.0,147.0,-151.0,101701.0,-3.126000165939331,0,0
2.6394564999936847,0.370025634765625,-0.451934814453125,0.312469482421875,-0.74908447265625,0.0,-0.06103515625,-0.18310546875,0.4454345703125,-0.803466796875,0.3963623046875,-295.0,147.0,-151.0,101701.0,-3.126000165939331,0,0
2.7002866999973776,0.370025634765625,-0.451934814453125,0.31243896484375,-0.74908447265625,-0.1220703125,0.0,0.1220703125,0.445556640625,-0.80029296875,0.39697265625,-295.0,147.0,-151.0,101701.0,-3.129000186920166,0,0
2.700347799996962,0.370025634765625,-0.451934814453125,0.31243896484375,-0.74908447265625,0.1220703125,0.06103515625,0.0,0.4434814453125,-0.8011474609375,0.396728515625,-295.0,147.0,-151.0,101701.0,-3.129000186920166,0,0
2.7004047999944305,0.370025634765625,-0.451934814453125,0.31243896484375,-0.74908447265625,0.06103515625,0.0,-0.06103515625,0.4453125,-0.80078125,0.3966064453125,-295.0,147.0,-151.0,101701.0,-3.129000186920166,0,0
2.7004598999919835,0.370025634765625,-0.451934814453125,0.31243896484375,-0.74908447265625,0.0,0.1220703125,-0.06103515625,0.4459228515625,-0.80224609375,0.396728515625,-295.0,147.0,-151.0,101701.0,-3.129000186920166,0,0
2.70051439999952,0.370025634765625,-0.451934814453125,0.31243896484375,-0.74908447265625,-0.1220703125,-0.1220703125,-0.18310546875,0.44580078125,-0.8035888671875,0.3963623046875,-295.0,147.0,-151.0,101701.0,-3.129000186920166,0,0
2.7005910000007134,0.370025634765625,-0.451934814453125,0.31243896484375,-0.74908447265625,-0.1220703125,-0.1220703125,-0.18310546875,0.44580078125,-0.8035888671875,0.3963623046875,-295.0,147.0,-151.0,101701.0,-3.129000186920166,0,0
2.7006431999907363,0.37005615234375,-0.451934814453125,0.31243896484375,-0.74908447265625,-0.1220703125,-0.06103515625,-0.06103515625,0.4439697265625,-0.801025390625,0.3968505859375,-295.0,147.0,-151.0,101701.0,-3.129000186920166,0,0
2.700697799999034,0.37005615234375,-0.451934814453125,0.31243896484375,-0.74908447265625,0.3662109375,0.06103515625,0.0,0.444580078125,-0.8017578125,0.396240234375,-295.0,147.0,-151.0,101701.0,-3.129000186920166,0,0
2.70075089999591,0.37005615234375,-0.451934814453125,0.31243896484375,-0.74908447265625,0.0,0.0,-0.1220703125,0.443603515625,-0.8026123046875,0.39599609375,-295.0,147.0,-151.0,101701.0,-3.129000186920166,0,0
2.7008038999920245,0.37005615234375,-0.451904296875,0.31243896484375,-0.74908447265625,0.0,0.0,-0.1220703125,0.443603515625,-0.8026123046875,0.39599609375,-296.0,147.0,-151.0,101701.0,-3.129000186920166,0,0
2.700916200003121,0.369842529296875,-0.45184326171875,0.31256103515625,-0.74920654296875,-0.1220703125,0.0,0.0,0.4451904296875,-0.80078125,0.397216796875,-296.0,147.0,-151.0,101701.0,-3.129000186920166,0,0
2.7672370999935083,0.369842529296875,-0.45184326171875,0.31256103515625,-0.74920654296875,0.06103515625,-0.1220703125,-0.06103515625,0.445068359375,-0.7996826171875,0.396484375,-296.0,147.0,-151.0,101701.0,-3.129000186920166,0,0
2.7672988999984227,0.369842529296875,-0.45184326171875,0.31256103515625,-0.74920654296875,0.1220703125,0.18310546875,0.0,0.4454345703125,-0.80078125,0.3963623046875,-296.0,147.0,-151.0,101701.0,-3.129000186920166,0,0
2.767353000002913,0.369842529296875,-0.45184326171875,0.31256103515625,-0.74920654296875,0.1220703125,0.18310546875,0.0,0.4454345703125,-0.80078125,0.3963623046875,-296.0,147.0,-151.0,101701.0,-3.129000186920166,0,0
2.767406099999789,0.369842529296875,-0.45184326171875,0.31256103515625,-0.74920654296875,-0.42724609375,-0.244140625,-0.18310546875,0.44482421875,-0.8021240234375,0.3948974609375,-296.0,147.0,-151.0,101701.0,-3.129000186920166,0,0
2.767458699992858,0.369842529296875,-0.45184326171875,0.31256103515625,-0.74920654296875,0.18310546875,-0.244140625,0.1220703125,0.44580078125,-0.802001953125,0.395751953125,-296.0,147.0,-151.0,101701.0,-3.129000186920166,0,0
2.7726238000032026,0.369842529296875,-0.45184326171875,0.31256103515625,-0.74920654296875,-0.1220703125,-0.06103515625,0.1220703125,0.447265625,-0.8028564453125,0.395751953125,-296.0,147.0,-151.0,101701.0,-3.129000186920166,0,0
2.772687799995765,0.369842529296875,-0.45184326171875,0.31256103515625,-0.74920654296875,-0.1220703125,-0.06103515625,0.1220703125,0.447265625,-0.8028564453125,0.395751953125,-296.0,147.0,-151.0,101701.0,-3.126000165939331,0,0
2.772744899993995,0.369842529296875,-0.45184326171875,0.31256103515625,-0.74920654296875,0.244140625,-0.30517578125,-0.1220703125,0.445556640625,-0.8009033203125,0.3936767578125,-296.0,147.0,-151.0,101701.0,-3.126000165939331,0,0
2.772800399994594,0.369842529296875,-0.45184326171875,0.31256103515625,-0.74920654296875,-0.06103515625,0.06103515625,-0.1220703125,0.44677734375,-0.7999267578125,0.3955078125,-296.0,147.0,-151.0,101701.0,-3.126000165939331,0,0
2.772853100002976,0.369842529296875,-0.45184326171875,0.31256103515625,-0.74920654296875,0.1220703125,-0.244140625,-0.18310546875,0.446533203125,-0.8018798828125,0.3961181640625,-296.0,147.0,-151.0,101701.0,-3.126000165939331,0,0
2.772906400001375,0.369842529296875,-0.45184326171875,0.31256103515625,-0.74920654296875,0.06103515625,0.0,-0.30517578125,0.44384765625,-0.801513671875,0.39599609375,-296.0,147.0,-151.0,101701.0,-3.126000165939331,0,0
2.772961499998928,0.369842529296875,-0.45184326171875,0.31256103515625,-0.74920654296875,0.06103515625,0.0,-0.30517578125,0.44384765625,-0.801513671875,0.39599609375,-296.0,147.0,-151.0,101701.0,-3.126000165939331,0,0
2.835672599991085,0.369842529296875,-0.45184326171875,0.31256103515625,-0.74920654296875,0.06103515625,0.06103515625,0.06103515625,0.4451904296875,-0.801513671875,0.3935546875,-296.0,147.0,-151.0,101701.0,-3.126000165939331,0,0
2.8357378999935463,0.369842529296875,-0.45184326171875,0.31256103515625,-0.74920654296875,0.06103515625,-0.06103515625,0.06103515625,0.4456787109375,-0.8009033203125,0.39453125,-296.0,147.0,-151.0,101701.0,-3.126000165939331,0,0
2.8357944000017596,0.369842529296875,-0.451873779296875,0.31256103515625,-0.749176025390625,-0.06103515625,-0.06103515625,0.0,0.44580078125,-0.8021240234375,0.39306640625,-296.0,147.0,-151.0,101701.0,-3.126000165939331,0,0
2.835849099996267,0.369842529296875,-0.45184326171875,0.312591552734375,-0.749176025390625,0.0,-0.1220703125,-0.1220703125,0.44482421875,-0.8018798828125,0.3941650390625,-296.0,147.0,-151.0,101701.0,-3.126000165939331,0,0
2.8359022999939043,0.369842529296875,-0.45184326171875,0.312591552734375,-0.749176025390625,0.18310546875,0.0,-0.18310546875,0.4439697265625,-0.80224609375,0.39404296875,-296.0,147.0,-150.0,101701.0,-3.126000165939331,0,0
2.835958700001356,0.369842529296875,-0.451873779296875,0.312591552734375,-0.749176025390625,-0.1220703125,-0.18310546875,-0.1220703125,0.4451904296875,-0.80126953125,0.39306640625,-296.0,147.0,-150.0,101701.0,-3.126000165939331,0,0
2.848095599998487,0.369842529296875,-0.451873779296875,0.312591552734375,-0.749176025390625,-0.1220703125,-0.18310546875,-0.06103515625,0.4478759765625,-0.8026123046875,0.39453125,-296.0,147.0,-150.0,101701.0,-3.126000165939331,0,0
2.8481577999918954,0.369842529296875,-0.451873779296875,0.312591552734375,-0.749176025390625,0.18310546875,-0.06103515625,0.06103515625,0.44580078125,-0.802734375,0.3931884765625,-296.0,147.0,-150.0,101701.0,-3.126000165939331,0,0
2.8482139999978244,0.369842529296875,-0.451873779296875,0.312591552734375,-0.749176025390625,0.06103515625,-0.1220703125,-0.1220703125,0.4422607421875,-0.7998046875,0.39453125,-296.0,147.0,-150.0,101701.0,-3.126000165939331,0,0
2.8482683999900473,0.369842529296875,-0.451873779296875,0.312591552734375,-0.749176025390625,0.06103515625,-0.1220703125,-0.1220703125,0.4422607421875,-0.7998046875,0.39453125,-296.0,147.0,-150.0,101701.0,-3.126000165939331,0,0
2.8483236999891233,0.369842529296875,-0.451873779296875,0.312591552734375,-0.749176025390625,0.1220703125,-0.06103515625,0.0,0.4468994140625,-0.8031005859375,0.393798828125,-296.0,147.0,-150.0,101701.0,-3.126000165939331,0,0
2.8483765999990283,0.369842529296875,-0.451873779296875,0.312591552734375,-0.749176025390625,-0.06103515625,0.06103515625,-0.30517578125,0.442138671875,-0.8021240234375,0.39306640625,-296.0,147.0,-150.0,101701.0,-3.126000165939331,0,0
2.919196099988767,0.36981201171875,-0.451904296875,0.312591552734375,-0.7491455078125,-0.1220703125,0.0,-0.18310546875,0.4473876953125,-0.8023681640625,0.3941650390625,-296.0,147.0,-150.0,101701.0,-3.130000114440918,0,0
2.9192794999980833,0.36981201171875,-0.451904296875,0.3126220703125,-0.7491455078125,-0.06103515625,-0.06103515625,-0.18310546875,0.443359375,-0.80126953125,0.39404296875,-296.0,147.0,-150.0,101701.0,-3.130000114440918,0,0
2.9193450000020675,0.36981201171875,-0.451904296875,0.3126220703125,-0.7491455078125,0.0,-0.244140625,-0.244140625,0.44677734375,-0.802978515625,0.3931884765625,-296.0,147.0,-150.0,101701.0,-3.130000114440918,0,0
2.9196123000001535,0.36981201171875,-0.451904296875,0.3126220703125,-0.7491455078125,0.30517578125,0.18310546875,-0.06103515625,0.4478759765625,-0.8033447265625,0.39599609375,-296.0,147.0,-150.0,101701.0,-3.130000114440918,0,0
2.9197368000022834,0.36981201171875,-0.451904296875,0.3126220703125,-0.7491455078125,0.30517578125,0.18310546875,-0.06103515625,0.4478759765625,-0.8033447265625,0.39599609375,-296.0,147.0,-150.0,101701.0,-3.130000114440918,0,0
2.919893400001456,0.36981201171875,-0.451904296875,0.3126220703125,-0.7491455078125,0.18310546875,0.18310546875,-0.1220703125,0.444091796875,-0.8017578125,0.395751953125,-296.0,147.0,-150.0,101701.0,-3.130000114440918,0,0
2.919952199998079,0.369842529296875,-0.451904296875,0.3126220703125,-0.7491455078125,-0.1220703125,-0.06103515625,0.1220703125,0.445068359375,-0.8026123046875,0.397216796875,-296.0,147.0,-150.0,101701.0,-3.130000114440918,0,0
2.9200336999929277,0.369842529296875,-0.451904296875,0.3126220703125,-0.7491455078125,0.0,-0.1220703125,-0.18310546875,0.4437255859375,-0.8021240234375,0.394287109375,-296.0,147.0,-150.0,101701.0,-3.130000114440918,0,0
2.920425999996951,0.369842529296875,-0.451904296875,0.3126220703125,-0.7491455078125,0.06103515625,-0.06103515625,-0.1220703125,0.4456787109375,-0.801513671875,0.396240234375,-296.0,147.0,-150.0,101701.0,-3.130000114440918,0,0
2.920487299998058,0.369842529296875,-0.451904296875,0.3126220703125,-0.7491455078125,-0.18310546875,0.42724609375,0.18310546875,0.44580078125,-0.8016357421875,0.3961181640625,-296.0,147.0,-150.0,101701.0,-3.130000114440918,0,0
2.920603399994434,0.36981201171875,-0.451904296875,0.3126220703125,-0.7491455078125,0.30517578125,0.18310546875,-0.1220703125,0.4454345703125,-0.8023681640625,0.3934326171875,-296.0,147.0,-150.0,101701.0,-3.130000114440918,0,0
2.920663400000194,0.36981201171875,-0.451904296875,0.3126220703125,-0.7491455078125,0.18310546875,0.244140625,0.06103515625,0.446533203125,-0.8035888671875,0.3944091796875,-296.0,148.0,-150.0,101701.0,-3.130000114440918,0,0
2.9609111999889137,0.36981201171875,-0.451904296875,0.3126220703125,-0.7491455078125,0.1220703125,0.18310546875,-0.06103515625,0.44580078125,-0.802490234375,0.3948974609375,-296.0,148.0,-150.0,101701.0,-3.130000114440918,0,0
2.9609769999951823,0.36981201171875,-0.451904296875,0.3126220703125,-0.7491455078125,0.18310546875,-0.1220703125,-0.1220703125,0.4464111328125,-0.8013916015625,0.393798828125,-296.0,148.0,-150.0,101701.0,-3.130000114440918,0,0
