Time stamp(sec),quaternion_0,quaternion_1,quaternion_2,quaternion_3,roll_angular_rate,pitch_angular_rate,yaw_angular_rate,acc_X,acc_Y,acc_Z,mag_X,mag_Y,mag_Z,pressure,altitude
274.110998,-0.49169921875,-0.775146484375,-0.33856201171875,-0.206634521484375,-0.42724609375,0.244140625,0.18310546875,-0.0118408203125,0.90283203125,-0.429931640625,111.0,-14.0,-111.0,103165.0,-15.213000297546387,0,0
274.117997,-0.49169921875,-0.775146484375,-0.33856201171875,-0.20660400390625,0.3662109375,0.18310546875,-0.06103515625,-0.0164794921875,0.9031982421875,-0.431640625,111.0,-14.0,-111.0,103165.0,-15.213000297546387,0,0
274.124997,-0.49169921875,-0.775146484375,-0.33856201171875,-0.20660400390625,0.18310546875,0.244140625,0.0,-0.01220703125,0.9039306640625,-0.4315185546875,111.0,-14.0,-111.0,103165.0,-15.213000297546387,0,0
274.131029,-0.49169921875,-0.775146484375,-0.33856201171875,-0.20660400390625,0.18310546875,0.244140625,0.0,-0.01220703125,0.9039306640625,-0.4315185546875,111.0,-14.0,-111.0,103165.0,-15.213000297546387,0,0
274.137998,-0.49176025390625,-0.775115966796875,-0.33856201171875,-0.206634521484375,0.06103515625,0.1220703125,-0.244140625,-0.0125732421875,0.9012451171875,-0.431640625,111.0,-14.0,-111.0,103165.0,-15.213000297546387,0,0
274.144997,-0.49176025390625,-0.775115966796875,-0.33856201171875,-0.206634521484375,-0.6103515625,0.18310546875,-0.1220703125,-0.0130615234375,0.9036865234375,-0.4306640625,111.0,-14.0,-112.0,103165.0,-15.213000297546387,0,0
274.151997,-0.4918212890625,-0.775238037109375,-0.33831787109375,-0.20648193359375,0.48828125,0.3662109375,0.06103515625,-0.013671875,0.900146484375,-0.4306640625,111.0,-14.0,-112.0,103165.0,-15.213000297546387,0,0
274.158996,-0.4918212890625,-0.775238037109375,-0.33831787109375,-0.20648193359375,-0.54931640625,0.30517578125,0.244140625,-0.0126953125,0.90234375,-0.430908203125,111.0,-14.0,-112.0,103165.0,-15.213000297546387,0,0
274.165997,-0.4918212890625,-0.775238037109375,-0.33831787109375,-0.20648193359375,0.18310546875,0.1220703125,0.06103515625,-0.0126953125,0.9010009765625,-0.4305419921875,111.0,-14.0,-112.0,103165.0,-15.213000297546387,0,0
274.172995,-0.4918212890625,-0.775238037109375,-0.33831787109375,-0.206451416015625,0.30517578125,0.30517578125,-0.06103515625,-0.0150146484375,0.9029541015625,-0.4312744140625,111.0,-14.0,-112.0,103165.0,-15.213000297546387,0,0
274.193998,-0.491790771484375,-0.775238037109375,-0.33831787109375,-0.206451416015625,0.06103515625,0.18310546875,-0.06103515625,-0.011474609375,0.9007568359375,-0.4298095703125,111.0,-14.0,-112.0,103165.0,-15.213000297546387,0,0
274.200998,-0.491790771484375,-0.775238037109375,-0.33831787109375,-0.206451416015625,0.06103515625,0.30517578125,0.0,-0.01318359375,0.90283203125,-0.4298095703125,111.0,-14.0,-112.0,103165.0,-15.213000297546387,0,0
274.207997,-0.491790771484375,-0.775238037109375,-0.33831787109375,-0.206451416015625,0.18310546875,0.3662109375,-0.18310546875,-0.0133056640625,0.903076171875,-0.4326171875,111.0,-14.0,-112.0,103165.0,-15.213000297546387,0,0
274.214997,-0.491790771484375,-0.775238037109375,-0.33831787109375,-0.206451416015625,-0.1220703125,0.0,0.0,-0.0111083984375,0.9029541015625,-0.429931640625,111.0,-14.0,-112.0,103165.0,-15.213000297546387,0,0
274.221996,-0.491790771484375,-0.775238037109375,-0.33831787109375,-0.206451416015625,0.1220703125,0.30517578125,0.0,-0.0125732421875,0.9014892578125,-0.4310302734375,111.0,-14.0,-112.0,103165.0,-15.213000297546387,0,0
274.228029,-0.491790771484375,-0.775238037109375,-0.33831787109375,-0.206451416015625,0.1220703125,0.30517578125,0.0,-0.0125732421875,0.9014892578125,-0.4310302734375,111.0,-14.0,-112.0,103165.0,-15.213000297546387,0,0
274.234997,-0.491790771484375,-0.775238037109375,-0.33831787109375,-0.206451416015625,0.1220703125,0.244140625,0.1220703125,-0.013671875,0.9031982421875,-0.4324951171875,111.0,-14.0,-112.0,103165.0,-15.213000297546387,0,0
274.241997,-0.491790771484375,-0.775238037109375,-0.33831787109375,-0.206451416015625,-0.18310546875,0.1220703125,-0.18310546875,-0.0126953125,0.902587890625,-0.4305419921875,112.0,-14.0,-112.0,103165.0,-15.210000991821289,0,0
274.248996,-0.4918212890625,-0.775299072265625,-0.33819580078125,-0.206390380859375,-0.06103515625,0.06103515625,0.18310546875,-0.012939453125,0.904296875,-0.4315185546875,112.0,-14.0,-112.0,103165.0,-15.210000991821289,0,0
274.255997,-0.4918212890625,-0.775299072265625,-0.33819580078125,-0.206390380859375,0.0,0.18310546875,-0.06103515625,-0.011962890625,0.9031982421875,-0.4320068359375,112.0,-14.0,-112.0,103165.0,-15.210000991821289,0,0
274.262995,-0.491790771484375,-0.77532958984375,-0.33819580078125,-0.206390380859375,-0.30517578125,0.244140625,0.0,-0.011474609375,0.901123046875,-0.430908203125,112.0,-14.0,-112.0,103165.0,-15.210000991821289,0,0
274.269995,-0.491790771484375,-0.77532958984375,-0.33819580078125,-0.206390380859375,-0.06103515625,0.6103515625,0.1220703125,-0.011962890625,0.904052734375,-0.4310302734375,112.0,-14.0,-112.0,103165.0,-15.210000991821289,0,0
274.276999,-0.491790771484375,-0.77532958984375,-0.33819580078125,-0.206390380859375,0.0,0.48828125,0.0,-0.0133056640625,0.9024658203125,-0.431396484375,112.0,-14.0,-112.0,103165.0,-15.210000991821289,0,0
274.283999,-0.491790771484375,-0.77532958984375,-0.33819580078125,-0.206390380859375,-0.48828125,0.1220703125,0.0,-0.0126953125,0.90234375,-0.43212890625,112.0,-14.0,-112.0,103165.0,-15.210000991821289,0,0
274.290998,-0.491790771484375,-0.77532958984375,-0.33819580078125,-0.206390380859375,-0.3662109375,0.244140625,0.0,-0.010986328125,0.903076171875,-0.4305419921875,112.0,-14.0,-112.0,103165.0,-15.210000991821289,0,0
274.297997,-0.491790771484375,-0.775299072265625,-0.33819580078125,-0.206390380859375,-0.1220703125,0.30517578125,-0.06103515625,-0.0135498046875,0.9027099609375,-0.4307861328125,112.0,-14.0,-112.0,103165.0,-15.210000991821289,0,0
274.304997,-0.491790771484375,-0.775299072265625,-0.33819580078125,-0.206390380859375,-0.06103515625,0.0,0.0,-0.011962890625,0.905029296875,-0.4300537109375,112.0,-14.0,-112.0,103165.0,-15.210000991821289,0,0
274.311996,-0.4918212890625,-0.775299072265625,-0.33819580078125,-0.206390380859375,-0.42724609375,0.1220703125,0.0,-0.0135498046875,0.90283203125,-0.4302978515625,112.0,-14.0,-112.0,103165.0,-15.210000991821289,0,0
274.318029,-0.4918212890625,-0.775299072265625,-0.33819580078125,-0.206390380859375,-0.42724609375,0.1220703125,0.0,-0.0135498046875,0.90283203125,-0.4302978515625,112.0,-14.0,-112.0,103165.0,-15.210000991821289,0,0
274.324997,-0.4918212890625,-0.775299072265625,-0.33819580078125,-0.206390380859375,0.42724609375,0.3662109375,0.06103515625,-0.0130615234375,0.90234375,-0.4326171875,112.0,-14.0,-112.0,103165.0,-15.210000991821289,0,0
274.331997,-0.4918212890625,-0.775299072265625,-0.33819580078125,-0.206390380859375,-0.06103515625,0.30517578125,0.0,-0.0123291015625,0.9039306640625,-0.432861328125,112.0,-14.0,-112.0,103165.0,-15.210000991821289,0,0
274.338996,-0.491790771484375,-0.775299072265625,-0.33819580078125,-0.206390380859375,0.244140625,0.1220703125,-0.1220703125,-0.0120849609375,0.9014892578125,-0.4312744140625,112.0,-14.0,-112.0,103165.0,-15.210000991821289,0,0
274.346001,-0.491851806640625,-0.775360107421875,-0.338043212890625,-0.206329345703125,-0.1220703125,0.3662109375,-0.06103515625,-0.01123046875,0.904052734375,-0.430908203125,113.0,-14.0,-112.0,103165.0,-15.213000297546387,0,0
274.352996,-0.4918212890625,-0.775360107421875,-0.338043212890625,-0.206329345703125,0.244140625,0.3662109375,0.0,-0.0111083984375,3.211156922315281e-28,-6.25968837448794e+34,1.1577048752517277e-22,2.1728505961851327e-38,5.0492874948151646e-33,-3.0077704158479717e+29,643403456.0,6458,5234
274.366999,-0.4918212890625,-0.775360107421875,-0.338043212890625,-0.206329345703125,0.0,0.3662109375,-0.1220703125,-0.0108642578125,0.9033203125,-0.431640625,113.0,-14.0,-112.0,103165.0,-15.213000297546387,0,0
274.373998,-0.4918212890625,-0.775360107421875,-0.338043212890625,-0.206329345703125,0.30517578125,0.18310546875,-0.244140625,-0.013916015625,0.902587890625,-0.4315185546875,113.0,-14.0,-112.0,103165.0,-15.213000297546387,0,0
274.380998,-0.4918212890625,-0.775360107421875,-0.338043212890625,-0.206329345703125,-0.18310546875,0.30517578125,-0.06103515625,-0.0133056640625,0.9031982421875,-0.431396484375,113.0,-14.0,-112.0,103165.0,-15.213000297546387,0,0
274.387997,-0.491851806640625,-0.775360107421875,-0.338043212890625,-0.206329345703125,0.0,0.06103515625,-0.1220703125,-0.01220703125,0.9024658203125,-0.4310302734375,113.0,-14.0,-112.0,103165.0,-15.213000297546387,0,0
274.394997,-0.491851806640625,-0.775360107421875,-0.338043212890625,-0.206329345703125,-0.30517578125,0.30517578125,0.18310546875,-0.0125732421875,0.904052734375,-0.4298095703125,113.0,-14.0,-112.0,103165.0,-15.213000297546387,0,0
274.401996,-0.491851806640625,-0.775360107421875,-0.338043212890625,-0.206329345703125,-0.1220703125,0.30517578125,0.1220703125,-0.0140380859375,0.9033203125,-0.4298095703125,113.0,-14.0,-112.0,103165.0,-15.213000297546387,0,0
274.408997,-0.491851806640625,-0.775360107421875,-0.338043212890625,-0.206329345703125,0.0,0.48828125,0.0,-0.0130615234375,0.9031982421875,-0.43017578125,113.0,-14.0,-112.0,103165.0,-15.213000297546387,0,0
274.415028,-0.491851806640625,-0.775360107421875,-0.338043212890625,-0.206329345703125,0.0,0.48828125,0.0,-0.0130615234375,0.9031982421875,-0.43017578125,113.0,-14.0,-112.0,103165.0,-15.213000297546387,0,0
274.421997,-0.491851806640625,-0.775360107421875,-0.338043212890625,-0.206329345703125,-0.1220703125,-0.06103515625,-0.1220703125,-0.0123291015625,0.9031982421875,-0.430908203125,113.0,-14.0,-112.0,103165.0,-15.213000297546387,0,0
274.428996,-0.491851806640625,-0.775360107421875,-0.338043212890625,-0.206329345703125,-0.1220703125,0.06103515625,0.1220703125,-0.010986328125,0.90185546875,-0.430419921875,113.0,-14.0,-112.0,103165.0,-15.213000297546387,0,0
274.435997,-0.491851806640625,-0.775360107421875,-0.338043212890625,-0.206329345703125,-0.18310546875,0.30517578125,0.0,-0.009033203125,0.9013671875,-0.43310546875,113.0,-14.0,-112.0,103165.0,-15.213000297546387,0,0
274.456995,-0.4918212890625,-0.775299072265625,-0.338165283203125,-0.206451416015625,-0.18310546875,0.3662109375,-0.1220703125,-0.012939453125,0.903564453125,-0.4298095703125,111.0,-12.0,-111.0,103165.0,-15.214000701904297,0,0
274.463998,-0.4918212890625,-0.775299072265625,-0.338165283203125,-0.206451416015625,-0.30517578125,0.18310546875,0.06103515625,-0.0142822265625,0.90234375,-0.4310302734375,111.0,-12.0,-111.0,103165.0,-15.214000701904297,0,0
274.470998,-0.4918212890625,-0.775299072265625,-0.338165283203125,-0.2064208984375,0.06103515625,0.244140625,0.06103515625,-0.013916015625,0.9027099609375,-0.4322509765625,111.0,-12.0,-111.0,103165.0,-15.214000701904297,0,0
274.477997,-0.4918212890625,-0.775299072265625,-0.338134765625,-0.206451416015625,-0.244140625,0.1220703125,-0.1220703125,-0.01123046875,0.90380859375,-0.43212890625,111.0,-12.0,-111.0,103165.0,-15.214000701904297,0,0
274.484997,-0.4918212890625,-0.775299072265625,-0.338134765625,-0.206451416015625,0.0,0.1220703125,-0.1220703125,-0.0120849609375,0.902587890625,-0.4310302734375,111.0,-12.0,-111.0,103165.0,-15.214000701904297,0,0
274.491996,-0.4918212890625,-0.775299072265625,-0.338134765625,-0.206451416015625,-0.18310546875,0.18310546875,-0.1220703125,-0.0125732421875,0.902587890625,-0.431884765625,111.0,-12.0,-111.0,103165.0,-15.214000701904297,0,0
274.498997,-0.4918212890625,-0.775299072265625,-0.338134765625,-0.206451416015625,0.1220703125,0.18310546875,0.1220703125,-0.01171875,0.9033203125,-0.430419921875,111.0,-12.0,-111.0,103165.0,-15.214000701904297,0,0
274.505028,-0.4918212890625,-0.775299072265625,-0.338134765625,-0.206451416015625,0.1220703125,0.18310546875,0.1220703125,-0.01171875,0.9033203125,-0.430419921875,111.0,-12.0,-111.0,103165.0,-15.214000701904297,0,0
274.511997,-0.4918212890625,-0.775299072265625,-0.338165283203125,-0.206451416015625,-0.06103515625,0.244140625,-0.18310546875,-0.0135498046875,0.9014892578125,-0.429931640625,111.0,-12.0,-111.0,103165.0,-15.214000701904297,0,0
274.518996,-0.491851806640625,-0.775299072265625,-0.338134765625,-0.206451416015625,-0.244140625,0.3662109375,0.06103515625,-0.0126953125,0.9024658203125,-0.4298095703125,111.0,-12.0,-111.0,103165.0,-15.214000701904297,0,0
274.525997,-0.491851806640625,-0.775299072265625,-0.338134765625,-0.206451416015625,0.244140625,0.0,-0.244140625,-0.010986328125,0.90283203125,-0.430908203125,111.0,-12.0,-111.0,103165.0,-15.214000701904297,0,0
274.532995,-0.491851806640625,-0.775299072265625,-0.338134765625,-0.206451416015625,0.06103515625,0.1220703125,0.1220703125,-0.0135498046875,0.90234375,-0.4310302734375,111.0,-12.0,-111.0,103165.0,-15.214000701904297,0,0
274.539995,-0.491851806640625,-0.775299072265625,-0.338134765625,-0.206451416015625,-0.48828125,0.0,-0.1220703125,-0.013427734375,0.9024658203125,-0.431396484375,111.0,-12.0,-111.0,103165.0,-15.212000846862793,0,0
274.546995,-0.49188232421875,-0.77532958984375,-0.3380126953125,-0.20635986328125,-0.06103515625,0.244140625,0.0,-0.01318359375,0.9024658203125,-0.4302978515625,110.0,-13.0,-111.0,103165.0,-15.212000846862793,0,0
274.553998,-0.49188232421875,-0.77532958984375,-0.3380126953125,-0.20635986328125,0.0,0.1220703125,0.1220703125,-0.012939453125,0.904052734375,-0.431640625,110.0,-13.0,-111.0,103165.0,-15.212000846862793,0,0
274.560998,-0.49188232421875,-0.77532958984375,-0.338043212890625,-0.20635986328125,0.06103515625,0.06103515625,-0.48828125,-0.01513671875,0.9017333984375,-0.4302978515625,110.0,-13.0,-111.0,103165.0,-15.212000846862793,0,0
274.567997,-0.49188232421875,-0.77532958984375,-0.3380126953125,-0.20635986328125,-0.244140625,0.06103515625,0.06103515625,-0.0118408203125,0.901123046875,-0.4296875,110.0,-13.0,-111.0,103165.0,-15.212000846862793,0,0
274.574997,-0.49188232421875,-0.77532958984375,-0.3380126953125,-0.20635986328125,0.244140625,0.06103515625,-0.06103515625,-0.01220703125,0.90234375,-0.4295654296875,110.0,-13.0,-111.0,103165.0,-15.212000846862793,0,0
274.581996,-0.49188232421875,-0.77532958984375,-0.3380126953125,-0.20635986328125,-0.18310546875,0.244140625,-0.06103515625,-0.0115966796875,0.902099609375,-0.4305419921875,110.0,-13.0,-111.0,103165.0,-15.212000846862793,0,0
274.589001,-0.49188232421875,-0.77532958984375,-0.3380126953125,-0.20635986328125,0.30517578125,0.3662109375,0.18310546875,-0.012939453125,0.9041748046875,-0.4302978515625,110.0,-13.0,-111.0,103165.0,-15.212000846862793,0,0
274.595996,-0.49188232421875,-0.77532958984375,-0.3380126953125,-0.20635986328125,-0.244140625,0.18310546875,-0.06103515625,-0.01123046875,0.9013671875,-0.430419921875,110.0,-13.0,-111.0,103165.0,-15.212000846862793,0,0
274.602028,-0.49188232421875,-0.77532958984375,-0.3380126953125,-0.20635986328125,-0.244140625,0.18310546875,-0.06103515625,-0.01123046875,0.9013671875,-0.430419921875,110.0,-13.0,-111.0,103165.0,-15.212000846862793,0,0
274.608996,-0.491912841796875,-0.77532958984375,-0.3380126953125,-0.206390380859375,0.06103515625,0.30517578125,-0.06103515625,-0.012939453125,0.9034423828125,-0.431396484375,110.0,-13.0,-111.0,103165.0,-15.212000846862793,0,0
274.629996,-0.491912841796875,-0.77532958984375,-0.3380126953125,-0.20635986328125,-0.06103515625,0.244140625,0.0,-0.01220703125,0.9041748046875,-0.4310302734375,110.0,-13.0,-111.0,103165.0,-15.212000846862793,0,0
274.636999,-0.491912841796875,-0.77532958984375,-0.3380126953125,-0.206390380859375,-0.18310546875,0.244140625,-0.18310546875,-0.010986328125,0.9024658203125,-0.4300537109375,110.0,-13.0,-111.0,103165.0,-15.212000846862793,0,0
274.643999,-0.491912841796875,-0.77532958984375,-0.3380126953125,-0.20635986328125,0.1220703125,0.1220703125,-0.06103515625,-0.0142822265625,0.902099609375,-0.4317626953125,110.0,-13.0,-110.0,103165.0,-15.212000846862793,0,0
274.650998,-0.491943359375,-0.775390625,-0.337890625,-0.206298828125,0.18310546875,0.30517578125,0.1220703125,-0.0123291015625,0.9041748046875,-0.431640625,110.0,-13.0,-110.0,103165.0,-15.212000846862793,0,0
274.657997,-0.491943359375,-0.775360107421875,-0.337890625,-0.206298828125,0.0,0.1220703125,0.06103515625,-0.0125732421875,0.9029541015625,-0.430908203125,110.0,-13.0,-110.0,103165.0,-15.212000846862793,0,0
274.664997,-0.491943359375,-0.775360107421875,-0.337890625,-0.206298828125,-0.1220703125,0.18310546875,0.0,-0.0118408203125,0.9039306640625,-0.4296875,110.0,-13.0,-110.0,103165.0,-15.212000846862793,0,0
274.671996,-0.491943359375,-0.775360107421875,-0.337890625,-0.206298828125,-0.06103515625,0.06103515625,-0.06103515625,-0.0123291015625,0.90283203125,-0.431396484375,110.0,-13.0,-110.0,103165.0,-15.212000846862793,0,0
274.678997,-0.491943359375,-0.775360107421875,-0.337890625,-0.206298828125,-0.48828125,0.1220703125,0.0,-0.01171875,0.903076171875,-0.4315185546875,110.0,-13.0,-110.0,103165.0,-15.212000846862793,0,0
274.685995,-0.491943359375,-0.775360107421875,-0.337890625,-0.206298828125,0.30517578125,0.30517578125,-0.30517578125,-0.011962890625,0.90234375,-0.4317626953125,110.0,-13.0,-110.0,103165.0,-15.212000846862793,0,0
274.692023,-0.491943359375,-0.775360107421875,-0.337890625,-0.206298828125,0.30517578125,0.30517578125,-0.30517578125,-0.011962890625,0.90234375,-0.4317626953125,110.0,-13.0,-110.0,103165.0,-15.212000846862793,0,0
274.698996,-0.491973876953125,-0.775360107421875,-0.337890625,-0.206298828125,-0.1220703125,0.244140625,-0.1220703125,-0.01171875,0.9024658203125,-0.4273681640625,110.0,-13.0,-110.0,103165.0,-15.212000846862793,0,0
274.719995,-0.491973876953125,-0.775360107421875,-0.337890625,-0.206298828125,-0.1220703125,0.30517578125,-0.30517578125,-0.0118408203125,0.9022216796875,-0.4307861328125,110.0,-13.0,-110.0,103165.0,-15.212000846862793,0,0
274.726995,-0.491973876953125,-0.775360107421875,-0.337890625,-0.206298828125,0.244140625,0.30517578125,-0.18310546875,-0.0113525390625,0.902587890625,-0.431884765625,110.0,-13.0,-110.0,103165.0,-15.212000846862793,0,0
274.733998,-0.491973876953125,-0.775360107421875,-0.337860107421875,-0.206329345703125,0.0,0.06103515625,0.18310546875,-0.0113525390625,0.9041748046875,-0.4317626953125,110.0,-13.0,-110.0,103165.0,-15.212000846862793,0,0
274.740998,-0.491973876953125,-0.775360107421875,-0.337890625,-0.206329345703125,-0.30517578125,0.1220703125,-0.06103515625,-0.0147705078125,0.903076171875,-0.4317626953125,110.0,-13.0,-110.0,103165.0,-15.212000846862793,0,0
274.747997,-0.49200439453125,-0.775421142578125,-0.337738037109375,-0.20623779296875,0.48828125,0.30517578125,0.0,-0.011962890625,0.9017333984375,-0.4315185546875,110.0,-14.0,-110.0,103165.0,-15.212000846862793,0,0
274.754997,-0.49200439453125,-0.775421142578125,-0.337738037109375,-0.20623779296875,-0.06103515625,0.244140625,0.06103515625,-0.0133056640625,0.9027099609375,-0.4312744140625,110.0,-14.0,-110.0,103165.0,-15.212000846862793,0,0
274.761996,-0.49200439453125,-0.775421142578125,-0.337738037109375,-0.20623779296875,-0.30517578125,0.244140625,-0.42724609375,-0.0118408203125,0.9024658203125,-0.4312744140625,110.0,-14.0,-110.0,103165.0,-15.212000846862793,0,0
274.768997,-0.49200439453125,-0.775421142578125,-0.337738037109375,-0.20623779296875,0.1220703125,0.1220703125,-0.18310546875,-0.01318359375,0.9033203125,-0.43115234375,110.0,-14.0,-110.0,103165.0,-15.212000846862793,0,0
274.775995,-0.49200439453125,-0.775421142578125,-0.3377685546875,-0.20623779296875,-0.3662109375,0.18310546875,-0.1220703125,-0.0137939453125,0.900390625,-0.4312744140625,110.0,-14.0,-110.0,103165.0,-15.212000846862793,0,0
274.782023,-0.49200439453125,-0.775421142578125,-0.3377685546875,-0.20623779296875,-0.3662109375,0.18310546875,-0.1220703125,-0.0137939453125,0.900390625,-0.4312744140625,110.0,-14.0,-110.0,103165.0,-15.212000846862793,0,0
274.788996,-0.49200439453125,-0.775421142578125,-0.3377685546875,-0.20623779296875,-0.1220703125,0.1220703125,-0.06103515625,-0.0126953125,0.9019775390625,-0.4285888671875,110.0,-14.0,-110.0,103165.0,-15.212000846862793,0,0
274.795997,-0.491973876953125,-0.775421142578125,-0.337738037109375,-0.20623779296875,0.0,0.30517578125,-0.244140625,-0.0096435546875,0.902587890625,-0.431640625,110.0,-14.0,-110.0,103165.0,-15.212000846862793,0,0
274.802995,-0.491973876953125,-0.775421142578125,-0.337738037109375,-0.20623779296875,-0.06103515625,-0.06103515625,0.0,-0.01171875,0.90234375,-0.430419921875,110.0,-14.0,-110.0,103165.0,-15.212000846862793,0,0
274.809995,-0.491973876953125,-0.775421142578125,-0.337738037109375,-0.20623779296875,0.42724609375,0.48828125,-0.1220703125,-0.0108642578125,0.9027099609375,-0.4320068359375,110.0,-14.0,-110.0,103165.0,-15.212000846862793,0,0
274.816995,-0.491973876953125,-0.775421142578125,-0.337738037109375,-0.20623779296875,-0.06103515625,-0.18310546875,-0.06103515625,-0.013427734375,0.9017333984375,-0.431884765625,110.0,-14.0,-110.0,103165.0,-15.212000846862793,0,0
274.823998,-0.491973876953125,-0.775421142578125,-0.337738037109375,-0.20623779296875,0.244140625,0.06103515625,0.0,-0.013671875,0.904296875,-0.432861328125,110.0,-14.0,-110.0,103165.0,-15.212000846862793,0,0
274.830998,-0.491973876953125,-0.775421142578125,-0.3377685546875,-0.20623779296875,-0.18310546875,0.18310546875,0.0,-0.013427734375,0.90185546875,-0.4315185546875,110.0,-14.0,-110.0,103165.0,-15.212000846862793,0,0
274.837997,-0.491973876953125,-0.775421142578125,-0.337738037109375,-0.20623779296875,0.06103515625,0.30517578125,-0.06103515625,-0.010986328125,0.9031982421875,-0.4312744140625,110.0,-14.0,-110.0,103165.0,-15.212000846862793,0,0
274.844997,-0.49200439453125,-0.775482177734375,-0.337615966796875,-0.206146240234375,0.1220703125,0.244140625,-0.06103515625,-0.0128173828125,0.9000244140625,-0.4320068359375,110.0,-15.0,-110.0,103165.0,-15.212000846862793,0,0
274.851996,-0.49200439453125,-0.775482177734375,-0.337615966796875,-0.206146240234375,-0.1220703125,0.244140625,-0.06103515625,-0.01220703125,0.9039306640625,-0.429443359375,110.0,-15.0,-110.0,103165.0,-15.212000846862793,0,0
274.858997,-0.49200439453125,-0.775482177734375,-0.337615966796875,-0.206146240234375,-0.3662109375,0.30517578125,-0.18310546875,-0.0125732421875,0.9024658203125,-0.430908203125,110.0,-15.0,-110.0,103165.0,-15.212000846862793,0,0
274.865995,-0.492034912109375,-0.775482177734375,-0.337615966796875,-0.206146240234375,0.0,0.30517578125,0.0,-0.014892578125,0.9051513671875,-0.4307861328125,110.0,-15.0,-110.0,103165.0,-15.212000846862793,0,0
274.872995,-0.492034912109375,-0.775482177734375,-0.337615966796875,-0.206146240234375,-0.06103515625,0.1220703125,-0.18310546875,-0.0130615234375,0.90185546875,-0.4322509765625,110.0,-15.0,-110.0,103165.0,-15.212000846862793,0,0
274.892996,-0.492034912109375,-0.775482177734375,-0.337615966796875,-0.206146240234375,0.06103515625,0.30517578125,-0.30517578125,-0.0123291015625,0.904541015625,-0.4293212890625,110.0,-15.0,-110.0,103165.0,-15.212000846862793,0,0
274.899996,-0.492034912109375,-0.775482177734375,-0.337615966796875,-0.206146240234375,-0.244140625,0.18310546875,-0.1220703125,-0.011962890625,0.904296875,-0.4326171875,110.0,-15.0,-110.0,103165.0,-15.212000846862793,0,0
274.906999,-0.49200439453125,-0.775482177734375,-0.337615966796875,-0.206146240234375,0.06103515625,0.18310546875,0.244140625,-0.011474609375,0.90478515625,-0.43212890625,110.0,-15.0,-110.0,103165.0,-15.212000846862793,0,0
274.913999,-0.49200439453125,-0.775482177734375,-0.337615966796875,-0.206146240234375,-0.1220703125,0.18310546875,0.0,-0.011962890625,0.9022216796875,-0.430908203125,110.0,-15.0,-110.0,103165.0,-15.212000846862793,0,0
274.920998,-0.49200439453125,-0.775482177734375,-0.337615966796875,-0.206146240234375,0.18310546875,0.244140625,0.06103515625,-0.0125732421875,0.9022216796875,-0.4322509765625,110.0,-15.0,-110.0,103165.0,-15.212000846862793,0,0
274.927997,-0.49200439453125,-0.775482177734375,-0.337615966796875,-0.206146240234375,0.0,0.06103515625,-0.18310546875,-0.0126953125,0.9024658203125,-0.4312744140625,110.0,-15.0,-110.0,103165.0,-15.212000846862793,0,0
274.934997,-0.49200439453125,-0.775482177734375,-0.337646484375,-0.206146240234375,-0.1220703125,0.30517578125,0.1220703125,-0.0137939453125,0.901611328125,-0.431640625,110.0,-15.0,-110.0,103165.0,-15.212000846862793,0,0
274.941996,-0.49200439453125,-0.775482177734375,-0.337646484375,-0.206146240234375,0.732421875,0.6103515625,-0.06103515625,-0.0142822265625,0.9027099609375,-0.4302978515625,111.0,-15.0,-110.0,103165.0,-15.211000442504883,0,0
274.949001,-0.491973876953125,-0.775421142578125,-0.3377685546875,-0.206207275390625,-0.1220703125,0.0,-0.18310546875,-0.0133056640625,0.9031982421875,-0.431640625,111.0,-15.0,-110.0,103165.0,-15.211000442504883,0,0
274.955996,-0.491973876953125,-0.775421142578125,-0.3377685546875,-0.20623779296875,0.3662109375,0.18310546875,-0.18310546875,-0.0120849609375,0.9046630859375,-0.4300537109375,111.0,-15.0,-110.0,103165.0,-15.211000442504883,0,0
274.962996,-0.491973876953125,-0.775421142578125,-0.3377685546875,-0.206207275390625,0.732421875,0.244140625,0.244140625,-0.01318359375,0.9033203125,-0.431640625,111.0,-15.0,-110.0,103165.0,-15.211000442504883,0,0
274.982995,-0.491973876953125,-0.775421142578125,-0.3377685546875,-0.206207275390625,0.67138671875,0.54931640625,0.1220703125,-0.0125732421875,0.903564453125,-0.43115234375,111.0,-15.0,-110.0,103165.0,-15.211000442504883,0,0
274.989995,-0.491973876953125,-0.775421142578125,-0.3377685546875,-0.206207275390625,0.06103515625,0.18310546875,-0.1220703125,-0.012451171875,0.904052734375,-0.4315185546875,111.0,-15.0,-110.0,103165.0,-15.211000442504883,0,0
274.996995,-0.491973876953125,-0.775421142578125,-0.3377685546875,-0.206207275390625,-0.18310546875,0.1220703125,0.1220703125,-0.012939453125,0.9033203125,-0.430419921875,111.0,-15.0,-110.0,103165.0,-15.211000442504883,0,0
275.003998,-0.491973876953125,-0.775421142578125,-0.3377685546875,-0.206207275390625,-0.18310546875,0.18310546875,0.244140625,-0.0106201171875,0.9024658203125,-0.429931640625,111.0,-15.0,-110.0,103165.0,-15.211000442504883,0,0
275.010998,-0.49200439453125,-0.775421142578125,-0.3377685546875,-0.206207275390625,-0.79345703125,0.18310546875,-0.244140625,-0.0133056640625,0.90478515625,-0.429443359375,111.0,-15.0,-110.0,103165.0,-15.211000442504883,0,0
275.017997,-0.49200439453125,-0.775421142578125,-0.3377685546875,-0.206207275390625,-0.3662109375,0.30517578125,0.0,-0.0123291015625,0.9046630859375,-0.4312744140625,111.0,-15.0,-110.0,103165.0,-15.211000442504883,0,0
275.024997,-0.49200439453125,-0.775421142578125,-0.3377685546875,-0.206207275390625,-0.06103515625,0.06103515625,-0.18310546875,-0.0115966796875,0.904296875,-0.4302978515625,111.0,-15.0,-110.0,103165.0,-15.211000442504883,0,0
275.031996,-0.49200439453125,-0.775421142578125,-0.3377685546875,-0.206207275390625,0.0,0.30517578125,-0.1220703125,-0.01318359375,0.902099609375,-0.4332275390625,111.0,-15.0,-110.0,103165.0,-15.211000442504883,0,0
275.038997,-0.491973876953125,-0.775421142578125,-0.3377685546875,-0.20623779296875,-0.48828125,0.18310546875,-0.06103515625,-0.011474609375,0.9022216796875,-0.4302978515625,111.0,-15.0,-110.0,103165.0,-15.212000846862793,0,0
275.045995,-0.491973876953125,-0.775421142578125,-0.3377685546875,-0.206207275390625,0.0,0.3662109375,0.18310546875,-0.0133056640625,0.9017333984375,-0.4293212890625,113.0,-15.0,-109.0,103165.0,-15.212000846862793,0,0
275.052995,-0.491912841796875,-0.77532958984375,-0.3380126953125,-0.206390380859375,0.244140625,0.3662109375,-0.1220703125,-0.01123046875,0.90380859375,-0.432373046875,113.0,-15.0,-109.0,103165.0,-15.212000846862793,0,0
275.059995,-0.491912841796875,-0.77532958984375,-0.3380126953125,-0.206390380859375,0.0,0.18310546875,-0.1220703125,-0.0125732421875,0.90234375,-0.4310302734375,113.0,-15.0,-109.0,103165.0,-15.212000846862793,0,0
275.066022,-0.491912841796875,-0.77532958984375,-0.3380126953125,-0.206390380859375,0.0,0.18310546875,-0.1220703125,-0.0125732421875,0.90234375,-0.4310302734375,113.0,-15.0,-109.0,103165.0,-15.212000846862793,0,0
275.072995,-0.491912841796875,-0.77532958984375,-0.3380126953125,-0.206390380859375,-0.18310546875,0.3662109375,0.0,-0.0108642578125,0.9027099609375,-0.431884765625,113.0,-15.0,-109.0,103165.0,-15.212000846862793,0,0
275.079995,-0.491912841796875,-0.77532958984375,-0.3380126953125,-0.206390380859375,-0.3662109375,0.18310546875,-0.244140625,-0.0137939453125,0.9027099609375,-0.429931640625,113.0,-15.0,-109.0,103165.0,-15.212000846862793,0,0
275.086995,-0.491912841796875,-0.77532958984375,-0.3380126953125,-0.206390380859375,0.0,0.18310546875,0.06103515625,-0.0135498046875,0.9033203125,-0.4326171875,113.0,-15.0,-109.0,103165.0,-15.212000846862793,0,0
275.093998,-0.491912841796875,-0.77532958984375,-0.3380126953125,-0.206390380859375,-0.42724609375,0.30517578125,0.06103515625,-0.0128173828125,0.9052734375,-0.4305419921875,113.0,-15.0,-109.0,103165.0,-15.212000846862793,0,0
275.100998,-0.491912841796875,-0.77532958984375,-0.3380126953125,-0.206390380859375,-0.06103515625,0.18310546875,-0.06103515625,-0.0133056640625,0.9029541015625,-0.4315185546875,113.0,-15.0,-109.0,103165.0,-15.212000846862793,0,0
275.107997,-0.491912841796875,-0.77532958984375,-0.3380126953125,-0.206390380859375,-0.42724609375,0.18310546875,0.0,-0.0126953125,0.9034423828125,-0.4315185546875,113.0,-15.0,-109.0,103165.0,-15.212000846862793,0,0
275.114997,-0.491912841796875,-0.77532958984375,-0.3380126953125,-0.206390380859375,0.30517578125,0.54931640625,0.0,-0.0133056640625,0.9034423828125,-0.43115234375,113.0,-15.0,-109.0,103165.0,-15.212000846862793,0,0
275.121996,-0.491912841796875,-0.77532958984375,-0.3380126953125,-0.206390380859375,-0.732421875,0.18310546875,0.18310546875,-0.0106201171875,0.9031982421875,-0.4315185546875,113.0,-15.0,-109.0,103165.0,-15.212000846862793,0,0
275.128997,-0.491912841796875,-0.77532958984375,-0.3380126953125,-0.206390380859375,-0.06103515625,0.3662109375,-0.18310546875,-0.0133056640625,0.90380859375,-0.429931640625,113.0,-15.0,-109.0,103165.0,-15.212000846862793,0,0
275.135995,-0.491912841796875,-0.77532958984375,-0.3380126953125,-0.206390380859375,0.06103515625,0.3662109375,0.0,-0.0135498046875,0.9010009765625,-0.432373046875,113.0,-15.0,-109.0,103165.0,-15.212000846862793,0,0
275.156022,-0.4918212890625,-0.77520751953125,-0.3382568359375,-0.20654296875,-0.3662109375,0.244140625,0.06103515625,-0.0128173828125,0.9019775390625,-0.4322509765625,114.0,-14.0,-110.0,103165.0,-15.212000846862793,0,0
275.162995,-0.4918212890625,-0.775238037109375,-0.3382568359375,-0.20654296875,-0.06103515625,0.244140625,-0.06103515625,-0.01123046875,0.9036865234375,-0.4317626953125,114.0,-14.0,-110.0,103165.0,-15.212000846862793,0,0
275.169995,-0.4918212890625,-0.775238037109375,-0.3382568359375,-0.20654296875,-0.1220703125,0.244140625,0.0,-0.0130615234375,0.9019775390625,-0.432861328125,114.0,-14.0,-110.0,103165.0,-15.212000846862793,0,0
275.176999,-0.4918212890625,-0.77520751953125,-0.3382568359375,-0.20654296875,-0.1220703125,0.18310546875,-0.30517578125,-0.015625,0.902099609375,-0.4306640625,114.0,-14.0,-110.0,103165.0,-15.212000846862793,0,0
275.183999,-0.4918212890625,-0.775238037109375,-0.3382568359375,-0.20654296875,-0.244140625,-0.06103515625,-0.18310546875,-0.0107421875,0.9012451171875,-0.43212890625,114.0,-14.0,-110.0,103165.0,-15.212000846862793,0,0
275.190998,-0.4918212890625,-0.775238037109375,-0.3382568359375,-0.20654296875,0.18310546875,0.1220703125,-0.1220703125,-0.0098876953125,0.9034423828125,-0.43310546875,114.0,-14.0,-110.0,103165.0,-15.212000846862793,0,0
275.197997,-0.4918212890625,-0.775238037109375,-0.3382568359375,-0.20654296875,-0.30517578125,0.18310546875,-0.1220703125,-0.0135498046875,0.902587890625,-0.4305419921875,114.0,-14.0,-110.0,103165.0,-15.212000846862793,0,0
275.204997,-0.4918212890625,-0.775238037109375,-0.3382568359375,-0.20654296875,-0.3662109375,0.1220703125,0.0,-0.01123046875,0.902099609375,-0.4320068359375,114.0,-14.0,-110.0,103165.0,-15.212000846862793,0,0
275.211996,-0.4918212890625,-0.775238037109375,-0.3382568359375,-0.20654296875,0.0,0.244140625,0.0,-0.0118408203125,0.9034423828125,-0.432373046875,114.0,-14.0,-110.0,103165.0,-15.212000846862793,0,0
275.219001,-0.4918212890625,-0.775238037109375,-0.3382568359375,-0.20654296875,0.3662109375,0.06103515625,-0.18310546875,-0.013671875,0.904296875,-0.4290771484375,114.0,-14.0,-110.0,103165.0,-15.212000846862793,0,0
275.225996,-0.4918212890625,-0.775238037109375,-0.3382568359375,-0.20654296875,0.18310546875,0.18310546875,0.06103515625,-0.0115966796875,0.90234375,-0.432373046875,114.0,-14.0,-110.0,103165.0,-15.212000846862793,0,0
275.246999,-0.49176025390625,-0.775115966796875,-0.3385009765625,-0.206695556640625,0.1220703125,0.1220703125,-0.06103515625,-0.0135498046875,0.90380859375,-0.431884765625,113.0,-15.0,-109.0,103165.0,-15.212000846862793,0,0
275.253031,-0.49176025390625,-0.775115966796875,-0.3385009765625,-0.206695556640625,0.1220703125,0.1220703125,-0.06103515625,-0.0135498046875,0.90380859375,-0.431884765625,113.0,-15.0,-109.0,103165.0,-15.212000846862793,0,0
275.259996,-0.49176025390625,-0.775115966796875,-0.3385009765625,-0.206695556640625,0.06103515625,0.0,-0.18310546875,-0.0111083984375,0.9019775390625,-0.4322509765625,113.0,-15.0,-109.0,103165.0,-15.212000846862793,0,0
275.266995,-0.49176025390625,-0.775115966796875,-0.3385009765625,-0.206695556640625,0.1220703125,0.18310546875,0.0,-0.0135498046875,0.90283203125,-0.4307861328125,113.0,-15.0,-109.0,103165.0,-15.212000846862793,0,0
275.273998,-0.49176025390625,-0.775115966796875,-0.3385009765625,-0.206695556640625,0.06103515625,0.42724609375,-0.1220703125,-0.0130615234375,0.902099609375,-0.4327392578125,113.0,-15.0,-109.0,103165.0,-15.212000846862793,0,0
275.280998,-0.49176025390625,-0.775115966796875,-0.338531494140625,-0.206695556640625,-0.18310546875,-0.06103515625,-0.30517578125,-0.0133056640625,0.9033203125,-0.43115234375,113.0,-15.0,-109.0,103165.0,-15.212000846862793,0,0
275.287997,-0.49176025390625,-0.775115966796875,-0.338531494140625,-0.2066650390625,0.06103515625,-0.06103515625,0.1220703125,-0.0147705078125,0.9019775390625,-0.432861328125,113.0,-15.0,-109.0,103165.0,-15.212000846862793,0,0
275.294997,-0.49176025390625,-0.775115966796875,-0.338531494140625,-0.2066650390625,0.732421875,0.42724609375,0.0,-0.0128173828125,0.9005126953125,-0.4307861328125,113.0,-15.0,-109.0,103165.0,-15.212000846862793,0,0
275.301996,-0.49176025390625,-0.775115966796875,-0.338531494140625,-0.2066650390625,-0.1220703125,0.30517578125,0.0,-0.0115966796875,0.901123046875,-0.431396484375,113.0,-15.0,-109.0,103165.0,-15.212000846862793,0,0
275.308997,-0.49176025390625,-0.775115966796875,-0.338531494140625,-0.2066650390625,0.06103515625,0.18310546875,0.18310546875,-0.0123291015625,0.901611328125,-0.4320068359375,113.0,-15.0,-109.0,103165.0,-15.212000846862793,0,0
275.315995,-0.49176025390625,-0.775115966796875,-0.338531494140625,-0.2066650390625,0.1220703125,0.42724609375,0.06103515625,-0.0137939453125,0.903564453125,-0.43115234375,113.0,-15.0,-109.0,103165.0,-15.212000846862793,0,0
275.322995,-0.49176025390625,-0.775115966796875,-0.338531494140625,-0.2066650390625,-0.18310546875,0.06103515625,-0.06103515625,-0.0133056640625,0.9024658203125,-0.430908203125,113.0,-15.0,-109.0,103165.0,-15.212000846862793,0,0
275.329995,-0.49176025390625,-0.775115966796875,-0.338531494140625,-0.2066650390625,-0.06103515625,0.06103515625,0.1220703125,-0.013916015625,0.904052734375,-0.4315185546875,113.0,-15.0,-109.0,103165.0,-15.212000846862793,0,0
275.336998,-0.49176025390625,-0.775115966796875,-0.338531494140625,-0.2066650390625,-0.1220703125,0.0,-0.1220703125,-0.0130615234375,0.9041748046875,-0.4312744140625,113.0,-15.0,-109.0,103165.0,-15.212000846862793,0,0
275.343031,-0.49176025390625,-0.775115966796875,-0.338531494140625,-0.2066650390625,-0.1220703125,0.0,-0.1220703125,-0.0130615234375,0.9041748046875,-0.4312744140625,113.0,-15.0,-109.0,103165.0,-15.212000846862793,0,0
275.349995,-0.49169921875,-0.774993896484375,-0.338775634765625,-0.206817626953125,0.06103515625,-0.06103515625,-0.06103515625,-0.013671875,0.903564453125,-0.431640625,113.0,-16.0,-109.0,103165.0,-15.212000846862793,0,0
275.356995,-0.491668701171875,-0.7750244140625,-0.338775634765625,-0.206817626953125,-0.1220703125,0.18310546875,-0.1220703125,-0.010986328125,0.902099609375,-0.4317626953125,113.0,-16.0,-109.0,103165.0,-15.212000846862793,0,0
275.363998,-0.491668701171875,-0.7750244140625,-0.338775634765625,-0.206817626953125,-0.42724609375,0.244140625,-0.1220703125,-0.0093994140625,0.90380859375,-0.4315185546875,113.0,-16.0,-109.0,103165.0,-15.212000846862793,0,0
275.370998,-0.491668701171875,-0.7750244140625,-0.338775634765625,-0.20684814453125,0.06103515625,0.1220703125,0.06103515625,-0.0120849609375,0.902587890625,-0.4298095703125,113.0,-16.0,-109.0,103165.0,-15.212000846862793,0,0
275.377997,-0.491668701171875,-0.7750244140625,-0.338775634765625,-0.20684814453125,0.06103515625,0.18310546875,0.18310546875,-0.0125732421875,0.904052734375,-0.43017578125,113.0,-16.0,-109.0,103165.0,-15.212000846862793,0,0
275.384997,-0.49169921875,-0.7750244140625,-0.338775634765625,-0.20684814453125,-0.30517578125,0.18310546875,-0.06103515625,-0.0128173828125,0.9052734375,-0.431640625,113.0,-16.0,-109.0,103165.0,-15.212000846862793,0,0
275.391996,-0.49169921875,-0.7750244140625,-0.338775634765625,-0.20684814453125,-0.48828125,0.0,-0.18310546875,-0.01318359375,0.903564453125,-0.4326171875,113.0,-16.0,-109.0,103165.0,-15.212000846862793,0,0
275.398997,-0.49169921875,-0.774993896484375,-0.338775634765625,-0.20684814453125,0.1220703125,0.30517578125,-0.06103515625,-0.013427734375,0.9044189453125,-0.4306640625,113.0,-16.0,-109.0,103165.0,-15.212000846862793,0,0
275.419995,-0.49169921875,-0.774993896484375,-0.338775634765625,-0.20684814453125,0.0,0.244140625,0.06103515625,-0.013671875,0.9013671875,-0.43115234375,113.0,-16.0,-109.0,103165.0,-15.212000846862793,0,0
275.426998,-0.49169921875,-0.774993896484375,-0.338775634765625,-0.20684814453125,0.30517578125,0.06103515625,-0.06103515625,-0.01513671875,0.904052734375,-0.43212890625,113.0,-16.0,-109.0,103165.0,-15.212000846862793,0,0
275.433998,-0.49169921875,-0.774993896484375,-0.338775634765625,-0.20684814453125,-0.18310546875,0.1220703125,-0.244140625,-0.0133056640625,0.903076171875,-0.4312744140625,113.0,-16.0,-109.0,103165.0,-15.212000846862793,0,0
275.440025,-0.49169921875,-0.774993896484375,-0.338775634765625,-0.20684814453125,-0.18310546875,0.1220703125,-0.244140625,-0.0133056640625,0.903076171875,-0.4312744140625,113.0,-16.0,-109.0,103165.0,-15.212000846862793,0,0
275.446995,-0.49163818359375,-0.77490234375,-0.339019775390625,-0.207000732421875,-0.30517578125,0.244140625,-0.1220703125,-0.0130615234375,0.9024658203125,-0.4310302734375,114.0,-16.0,-110.0,103165.0,-15.212000846862793,0,0
275.453998,-0.49163818359375,-0.77490234375,-0.339019775390625,-0.207000732421875,-0.42724609375,-0.1220703125,-0.244140625,-0.0135498046875,0.903076171875,-0.429931640625,114.0,-16.0,-110.0,103165.0,-15.212000846862793,0,0
275.460998,-0.49163818359375,-0.77490234375,-0.339019775390625,-0.207000732421875,0.06103515625,0.0,0.06103515625,-0.013427734375,0.9024658203125,-0.431640625,114.0,-16.0,-110.0,103165.0,-15.212000846862793,0,0
275.467997,-0.49163818359375,-0.77490234375,-0.339019775390625,-0.207000732421875,-0.244140625,-0.18310546875,0.1220703125,-0.0118408203125,0.9014892578125,-0.429931640625,114.0,-16.0,-110.0,103165.0,-15.212000846862793,0,0
275.474997,-0.49163818359375,-0.77490234375,-0.339019775390625,-0.207000732421875,-0.79345703125,-0.244140625,0.244140625,-0.01171875,0.9034423828125,-0.4300537109375,114.0,-16.0,-110.0,103165.0,-15.212000846862793,0,0
275.481996,-0.49163818359375,-0.77490234375,-0.339019775390625,-0.207000732421875,0.06103515625,0.3662109375,-0.1220703125,-0.01171875,0.9022216796875,-0.430419921875,114.0,-16.0,-110.0,103165.0,-15.212000846862793,0,0
275.502996,-0.49163818359375,-0.77490234375,-0.339019775390625,-0.207000732421875,-0.30517578125,0.0,-0.06103515625,-0.012939453125,0.90380859375,-0.4322509765625,114.0,-16.0,-110.0,103165.0,-15.212000846862793,0,0
275.509999,-0.49163818359375,-0.77490234375,-0.339019775390625,-0.207000732421875,-0.244140625,0.244140625,-0.1220703125,-0.0142822265625,0.9017333984375,-0.4300537109375,114.0,-16.0,-110.0,103165.0,-15.212000846862793,0,0
275.516999,-0.49163818359375,-0.774871826171875,-0.339019775390625,-0.207000732421875,0.06103515625,0.1220703125,-0.30517578125,-0.0137939453125,0.9031982421875,-0.42919921875,114.0,-16.0,-110.0,103165.0,-15.212000846862793,0,0
275.523998,-0.49163818359375,-0.77490234375,-0.339019775390625,-0.207000732421875,0.30517578125,0.18310546875,-0.1220703125,-0.0108642578125,0.9029541015625,-0.4307861328125,114.0,-16.0,-110.0,103165.0,-15.212000846862793,0,0
275.53003,-0.49163818359375,-0.77490234375,-0.339019775390625,-0.207000732421875,0.30517578125,0.18310546875,-0.1220703125,-0.0108642578125,0.9029541015625,-0.4307861328125,114.0,-16.0,-110.0,103165.0,-15.212000846862793,0,0
275.536999,-0.49163818359375,-0.77490234375,-0.339019775390625,-0.20703125,-0.244140625,0.06103515625,-0.06103515625,-0.010498046875,0.90234375,-0.43017578125,114.0,-16.0,-110.0,103165.0,-15.212000846862793,0,0
275.543999,-0.491668701171875,-0.774932861328125,-0.3388671875,-0.206939697265625,-0.06103515625,0.3662109375,0.0,-0.0101318359375,0.9024658203125,-0.4293212890625,115.0,-15.0,-112.0,103165.0,-15.212000846862793,0,0
275.550998,-0.491668701171875,-0.774932861328125,-0.3388671875,-0.206939697265625,0.0,0.244140625,0.0,-0.0128173828125,0.9012451171875,-0.4310302734375,115.0,-15.0,-112.0,103165.0,-15.212000846862793,0,0
275.557997,-0.49169921875,-0.774932861328125,-0.3388671875,-0.206939697265625,-0.18310546875,0.1220703125,0.06103515625,-0.0128173828125,0.9027099609375,-0.4296875,115.0,-15.0,-112.0,103165.0,-15.212000846862793,0,0
275.564997,-0.49169921875,-0.774932861328125,-0.3388671875,-0.206939697265625,-0.06103515625,0.06103515625,-0.1220703125,-0.0103759765625,0.9024658203125,-0.4315185546875,115.0,-15.0,-112.0,103165.0,-15.212000846862793,0,0
275.571996,-0.49169921875,-0.774932861328125,-0.338897705078125,-0.206939697265625,0.06103515625,0.06103515625,0.0,-0.0145263671875,0.9034423828125,-0.431884765625,115.0,-15.0,-112.0,103165.0,-15.212000846862793,0,0
275.578997,-0.49169921875,-0.774932861328125,-0.3388671875,-0.206939697265625,0.0,0.1220703125,-0.1220703125,-0.0107421875,0.902099609375,-0.4298095703125,115.0,-15.0,-112.0,103165.0,-15.212000846862793,0,0
275.585995,-0.49169921875,-0.774932861328125,-0.3388671875,-0.206939697265625,-0.1220703125,0.30517578125,-0.06103515625,-0.009765625,0.90185546875,-0.4312744140625,115.0,-15.0,-112.0,103165.0,-15.212000846862793,0,0
275.592995,-0.49169921875,-0.774932861328125,-0.3388671875,-0.206939697265625,-0.06103515625,0.244140625,-0.06103515625,-0.013916015625,0.902587890625,-0.4310302734375,115.0,-15.0,-112.0,103165.0,-15.212000846862793,0,0
275.599995,-0.49169921875,-0.774932861328125,-0.3388671875,-0.206939697265625,-0.48828125,0.244140625,-0.1220703125,-0.0115966796875,0.90185546875,-0.429931640625,115.0,-15.0,-112.0,103165.0,-15.212000846862793,0,0
275.606998,-0.49169921875,-0.774932861328125,-0.3388671875,-0.206939697265625,-0.06103515625,0.1220703125,0.06103515625,-0.01123046875,0.903076171875,-0.4317626953125,115.0,-15.0,-112.0,103165.0,-15.212000846862793,0,0
275.613998,-0.49169921875,-0.774932861328125,-0.3388671875,-0.20697021484375,-0.42724609375,0.18310546875,0.06103515625,-0.01171875,0.8988037109375,-0.4288330078125,115.0,-15.0,-112.0,103165.0,-15.212000846862793,0,0
275.620997,-0.491455078125,-0.775054931640625,-0.338958740234375,-0.2069091796875,4.8828125,0.6103515625,0.9765625,-0.013671875,0.90966796875,-0.4342041015625,115.0,-15.0,-112.0,103165.0,-15.212000846862793,0,0
275.62703,-0.491455078125,-0.775054931640625,-0.338958740234375,-0.2069091796875,4.8828125,0.6103515625,0.9765625,-0.013671875,0.90966796875,-0.4342041015625,115.0,-15.0,-112.0,103165.0,-15.212000846862793,0,0
275.633998,-0.4913330078125,-0.775115966796875,-0.339019775390625,-0.2069091796875,1.220703125,1.15966796875,-0.3662109375,-0.013671875,0.8988037109375,-0.4364013671875,115.0,-15.0,-112.0,103165.0,-15.212000846862793,0,0
275.640998,-0.491424560546875,-0.77508544921875,-0.338958740234375,-0.2069091796875,-2.685546875,-0.54931640625,0.79345703125,-0.01171875,0.903564453125,-0.4365234375,115.0,-15.0,-112.0,103165.0,-15.212000846862793,0,0
275.647997,-0.491455078125,-0.77508544921875,-0.338897705078125,-0.2069091796875,-0.79345703125,0.6103515625,-0.30517578125,-0.013671875,0.9156494140625,-0.425048828125,116.0,-16.0,-112.0,103165.0,-15.212000846862793,0,0
275.654997,-0.491455078125,-0.77508544921875,-0.338897705078125,-0.206939697265625,-1.40380859375,0.48828125,-0.1220703125,-0.010009765625,0.9212646484375,-0.4344482421875,116.0,-16.0,-112.0,103165.0,-15.212000846862793,0,0
275.675995,-0.491455078125,-0.77508544921875,-0.33892822265625,-0.2069091796875,-0.79345703125,1.0986328125,0.244140625,-0.0155029296875,0.910400390625,-0.4349365234375,116.0,-16.0,-112.0,103165.0,-15.212000846862793,0,0
275.682995,-0.491424560546875,-0.775115966796875,-0.33892822265625,-0.20684814453125,-0.30517578125,0.0,0.06103515625,-0.015869140625,0.894775390625,-0.4305419921875,116.0,-16.0,-112.0,103165.0,-15.212000846862793,0,0
275.689995,-0.491485595703125,-0.77508544921875,-0.338897705078125,-0.20684814453125,-1.3427734375,-1.220703125,-0.18310546875,-0.0101318359375,0.9168701171875,-0.4281005859375,116.0,-16.0,-112.0,103165.0,-15.212000846862793,0,0
275.696998,-0.49151611328125,-0.77508544921875,-0.338897705078125,-0.20684814453125,0.1220703125,0.6103515625,0.06103515625,-0.0150146484375,0.898193359375,-0.427734375,116.0,-16.0,-112.0,103165.0,-15.212000846862793,0,0
275.703998,-0.491455078125,-0.775115966796875,-0.338897705078125,-0.206787109375,-0.3662109375,1.28173828125,-0.3662109375,-0.0150146484375,0.8797607421875,-0.4326171875,116.0,-16.0,-112.0,103165.0,-15.212000846862793,0,0
275.710997,-0.491363525390625,-0.775177001953125,-0.33892822265625,-0.20672607421875,2.25830078125,0.18310546875,-0.3662109375,-0.0111083984375,0.89892578125,-0.4381103515625,116.0,-16.0,-112.0,103165.0,-15.212000846862793,0,0
275.71703,-0.491363525390625,-0.775177001953125,-0.33892822265625,-0.20672607421875,2.25830078125,0.18310546875,-0.3662109375,-0.0111083984375,0.89892578125,-0.4381103515625,116.0,-16.0,-112.0,103165.0,-15.212000846862793,0,0
275.723998,-0.491302490234375,-0.775177001953125,-0.338958740234375,-0.206756591796875,0.48828125,-0.06103515625,-0.42724609375,-0.0096435546875,0.9007568359375,-0.4373779296875,116.0,-16.0,-112.0,103165.0,-15.212000846862793,0,0
275.730998,-0.491302490234375,-0.77520751953125,-0.338958740234375,-0.20672607421875,0.06103515625,-0.54931640625,-0.1220703125,-0.012939453125,0.89599609375,-0.437255859375,116.0,-16.0,-112.0,103165.0,-15.212000846862793,0,0
275.737997,-0.491302490234375,-0.77520751953125,-0.3389892578125,-0.20672607421875,-0.48828125,0.91552734375,0.30517578125,-0.015869140625,0.8974609375,-0.4356689453125,116.0,-16.0,-112.0,103165.0,-15.212000846862793,0,0
275.744997,-0.4912109375,-0.77508544921875,-0.3392333984375,-0.2069091796875,-0.67138671875,0.1220703125,-0.18310546875,-0.0103759765625,0.899169921875,-0.4273681640625,117.0,-15.0,-113.0,103165.0,-15.212000846862793,0,0
275.765995,-0.491241455078125,-0.775054931640625,-0.3392333984375,-0.2069091796875,0.1220703125,0.3662109375,0.06103515625,-0.0146484375,0.8980712890625,-0.4315185546875,117.0,-15.0,-113.0,103165.0,-15.212000846862793,0,0
275.772995,-0.491241455078125,-0.775054931640625,-0.3392333984375,-0.2069091796875,-0.54931640625,-0.06103515625,-0.18310546875,-0.01171875,0.902099609375,-0.429931640625,117.0,-15.0,-113.0,103165.0,-15.212000846862793,0,0
275.779999,-0.491241455078125,-0.775054931640625,-0.3392333984375,-0.206939697265625,-0.1220703125,-0.06103515625,-0.244140625,-0.0115966796875,0.9024658203125,-0.429931640625,117.0,-15.0,-113.0,103165.0,-15.212000846862793,0,0
275.786999,-0.49127197265625,-0.775054931640625,-0.3392333984375,-0.206939697265625,0.67138671875,0.1220703125,0.18310546875,-0.013427734375,0.902587890625,-0.4285888671875,117.0,-15.0,-113.0,103165.0,-15.211000442504883,0,0
275.793998,-0.49127197265625,-0.775054931640625,-0.3392333984375,-0.206939697265625,-0.3662109375,0.30517578125,0.1220703125,-0.0130615234375,0.9031982421875,-0.4290771484375,117.0,-15.0,-113.0,103165.0,-15.211000442504883,0,0
275.800997,-0.49127197265625,-0.7750244140625,-0.3392333984375,-0.206939697265625,-0.3662109375,-0.06103515625,-0.1220703125,-0.0098876953125,0.9039306640625,-0.4288330078125,117.0,-15.0,-113.0,103165.0,-15.211000442504883,0,0
275.807997,-0.491302490234375,-0.7750244140625,-0.3392333984375,-0.206939697265625,0.0,0.30517578125,0.0,-0.01123046875,0.90380859375,-0.4312744140625,117.0,-15.0,-113.0,103165.0,-15.211000442504883,0,0
275.814029,-0.491302490234375,-0.7750244140625,-0.3392333984375,-0.206939697265625,0.0,0.30517578125,0.0,-0.01123046875,0.90380859375,-0.4312744140625,117.0,-15.0,-113.0,103165.0,-15.211000442504883,0,0
275.820998,-0.491302490234375,-0.7750244140625,-0.3392333984375,-0.206939697265625,-0.48828125,0.06103515625,-0.30517578125,-0.012451171875,0.906005859375,-0.432861328125,117.0,-15.0,-113.0,103165.0,-15.211000442504883,0,0
275.827997,-0.491302490234375,-0.7750244140625,-0.3392333984375,-0.206939697265625,-0.8544921875,-0.1220703125,0.1220703125,-0.0130615234375,0.90283203125,-0.43212890625,117.0,-15.0,-113.0,103165.0,-15.211000442504883,0,0
275.834997,-0.491302490234375,-0.7750244140625,-0.3392333984375,-0.206939697265625,0.1220703125,-0.06103515625,0.1220703125,-0.0118408203125,0.9036865234375,-0.4293212890625,117.0,-15.0,-113.0,103165.0,-15.211000442504883,0,0
275.841996,-0.4913330078125,-0.7750244140625,-0.3392333984375,-0.206939697265625,0.0,0.06103515625,-0.18310546875,-0.01318359375,0.901123046875,-0.4290771484375,118.0,-15.0,-112.0,103165.0,-15.211000442504883,0,0
275.849001,-0.491241455078125,-0.77484130859375,-0.339599609375,-0.207183837890625,0.0,0.18310546875,-0.06103515625,-0.0128173828125,0.9036865234375,-0.4312744140625,118.0,-15.0,-112.0,103165.0,-15.211000442504883,0,0
275.855996,-0.491241455078125,-0.77484130859375,-0.339569091796875,-0.207183837890625,-0.06103515625,0.06103515625,-0.06103515625,-0.0133056640625,0.90234375,-0.4293212890625,118.0,-15.0,-112.0,103165.0,-15.211000442504883,0,0
275.862995,-0.491241455078125,-0.77484130859375,-0.339569091796875,-0.207183837890625,-0.54931640625,-0.06103515625,0.06103515625,-0.0107421875,0.899169921875,-0.4281005859375,118.0,-15.0,-112.0,103165.0,-15.211000442504883,0,0
275.869995,-0.491241455078125,-0.77484130859375,-0.339569091796875,-0.207183837890625,0.3662109375,0.18310546875,0.30517578125,-0.0111083984375,0.9036865234375,-0.4298095703125,118.0,-15.0,-112.0,103165.0,-15.211000442504883,0,0
275.876998,-0.491241455078125,-0.77484130859375,-0.339569091796875,-0.207183837890625,0.0,0.06103515625,0.0,-0.0128173828125,0.904052734375,-0.43212890625,118.0,-15.0,-112.0,103165.0,-15.211000442504883,0,0
275.883998,-0.491241455078125,-0.77484130859375,-0.339569091796875,-0.207183837890625,-0.18310546875,0.06103515625,-0.1220703125,-0.01220703125,0.903564453125,-0.431884765625,118.0,-15.0,-112.0,103165.0,-15.211000442504883,0,0
275.890997,-0.491241455078125,-0.77484130859375,-0.339569091796875,-0.207183837890625,0.1220703125,0.244140625,-0.06103515625,-0.0107421875,0.90185546875,-0.4312744140625,118.0,-15.0,-112.0,103165.0,-15.211000442504883,0,0
275.897997,-0.49127197265625,-0.77484130859375,-0.339569091796875,-0.20721435546875,0.1220703125,0.30517578125,0.0,-0.0111083984375,0.9029541015625,-0.4305419921875,118.0,-15.0,-112.0,103165.0,-15.211000442504883,0,0
275.904029,-0.49127197265625,-0.77484130859375,-0.339569091796875,-0.20721435546875,0.1220703125,0.30517578125,0.0,-0.0111083984375,0.9029541015625,-0.4305419921875,118.0,-15.0,-112.0,103165.0,-15.211000442504883,0,0
275.910998,-0.49127197265625,-0.77484130859375,-0.339569091796875,-0.20721435546875,-0.30517578125,0.18310546875,0.06103515625,-0.013916015625,0.904541015625,-0.4329833984375,118.0,-15.0,-112.0,103165.0,-15.211000442504883,0,0
275.917997,-0.49127197265625,-0.77484130859375,-0.339569091796875,-0.20721435546875,-0.18310546875,0.30517578125,-0.1220703125,-0.01171875,0.89990234375,-0.4310302734375,118.0,-15.0,-112.0,103165.0,-15.211000442504883,0,0
275.938997,-0.49127197265625,-0.77484130859375,-0.339569091796875,-0.20721435546875,-0.9765625,0.1220703125,-0.06103515625,-0.0123291015625,0.902587890625,-0.4320068359375,117.0,-15.0,-113.0,103165.0,-15.211000442504883,0,0
275.945995,-0.4912109375,-0.77471923828125,-0.339813232421875,-0.207366943359375,0.244140625,0.1220703125,-0.18310546875,-0.012451171875,0.90283203125,-0.43017578125,117.0,-15.0,-113.0,103165.0,-15.211000442504883,0,0
275.952995,-0.4912109375,-0.77471923828125,-0.33978271484375,-0.207366943359375,0.30517578125,0.30517578125,0.06103515625,-0.011962890625,0.90380859375,-0.4305419921875,117.0,-15.0,-113.0,103165.0,-15.211000442504883,0,0
275.959995,-0.4912109375,-0.77471923828125,-0.33978271484375,-0.207366943359375,-0.06103515625,0.42724609375,-0.18310546875,-0.013427734375,0.90283203125,-0.4320068359375,117.0,-15.0,-113.0,103165.0,-15.211000442504883,0,0
275.966998,-0.4912109375,-0.77471923828125,-0.33978271484375,-0.207366943359375,-0.3662109375,0.244140625,0.06103515625,-0.01123046875,0.9019775390625,-0.4317626953125,117.0,-15.0,-113.0,103165.0,-15.211000442504883,0,0
275.973998,-0.4912109375,-0.77471923828125,-0.33978271484375,-0.2073974609375,0.0,0.244140625,-0.18310546875,-0.01171875,0.904296875,-0.4290771484375,117.0,-15.0,-113.0,103165.0,-15.211000442504883,0,0
275.980997,-0.4912109375,-0.77471923828125,-0.33978271484375,-0.2073974609375,-0.18310546875,0.0,-0.30517578125,-0.011474609375,0.9027099609375,-0.4298095703125,117.0,-15.0,-113.0,103165.0,-15.211000442504883,0,0
275.987997,-0.4912109375,-0.77471923828125,-0.33978271484375,-0.2073974609375,-0.244140625,0.3662109375,0.06103515625,-0.0123291015625,0.901123046875,-0.43212890625,117.0,-15.0,-113.0,103165.0,-15.210000991821289,0,0
275.994996,-0.4912109375,-0.77471923828125,-0.33978271484375,-0.2073974609375,0.06103515625,0.06103515625,-0.1220703125,-0.0130615234375,0.9022216796875,-0.430908203125,117.0,-15.0,-113.0,103165.0,-15.210000991821289,0,0
276.001029,-0.4912109375,-0.77471923828125,-0.33978271484375,-0.2073974609375,0.06103515625,0.06103515625,-0.1220703125,-0.0130615234375,0.9022216796875,-0.430908203125,117.0,-15.0,-113.0,103165.0,-15.210000991821289,0,0
276.007997,-0.491241455078125,-0.77471923828125,-0.33978271484375,-0.2073974609375,-0.18310546875,0.06103515625,-0.18310546875,-0.013427734375,0.9036865234375,-0.4312744140625,117.0,-15.0,-113.0,103165.0,-15.210000991821289,0,0
276.028997,-0.491180419921875,-0.77471923828125,-0.339813232421875,-0.2073974609375,1.15966796875,0.54931640625,-0.06103515625,-0.013671875,0.903564453125,-0.43115234375,117.0,-15.0,-113.0,103165.0,-15.210000991821289,0,0
276.035995,-0.4910888671875,-0.7747802734375,-0.33984375,-0.2073974609375,3.2958984375,0.42724609375,0.6103515625,-0.01611328125,0.887451171875,-0.4268798828125,117.0,-15.0,-113.0,103165.0,-15.210000991821289,0,0
276.042995,-0.491058349609375,-0.7747802734375,-0.33984375,-0.2073974609375,-0.06103515625,0.91552734375,-0.79345703125,-0.0096435546875,0.89404296875,-0.436767578125,116.0,-14.0,-113.0,103165.0,-15.210000991821289,0,0
276.049995,-0.491058349609375,-0.774810791015625,-0.339813232421875,-0.207366943359375,-0.732421875,-0.06103515625,0.06103515625,-0.0135498046875,0.8768310546875,-0.428955078125,116.0,-14.0,-113.0,103165.0,-15.210000991821289,0,0
276.056998,-0.49102783203125,-0.77484130859375,-0.339813232421875,-0.207366943359375,-1.28173828125,0.0,-0.06103515625,-0.0133056640625,0.89599609375,-0.434814453125,116.0,-14.0,-113.0,103165.0,-15.210000991821289,0,0
276.063998,-0.4910888671875,-0.774810791015625,-0.33978271484375,-0.2073974609375,-1.0986328125,-0.30517578125,0.30517578125,-0.0111083984375,0.9156494140625,-0.42822265625,116.0,-14.0,-113.0,103165.0,-15.210000991821289,0,0
276.070997,-0.4910888671875,-0.7747802734375,-0.339752197265625,-0.207427978515625,0.67138671875,0.06103515625,-0.42724609375,-0.0079345703125,0.9178466796875,-0.42626953125,116.0,-14.0,-113.0,103165.0,-15.210000991821289,0,0
276.077997,-0.49114990234375,-0.774749755859375,-0.339752197265625,-0.207427978515625,-1.28173828125,-0.18310546875,-0.06103515625,-0.0111083984375,0.9041748046875,-0.425537109375,116.0,-14.0,-113.0,103165.0,-15.210000991821289,0,0
276.084996,-0.49114990234375,-0.774749755859375,-0.339752197265625,-0.207427978515625,0.48828125,0.91552734375,0.0,-0.01220703125,0.90234375,-0.42919921875,116.0,-14.0,-113.0,103165.0,-15.210000991821289,0,0
276.091029,-0.49114990234375,-0.774749755859375,-0.339752197265625,-0.207427978515625,0.48828125,0.91552734375,0.0,-0.01220703125,0.90234375,-0.42919921875,116.0,-14.0,-113.0,103165.0,-15.210000991821289,0,0
276.097997,-0.491180419921875,-0.774749755859375,-0.3397216796875,-0.207427978515625,-1.46484375,-0.54931640625,-0.30517578125,-0.0087890625,0.8990478515625,-0.4345703125,116.0,-14.0,-113.0,103165.0,-15.211000442504883,0,0
276.104997,-0.491180419921875,-0.774749755859375,-0.3397216796875,-0.207427978515625,-1.220703125,0.18310546875,0.06103515625,-0.0128173828125,0.901123046875,-0.435302734375,116.0,-14.0,-113.0,103165.0,-15.211000442504883,0,0
276.111996,-0.4912109375,-0.774749755859375,-0.3397216796875,-0.207427978515625,-0.67138671875,0.732421875,0.18310546875,-0.0133056640625,0.916259765625,-0.429931640625,116.0,-14.0,-113.0,103165.0,-15.211000442504883,0,0
276.119001,-0.491180419921875,-0.7747802734375,-0.3397216796875,-0.2073974609375,-0.48828125,-0.1220703125,-0.30517578125,-0.011474609375,0.905517578125,-0.43212890625,116.0,-14.0,-113.0,103165.0,-15.211000442504883,0,0
276.125996,-0.491180419921875,-0.7747802734375,-0.3397216796875,-0.2073974609375,0.67138671875,0.244140625,0.1220703125,-0.0150146484375,0.9005126953125,-0.431640625,116.0,-14.0,-113.0,103165.0,-15.211000442504883,0,0
276.132996,-0.4912109375,-0.774749755859375,-0.3397216796875,-0.207427978515625,-1.28173828125,0.732421875,0.3662109375,-0.013427734375,0.9090576171875,-0.4307861328125,116.0,-14.0,-113.0,103165.0,-15.211000442504883,0,0
276.139999,-0.491302490234375,-0.774749755859375,-0.339599609375,-0.20733642578125,-0.9765625,-1.52587890625,0.67138671875,-0.008544921875,0.9288330078125,-0.430419921875,115.0,-14.0,-113.0,103165.0,-15.211000442504883,0,0
276.146999,-0.49127197265625,-0.774749755859375,-0.339630126953125,-0.207366943359375,1.0986328125,1.40380859375,-0.18310546875,-0.01611328125,0.903564453125,-0.43408203125,115.0,-14.0,-113.0,103165.0,-15.211000442504883,0,0
276.153998,-0.491241455078125,-0.7747802734375,-0.339630126953125,-0.207366943359375,-0.732421875,-0.42724609375,0.1220703125,-0.0107421875,0.8973388671875,-0.435791015625,115.0,-14.0,-113.0,103165.0,-15.211000442504883,0,0
276.160997,-0.491180419921875,-0.774810791015625,-0.33966064453125,-0.207305908203125,1.15966796875,0.06103515625,-0.48828125,-0.010986328125,0.8919677734375,-0.4290771484375,115.0,-14.0,-113.0,103165.0,-15.211000442504883,0,0
276.167997,-0.491180419921875,-0.774810791015625,-0.33966064453125,-0.207305908203125,-0.42724609375,0.0,-0.244140625,-0.0107421875,0.8924560546875,-0.4342041015625,115.0,-14.0,-113.0,103165.0,-15.211000442504883,0,0
276.174996,-0.4912109375,-0.7747802734375,-0.33966064453125,-0.207366943359375,-1.3427734375,0.48828125,0.244140625,-0.01025390625,0.91943359375,-0.4345703125,115.0,-14.0,-113.0,103165.0,-15.211000442504883,0,0
276.181997,-0.4912109375,-0.7747802734375,-0.33966064453125,-0.207366943359375,0.67138671875,0.0,-0.06103515625,-0.013427734375,0.90087890625,-0.43115234375,115.0,-14.0,-113.0,103165.0,-15.211000442504883,0,0
276.201996,-0.491241455078125,-0.7747802734375,-0.33966064453125,-0.207366943359375,0.244140625,0.18310546875,0.06103515625,-0.01220703125,0.9024658203125,-0.4273681640625,115.0,-14.0,-113.0,103165.0,-15.211000442504883,0,0
276.208997,-0.491241455078125,-0.7747802734375,-0.33966064453125,-0.207366943359375,0.18310546875,0.30517578125,0.1220703125,-0.0130615234375,0.90478515625,-0.4293212890625,115.0,-14.0,-113.0,103165.0,-15.211000442504883,0,0
276.215995,-0.491241455078125,-0.7747802734375,-0.33966064453125,-0.207366943359375,-0.54931640625,0.06103515625,-0.18310546875,-0.0111083984375,0.900634765625,-0.4295654296875,115.0,-14.0,-113.0,103165.0,-15.211000442504883,0,0
276.222995,-0.491241455078125,-0.7747802734375,-0.339630126953125,-0.207366943359375,-0.06103515625,0.30517578125,-0.1220703125,-0.01171875,0.9013671875,-0.429443359375,115.0,-14.0,-113.0,103165.0,-15.211000442504883,0,0
276.229995,-0.491241455078125,-0.774749755859375,-0.339630126953125,-0.207366943359375,0.244140625,0.18310546875,0.18310546875,-0.013671875,0.90576171875,-0.42822265625,115.0,-14.0,-113.0,103165.0,-15.211000442504883,0,0
276.236998,-0.49127197265625,-0.774749755859375,-0.339630126953125,-0.207366943359375,0.18310546875,0.06103515625,0.0,-0.0137939453125,0.905517578125,-0.43115234375,115.0,-14.0,-113.0,103165.0,-15.211000442504883,0,0
276.243998,-0.491241455078125,-0.774749755859375,-0.339630126953125,-0.207366943359375,-0.244140625,0.18310546875,-0.244140625,-0.01220703125,0.9044189453125,-0.434814453125,115.0,-13.0,-115.0,103165.0,-15.211000442504883,0,0
276.250997,-0.491302490234375,-0.774810791015625,-0.339508056640625,-0.207305908203125,-0.8544921875,0.18310546875,0.0,-0.01220703125,0.90185546875,-0.430419921875,115.0,-13.0,-115.0,103165.0,-15.211000442504883,0,0
276.257997,-0.491302490234375,-0.774810791015625,-0.339508056640625,-0.207305908203125,0.1220703125,0.18310546875,0.1220703125,-0.01318359375,0.9024658203125,-0.4298095703125,115.0,-13.0,-115.0,103165.0,-15.211000442504883,0,0
276.264996,-0.491302490234375,-0.774810791015625,-0.339508056640625,-0.207305908203125,0.42724609375,0.244140625,-0.1220703125,-0.0113525390625,0.903564453125,-0.430419921875,115.0,-13.0,-115.0,103165.0,-15.211000442504883,0,0
276.271997,-0.491302490234375,-0.774810791015625,-0.339508056640625,-0.207305908203125,0.244140625,0.42724609375,-0.244140625,-0.0120849609375,0.90185546875,-0.430908203125,115.0,-13.0,-115.0,103165.0,-15.211000442504883,0,0
276.291996,-0.4913330078125,-0.774810791015625,-0.339508056640625,-0.207305908203125,-0.06103515625,0.30517578125,0.0,-0.01416015625,0.9039306640625,-0.4302978515625,115.0,-13.0,-115.0,103165.0,-15.211000442504883,0,0
276.298997,-0.4913330078125,-0.774810791015625,-0.339508056640625,-0.207305908203125,-0.18310546875,0.18310546875,-0.06103515625,-0.0140380859375,0.9034423828125,-0.4298095703125,115.0,-13.0,-115.0,103165.0,-15.211000442504883,0,0
276.305995,-0.4913330078125,-0.774810791015625,-0.339508056640625,-0.207305908203125,0.244140625,0.18310546875,0.06103515625,-0.0115966796875,0.904296875,-0.4302978515625,115.0,-13.0,-115.0,103165.0,-15.211000442504883,0,0
276.312995,-0.4913330078125,-0.774810791015625,-0.339508056640625,-0.207305908203125,-0.42724609375,0.30517578125,0.0,-0.0133056640625,0.90478515625,-0.4307861328125,115.0,-13.0,-115.0,103165.0,-15.211000442504883,0,0
276.319995,-0.4913330078125,-0.7747802734375,-0.339508056640625,-0.207305908203125,-0.67138671875,0.1220703125,-0.1220703125,-0.010498046875,0.9041748046875,-0.4305419921875,115.0,-13.0,-115.0,103165.0,-15.211000442504883,0,0
276.326998,-0.4913330078125,-0.7747802734375,-0.339508056640625,-0.207305908203125,0.0,0.06103515625,0.0,-0.0123291015625,0.9022216796875,-0.4300537109375,115.0,-13.0,-115.0,103165.0,-15.211000442504883,0,0
276.333998,-0.4913330078125,-0.7747802734375,-0.339508056640625,-0.207305908203125,-0.1220703125,0.18310546875,0.1220703125,-0.01220703125,0.9044189453125,-0.4315185546875,115.0,-13.0,-115.0,103165.0,-15.211000442504883,0,0
276.340997,-0.4913330078125,-0.7747802734375,-0.339508056640625,-0.207305908203125,0.0,0.0,0.0,-0.01171875,0.904052734375,-0.43017578125,116.0,-13.0,-113.0,103165.0,-15.212000846862793,0,0
276.347997,-0.49127197265625,-0.774688720703125,-0.339752197265625,-0.20745849609375,-0.06103515625,0.1220703125,0.18310546875,-0.0140380859375,0.9022216796875,-0.4317626953125,116.0,-13.0,-113.0,103165.0,-15.212000846862793,0,0
276.354996,-0.49127197265625,-0.774688720703125,-0.339752197265625,-0.20745849609375,-0.30517578125,0.18310546875,-0.06103515625,-0.0123291015625,0.9017333984375,-0.4310302734375,116.0,-13.0,-113.0,103165.0,-15.212000846862793,0,0
276.361997,-0.49127197265625,-0.774688720703125,-0.339752197265625,-0.20745849609375,-0.3662109375,0.18310546875,-0.06103515625,-0.0125732421875,0.90283203125,-0.430419921875,116.0,-13.0,-113.0,103165.0,-15.212000846862793,0,0
276.368995,-0.49127197265625,-0.774688720703125,-0.339752197265625,-0.20745849609375,0.18310546875,0.1220703125,-0.06103515625,-0.0115966796875,0.9019775390625,-0.4310302734375,116.0,-13.0,-113.0,103165.0,-15.212000846862793,0,0
276.375024,-0.49127197265625,-0.774688720703125,-0.339752197265625,-0.20745849609375,0.18310546875,0.1220703125,-0.06103515625,-0.0115966796875,0.9019775390625,-0.4310302734375,116.0,-13.0,-113.0,103165.0,-15.212000846862793,0,0
276.381996,-0.49127197265625,-0.774688720703125,-0.3397216796875,-0.20745849609375,0.06103515625,0.06103515625,-0.18310546875,-0.0120849609375,0.9022216796875,-0.43212890625,116.0,-13.0,-113.0,103165.0,-15.212000846862793,0,0
276.389001,-0.49127197265625,-0.774688720703125,-0.339752197265625,-0.20745849609375,0.0,0.3662109375,0.1220703125,-0.015869140625,0.906005859375,-0.430908203125,116.0,-13.0,-113.0,103165.0,-15.212000846862793,0,0
276.395996,-0.491302490234375,-0.774658203125,-0.3397216796875,-0.207489013671875,-0.18310546875,0.244140625,-0.06103515625,-0.01025390625,0.9010009765625,-0.43017578125,116.0,-13.0,-113.0,103165.0,-15.212000846862793,0,0
276.402996,-0.491302490234375,-0.774658203125,-0.3397216796875,-0.207489013671875,-0.30517578125,0.30517578125,-0.06103515625,-0.0130615234375,0.903564453125,-0.4300537109375,116.0,-13.0,-113.0,103165.0,-15.212000846862793,0,0
276.409999,-0.491302490234375,-0.774658203125,-0.339752197265625,-0.20745849609375,-0.18310546875,0.1220703125,0.0,-0.015625,0.90380859375,-0.4310302734375,116.0,-13.0,-113.0,103165.0,-15.212000846862793,0,0
276.416999,-0.491302490234375,-0.774658203125,-0.339752197265625,-0.20745849609375,-0.06103515625,0.244140625,0.0,-0.0125732421875,0.9013671875,-0.4305419921875,116.0,-13.0,-113.0,103165.0,-15.212000846862793,0,0
276.423998,-0.491302490234375,-0.774658203125,-0.339752197265625,-0.20745849609375,-0.06103515625,-0.1220703125,-0.1220703125,-0.01318359375,0.90234375,-0.4306640625,116.0,-13.0,-113.0,103165.0,-15.212000846862793,0,0
276.430997,-0.491302490234375,-0.774658203125,-0.339752197265625,-0.20745849609375,0.06103515625,0.244140625,-0.06103515625,-0.0128173828125,0.9024658203125,-0.4312744140625,116.0,-13.0,-113.0,103165.0,-15.212000846862793,0,0
276.437997,-0.491302490234375,-0.774658203125,-0.339752197265625,-0.20745849609375,0.0,0.18310546875,-0.1220703125,-0.0111083984375,0.904052734375,-0.431640625,116.0,-13.0,-113.0,103165.0,-15.212000846862793,0,0
276.444996,-0.491302490234375,-0.774658203125,-0.339752197265625,-0.20745849609375,0.1220703125,0.30517578125,0.244140625,-0.011962890625,0.9029541015625,-0.4315185546875,115.0,-13.0,-114.0,103165.0,-15.211000442504883,0,0
276.465024,-0.49139404296875,-0.774688720703125,-0.339630126953125,-0.2073974609375,0.48828125,0.0,-0.18310546875,-0.0106201171875,0.92822265625,-0.430419921875,115.0,-13.0,-114.0,103165.0,-15.211000442504883,0,0
276.471996,-0.491363525390625,-0.774688720703125,-0.339630126953125,-0.207366943359375,0.18310546875,-0.244140625,-0.30517578125,-0.0167236328125,0.888916015625,-0.4227294921875,115.0,-13.0,-114.0,103165.0,-15.211000442504883,0,0
276.478997,-0.4913330078125,-0.77471923828125,-0.339630126953125,-0.20733642578125,0.0,-0.91552734375,-0.30517578125,-0.009521484375,0.9027099609375,-0.439208984375,115.0,-13.0,-114.0,103165.0,-15.211000442504883,0,0
276.485995,-0.4913330078125,-0.77471923828125,-0.339630126953125,-0.20733642578125,-0.67138671875,0.0,0.1220703125,-0.0128173828125,0.8851318359375,-0.43310546875,115.0,-13.0,-114.0,103165.0,-15.211000442504883,0,0
276.492995,-0.4913330078125,-0.774688720703125,-0.33966064453125,-0.2073974609375,-0.9765625,2.0751953125,0.6103515625,-0.0128173828125,0.9044189453125,-0.4285888671875,115.0,-13.0,-114.0,103165.0,-15.211000442504883,0,0
276.499995,-0.491363525390625,-0.774688720703125,-0.339630126953125,-0.207427978515625,-1.46484375,0.244140625,0.1220703125,-0.01123046875,0.90185546875,-0.43310546875,115.0,-13.0,-114.0,103165.0,-15.211000442504883,0,0
276.506998,-0.491302490234375,-0.774688720703125,-0.33966064453125,-0.20745849609375,0.91552734375,1.52587890625,0.48828125,-0.0150146484375,0.8924560546875,-0.42724609375,115.0,-13.0,-114.0,103165.0,-15.211000442504883,0,0
276.513998,-0.4913330078125,-0.774688720703125,-0.339630126953125,-0.20745849609375,-0.3662109375,-0.67138671875,-0.30517578125,-0.00927734375,0.901611328125,-0.42431640625,115.0,-13.0,-114.0,103165.0,-15.211000442504883,0,0
276.520997,-0.4913330078125,-0.774658203125,-0.339630126953125,-0.207611083984375,1.3427734375,1.0986328125,0.48828125,-0.0111083984375,0.90869140625,-0.4327392578125,115.0,-13.0,-114.0,103165.0,-15.211000442504883,0,0
276.527997,-0.49127197265625,-0.774658203125,-0.339691162109375,-0.207611083984375,0.48828125,1.77001953125,-0.67138671875,-0.01171875,0.896240234375,-0.4373779296875,115.0,-13.0,-114.0,103165.0,-15.211000442504883,0,0
276.534996,-0.4912109375,-0.774688720703125,-0.339752197265625,-0.207611083984375,-1.15966796875,-0.06103515625,-0.244140625,-0.0098876953125,0.9056396484375,-0.432373046875,115.0,-13.0,-114.0,103165.0,-15.211000442504883,0,0
276.555023,-0.491241455078125,-0.77484130859375,-0.339447021484375,-0.2073974609375,1.52587890625,-0.42724609375,0.0,-0.0130615234375,0.8934326171875,-0.4266357421875,115.0,-14.0,-114.0,103165.0,-15.211000442504883,0,0
276.561996,-0.49127197265625,-0.77484130859375,-0.339447021484375,-0.2073974609375,-0.18310546875,-0.48828125,0.42724609375,-0.0135498046875,0.9090576171875,-0.4288330078125,115.0,-14.0,-114.0,103165.0,-15.211000442504883,0,0
276.568997,-0.491302490234375,-0.774810791015625,-0.339447021484375,-0.2073974609375,0.54931640625,0.30517578125,0.06103515625,-0.0115966796875,0.90966796875,-0.4317626953125,115.0,-14.0,-114.0,103165.0,-15.211000442504883,0,0
276.575995,-0.491302490234375,-0.774810791015625,-0.339447021484375,-0.207366943359375,0.06103515625,0.67138671875,-0.244140625,-0.0194091796875,0.89013671875,-0.4246826171875,115.0,-14.0,-114.0,103165.0,-15.211000442504883,0,0
276.582995,-0.491302490234375,-0.774810791015625,-0.33941650390625,-0.2073974609375,-0.42724609375,0.0,-0.06103515625,-0.0067138671875,0.92529296875,-0.4266357421875,115.0,-14.0,-114.0,103165.0,-15.211000442504883,0,0
276.589995,-0.49127197265625,-0.774810791015625,-0.339447021484375,-0.2073974609375,1.3427734375,1.03759765625,0.06103515625,-0.0140380859375,0.897216796875,-0.42431640625,115.0,-14.0,-114.0,103165.0,-15.211000442504883,0,0
276.596998,-0.491302490234375,-0.774810791015625,-0.339447021484375,-0.207427978515625,-1.40380859375,0.0,0.0,-0.01123046875,0.9041748046875,-0.4346923828125,115.0,-14.0,-114.0,103165.0,-15.211000442504883,0,0
276.603998,-0.491302490234375,-0.774810791015625,-0.339447021484375,-0.207427978515625,-0.91552734375,0.3662109375,-0.18310546875,-0.0106201171875,0.89892578125,-0.427734375,115.0,-14.0,-114.0,103165.0,-15.211000442504883,0,0
276.610997,-0.4913330078125,-0.774810791015625,-0.33941650390625,-0.207427978515625,0.42724609375,0.244140625,0.1220703125,-0.012939453125,0.90087890625,-0.4266357421875,115.0,-14.0,-114.0,103165.0,-15.211000442504883,0,0
276.617997,-0.49127197265625,-0.774810791015625,-0.339447021484375,-0.207427978515625,0.42724609375,0.0,0.0,-0.00830078125,0.9027099609375,-0.4354248046875,115.0,-14.0,-114.0,103165.0,-15.211000442504883,0,0
276.624996,-0.49127197265625,-0.774810791015625,-0.339447021484375,-0.2073974609375,-0.3662109375,0.244140625,-0.1220703125,-0.01318359375,0.9056396484375,-0.43359375,115.0,-14.0,-114.0,103165.0,-15.211000442504883,0,0
276.631997,-0.491302490234375,-0.774810791015625,-0.339447021484375,-0.2073974609375,-0.48828125,0.42724609375,-0.244140625,-0.01171875,0.9051513671875,-0.4281005859375,115.0,-14.0,-114.0,103165.0,-15.211000442504883,0,0
276.638995,-0.491302490234375,-0.774810791015625,-0.339447021484375,-0.207427978515625,0.0,0.06103515625,0.06103515625,-0.01171875,0.9022216796875,-0.4288330078125,115.0,-14.0,-114.0,103165.0,-15.209000587463379,0,0
276.645995,-0.4913330078125,-0.774871826171875,-0.33929443359375,-0.20733642578125,0.18310546875,0.18310546875,-0.1220703125,-0.0106201171875,0.904541015625,-0.4315185546875,115.0,-15.0,-115.0,103165.0,-15.209000587463379,0,0
276.652027,-0.4913330078125,-0.774871826171875,-0.33929443359375,-0.20733642578125,0.18310546875,0.18310546875,-0.1220703125,-0.0106201171875,0.904541015625,-0.4315185546875,115.0,-15.0,-115.0,103165.0,-15.209000587463379,0,0
276.658997,-0.4913330078125,-0.774871826171875,-0.33929443359375,-0.20733642578125,0.42724609375,0.30517578125,0.0,-0.0125732421875,0.901611328125,-0.4302978515625,115.0,-15.0,-115.0,103165.0,-15.209000587463379,0,0
276.665995,-0.4913330078125,-0.774871826171875,-0.33929443359375,-0.20733642578125,0.244140625,0.244140625,-0.06103515625,-0.010498046875,0.90234375,-0.429931640625,115.0,-15.0,-115.0,103165.0,-15.209000587463379,0,0
276.672996,-0.4913330078125,-0.774871826171875,-0.33929443359375,-0.20733642578125,-0.244140625,0.1220703125,-0.06103515625,-0.0157470703125,0.90380859375,-0.4327392578125,115.0,-15.0,-115.0,103165.0,-15.209000587463379,0,0
276.679999,-0.4913330078125,-0.774871826171875,-0.33929443359375,-0.20733642578125,-0.6103515625,0.30517578125,0.1220703125,-0.0120849609375,0.90234375,-0.427978515625,115.0,-15.0,-115.0,103165.0,-15.209000587463379,0,0
276.686999,-0.491363525390625,-0.77484130859375,-0.33929443359375,-0.207366943359375,-0.1220703125,0.06103515625,-0.18310546875,-0.0107421875,0.90283203125,-0.4290771484375,115.0,-15.0,-115.0,103165.0,-15.209000587463379,0,0
276.693998,-0.491363525390625,-0.77484130859375,-0.33929443359375,-0.207366943359375,0.1220703125,0.06103515625,-0.06103515625,-0.012451171875,0.9036865234375,-0.4305419921875,115.0,-15.0,-115.0,103165.0,-15.209000587463379,0,0
276.700997,-0.491363525390625,-0.77484130859375,-0.33929443359375,-0.207366943359375,-0.30517578125,0.18310546875,0.244140625,-0.01123046875,0.9024658203125,-0.4315185546875,115.0,-15.0,-115.0,103165.0,-15.209000587463379,0,0
276.707997,-0.491363525390625,-0.77484130859375,-0.33929443359375,-0.207366943359375,-0.79345703125,-0.1220703125,0.06103515625,-0.0125732421875,0.900146484375,-0.428466796875,115.0,-15.0,-115.0,103165.0,-15.209000587463379,0,0
276.728996,-0.491363525390625,-0.77484130859375,-0.33929443359375,-0.207366943359375,-0.1220703125,0.06103515625,0.1220703125,-0.0111083984375,0.9031982421875,-0.431396484375,115.0,-15.0,-115.0,103165.0,-15.209000587463379,0,0
276.735996,-0.491363525390625,-0.77484130859375,-0.33929443359375,-0.207366943359375,-0.06103515625,0.18310546875,0.18310546875,-0.012451171875,0.9046630859375,-0.4305419921875,115.0,-15.0,-115.0,103165.0,-15.209000587463379,0,0
276.742028,-0.491363525390625,-0.77484130859375,-0.33929443359375,-0.207366943359375,-0.06103515625,0.18310546875,0.18310546875,-0.012451171875,0.9046630859375,-0.4305419921875,115.0,-15.0,-115.0,103165.0,-15.209000587463379,0,0
276.749001,-0.49139404296875,-0.77490234375,-0.33917236328125,-0.207275390625,0.30517578125,0.06103515625,-0.244140625,-0.0133056640625,0.9019775390625,-0.429443359375,115.0,-15.0,-114.0,103165.0,-15.210000991821289,0,0
276.755996,-0.49139404296875,-0.77490234375,-0.33917236328125,-0.207275390625,-0.06103515625,0.6103515625,-0.1220703125,-0.0130615234375,0.90234375,-0.4312744140625,115.0,-15.0,-114.0,103165.0,-15.210000991821289,0,0
276.762995,-0.491424560546875,-0.77490234375,-0.33917236328125,-0.207275390625,-0.1220703125,0.244140625,-0.06103515625,-0.013671875,0.9002685546875,-0.4307861328125,115.0,-15.0,-114.0,103165.0,-15.210000991821289,0,0
276.769995,-0.491424560546875,-0.77490234375,-0.33917236328125,-0.207275390625,-0.1220703125,0.1220703125,-0.1220703125,-0.0130615234375,0.9017333984375,-0.4312744140625,115.0,-15.0,-114.0,103165.0,-15.210000991821289,0,0
276.776998,-0.491424560546875,-0.77490234375,-0.33917236328125,-0.207275390625,-0.3662109375,-0.18310546875,-0.42724609375,-0.01416015625,0.900634765625,-0.428955078125,115.0,-15.0,-114.0,103165.0,-15.210000991821289,0,0
276.783998,-0.491424560546875,-0.774871826171875,-0.33917236328125,-0.207275390625,0.06103515625,-0.1220703125,0.06103515625,-0.01220703125,0.9017333984375,-0.429443359375,115.0,-15.0,-114.0,103165.0,-15.210000991821289,0,0
276.790997,-0.491424560546875,-0.774871826171875,-0.33917236328125,-0.207275390625,0.18310546875,0.30517578125,0.06103515625,-0.01416015625,0.904296875,-0.4312744140625,115.0,-15.0,-114.0,103165.0,-15.210000991821289,0,0
276.811997,-0.491424560546875,-0.774871826171875,-0.339202880859375,-0.207244873046875,-0.06103515625,-0.06103515625,0.06103515625,-0.0107421875,0.902587890625,-0.4305419921875,115.0,-15.0,-114.0,103165.0,-15.210000991821289,0,0
276.818995,-0.491455078125,-0.774871826171875,-0.339202880859375,-0.207244873046875,-0.06103515625,0.1220703125,-0.06103515625,-0.013427734375,0.9041748046875,-0.4305419921875,115.0,-15.0,-114.0,103165.0,-15.210000991821289,0,0
276.825995,-0.491455078125,-0.774871826171875,-0.339202880859375,-0.207244873046875,-0.1220703125,-0.06103515625,0.06103515625,-0.0128173828125,0.902587890625,-0.4306640625,115.0,-15.0,-114.0,103165.0,-15.210000991821289,0,0
276.832995,-0.491455078125,-0.774871826171875,-0.339202880859375,-0.207244873046875,0.06103515625,0.1220703125,0.06103515625,-0.01171875,0.9031982421875,-0.4312744140625,115.0,-15.0,-114.0,103165.0,-15.210000991821289,0,0
276.839022,-0.491455078125,-0.774871826171875,-0.339202880859375,-0.207244873046875,0.06103515625,0.1220703125,0.06103515625,-0.01171875,0.9031982421875,-0.4312744140625,115.0,-15.0,-114.0,103165.0,-15.210000991821289,0,0
276.845995,-0.491455078125,-0.774932861328125,-0.33905029296875,-0.207183837890625,0.244140625,0.30517578125,0.0,-0.0103759765625,0.9027099609375,-0.4317626953125,114.0,-15.0,-115.0,103165.0,-15.211000442504883,0,0
276.852995,-0.491424560546875,-0.774932861328125,-0.339080810546875,-0.207183837890625,-0.48828125,0.48828125,-0.06103515625,-0.0128173828125,0.908203125,-0.4307861328125,114.0,-15.0,-115.0,103165.0,-15.211000442504883,0,0
276.859995,-0.491424560546875,-0.774932861328125,-0.339111328125,-0.20721435546875,-1.28173828125,0.0,-0.42724609375,-0.0098876953125,0.931396484375,-0.4317626953125,114.0,-15.0,-115.0,103165.0,-15.211000442504883,0,0
276.866998,-0.4913330078125,-0.774993896484375,-0.339111328125,-0.207183837890625,-0.8544921875,0.1220703125,-0.1220703125,-0.0137939453125,0.8900146484375,-0.429931640625,114.0,-15.0,-115.0,103165.0,-15.211000442504883,0,0
276.873998,-0.49139404296875,-0.77496337890625,-0.339111328125,-0.2071533203125,-0.6103515625,-0.8544921875,-0.48828125,-0.014892578125,0.9053955078125,-0.4285888671875,114.0,-15.0,-115.0,103165.0,-15.211000442504883,0,0
276.880997,-0.491302490234375,-0.774993896484375,-0.33917236328125,-0.2071533203125,-0.244140625,0.48828125,-0.6103515625,-0.0113525390625,0.8865966796875,-0.4267578125,114.0,-15.0,-115.0,103165.0,-15.211000442504883,0,0
276.887997,-0.491302490234375,-0.774993896484375,-0.339141845703125,-0.2071533203125,-0.06103515625,0.3662109375,-0.42724609375,-0.0089111328125,0.888671875,-0.4278564453125,114.0,-15.0,-115.0,103165.0,-15.211000442504883,0,0
276.894996,-0.4913330078125,-0.774993896484375,-0.33917236328125,-0.2071533203125,0.732421875,0.0,-0.54931640625,-0.01611328125,0.8992919921875,-0.4261474609375,114.0,-15.0,-115.0,103165.0,-15.211000442504883,0,0
276.901997,-0.491241455078125,-0.775054931640625,-0.33917236328125,-0.207061767578125,-1.15966796875,-0.244140625,-0.1220703125,-0.0146484375,0.8896484375,-0.4339599609375,114.0,-15.0,-115.0,103165.0,-15.211000442504883,0,0
276.908995,-0.4912109375,-0.77508544921875,-0.33917236328125,-0.20703125,1.64794921875,0.06103515625,0.18310546875,-0.01318359375,0.89990234375,-0.429931640625,114.0,-15.0,-115.0,103165.0,-15.211000442504883,0,0
276.915995,-0.491241455078125,-0.775054931640625,-0.339141845703125,-0.207061767578125,0.06103515625,-0.18310546875,0.3662109375,-0.010009765625,0.908447265625,-0.427001953125,114.0,-15.0,-115.0,103165.0,-15.211000442504883,0,0
276.922995,-0.491241455078125,-0.775054931640625,-0.339141845703125,-0.207061767578125,-0.732421875,-0.244140625,0.0,-0.013427734375,0.8922119140625,-0.4307861328125,114.0,-15.0,-115.0,103165.0,-15.211000442504883,0,0
276.929022,-0.491241455078125,-0.775054931640625,-0.339141845703125,-0.207061767578125,-0.732421875,-0.244140625,0.0,-0.013427734375,0.8922119140625,-0.4307861328125,114.0,-15.0,-115.0,103165.0,-15.211000442504883,0,0
276.935995,-0.491180419921875,-0.77508544921875,-0.33917236328125,-0.20703125,1.52587890625,0.54931640625,-0.1220703125,-0.0135498046875,0.8983154296875,-0.424560546875,114.0,-15.0,-115.0,103165.0,-15.211000442504883,0,0
276.942995,-0.49127197265625,-0.7752685546875,-0.33880615234375,-0.206787109375,1.0986328125,-0.244140625,0.18310546875,-0.011962890625,0.9022216796875,-0.427978515625,113.0,-14.0,-116.0,103165.0,-15.213000297546387,0,0
276.949995,-0.49127197265625,-0.7752685546875,-0.33880615234375,-0.206787109375,0.0,0.244140625,-0.48828125,-0.0107421875,0.90625,-0.434326171875,113.0,-14.0,-116.0,103165.0,-15.213000297546387,0,0
276.956998,-0.491241455078125,-0.775299072265625,-0.33880615234375,-0.206787109375,0.244140625,0.244140625,-0.30517578125,-0.0120849609375,0.9051513671875,-0.432861328125,113.0,-14.0,-116.0,103165.0,-15.213000297546387,0,0
276.963998,-0.491241455078125,-0.775299072265625,-0.33880615234375,-0.206787109375,-0.67138671875,-0.1220703125,-0.06103515625,-0.0107421875,0.904052734375,-0.4344482421875,113.0,-14.0,-116.0,103165.0,-15.213000297546387,0,0
