Time stamp(sec),quaternion_0,quaternion_1,quaternion_2,quaternion_3,roll_angular_rate,pitch_angular_rate,yaw_angular_rate,acc_X,acc_Y,acc_Z,mag_X,mag_Y,mag_Z,pressure,altitude
2486.440996,0.006378173828125,0.95703125,-0.223114013671875,-0.185028076171875,-3.60107421875,-3.23486328125,0.91552734375,-0.3350830078125,0.076416015625,-0.9212646484375,-37.0,-302.0,323.0,101923.0,-4.970000267028809,0,0
2486.447995,0.00634765625,0.956787109375,-0.22393798828125,-0.185302734375,-3.72314453125,-3.41796875,0.1220703125,-0.341796875,0.081298828125,-0.922119140625,-37.0,-302.0,323.0,101923.0,-4.970000267028809,0,0
2486.45502,0.00640869140625,0.956756591796875,-0.223876953125,-0.18548583984375,-4.150390625,-4.2724609375,-1.40380859375,-0.34765625,0.08642578125,-0.92138671875,-37.0,-302.0,323.0,101923.0,-4.970000267028809,0,0
2486.461053,0.00640869140625,0.956756591796875,-0.223876953125,-0.18548583984375,-4.150390625,-4.2724609375,-1.40380859375,-0.34765625,0.08642578125,-0.92138671875,-37.0,-302.0,323.0,101923.0,-4.970000267028809,0,0
2486.467996,0.006683349609375,0.95672607421875,-0.22332763671875,-0.186248779296875,-3.90625,-3.72314453125,-4.39453125,-0.360107421875,0.0919189453125,-0.91748046875,-37.0,-302.0,323.0,101923.0,-4.970000267028809,0,0
2486.475021,0.006744384765625,0.956756591796875,-0.22314453125,-0.186431884765625,-4.08935546875,-3.47900390625,-4.57763671875,-0.36328125,0.090576171875,-0.92138671875,-37.0,-302.0,323.0,101923.0,-4.968000411987305,0,0
2486.482001,0.00689697265625,0.956817626953125,-0.222442626953125,-0.18695068359375,-3.60107421875,-2.99072265625,-6.103515625,-0.365966796875,0.0965576171875,-0.9249267578125,-37.0,-302.0,323.0,101923.0,-4.968000411987305,0,0
2486.489015,0.0069580078125,0.95684814453125,-0.22216796875,-0.187103271484375,-3.96728515625,-2.25830078125,-7.01904296875,-0.3612060546875,0.09716796875,-0.922119140625,-37.0,-302.0,323.0,101923.0,-4.968000411987305,0,0
2486.495994,0.0072021484375,0.957000732421875,-0.221343994140625,-0.18731689453125,-3.7841796875,-1.40380859375,-7.50732421875,-0.35986328125,0.1002197265625,-0.9234619140625,-37.0,-302.0,323.0,101923.0,-4.968000411987305,0,0
2486.502998,0.00732421875,0.957061767578125,-0.22100830078125,-0.18731689453125,-3.7841796875,0.1220703125,-8.97216796875,-0.342041015625,0.1126708984375,-0.935791015625,-37.0,-302.0,323.0,101923.0,-4.968000411987305,0,0
2486.510018,0.007476806640625,0.957122802734375,-0.220703125,-0.18731689453125,-3.662109375,-0.1220703125,-9.033203125,-0.334716796875,0.1192626953125,-0.93798828125,-37.0,-302.0,323.0,101923.0,-4.968000411987305,0,0
2486.517002,0.007965087890625,0.957366943359375,-0.219757080078125,-0.18719482421875,-3.35693359375,0.3662109375,-9.1552734375,-0.3309326171875,0.127685546875,-0.9354248046875,-37.0,-302.0,323.0,101923.0,-4.968000411987305,0,0
2486.524018,0.008087158203125,0.95745849609375,-0.21942138671875,-0.1871337890625,-2.8076171875,0.3662109375,-9.94873046875,-0.3253173828125,0.127685546875,-0.9403076171875,-37.0,-302.0,323.0,101923.0,-4.968000411987305,0,0
2486.530996,0.008209228515625,0.957550048828125,-0.219085693359375,-0.18707275390625,-2.50244140625,0.54931640625,-9.82666015625,-0.3233642578125,0.126220703125,-0.9415283203125,-37.0,-302.0,323.0,101923.0,-4.968000411987305,0,0
2486.537995,0.008453369140625,0.95782470703125,-0.21807861328125,-0.186859130859375,-1.953125,-0.48828125,-10.7421875,-0.3187255859375,0.114501953125,-0.9383544921875,-37.0,-302.0,323.0,101923.0,-4.968000411987305,0,0
2486.545016,0.008514404296875,0.957916259765625,-0.217742919921875,-0.18682861328125,-1.953125,-0.8544921875,-10.3759765625,-0.321533203125,0.107177734375,-0.93505859375,-37.0,-302.0,324.0,101923.0,-4.968000411987305,0,0
2486.552004,0.007659912109375,0.95709228515625,-0.221282958984375,-0.18682861328125,-1.953125,-0.732421875,-10.6201171875,-0.324951171875,0.1009521484375,-0.928955078125,-37.0,-302.0,324.0,101923.0,-4.968000411987305,0,0
2486.558037,0.007659912109375,0.95709228515625,-0.221282958984375,-0.18682861328125,-1.953125,-0.732421875,-10.6201171875,-0.324951171875,0.1009521484375,-0.928955078125,-37.0,-302.0,324.0,101923.0,-4.968000411987305,0,0
2486.565021,0.00750732421875,0.95733642578125,-0.22021484375,-0.186859130859375,-1.8310546875,-1.5869140625,-10.31494140625,-0.34033203125,0.080078125,-0.9266357421875,-37.0,-302.0,324.0,101923.0,-4.968000411987305,0,0
2486.572001,0.00738525390625,0.957489013671875,-0.219482421875,-0.18701171875,-2.197265625,-2.01416015625,-10.19287109375,-0.345703125,0.077880859375,-0.92529296875,-37.0,-302.0,324.0,101923.0,-4.968000411987305,0,0
2486.579015,0.007293701171875,0.957611083984375,-0.218780517578125,-0.187164306640625,-2.44140625,-2.50244140625,-9.6435546875,-0.347900390625,0.0760498046875,-0.914794921875,-37.0,-302.0,324.0,101923.0,-4.9720001220703125,0,0
2486.585999,0.007232666015625,0.957672119140625,-0.21844482421875,-0.187286376953125,-2.38037109375,-2.3193359375,-9.765625,-0.351318359375,0.0797119140625,-0.9134521484375,-37.0,-302.0,324.0,101923.0,-4.9720001220703125,0,0
2486.592998,0.00714111328125,0.957763671875,-0.2177734375,-0.187469482421875,-2.3193359375,-2.5634765625,-9.521484375,-0.345703125,0.08349609375,-0.912353515625,-37.0,-302.0,324.0,101923.0,-4.9720001220703125,0,0
2486.614018,0.007171630859375,0.958099365234375,-0.216064453125,-0.187774658203125,-2.38037109375,-0.91552734375,-9.58251953125,-0.3271484375,0.095458984375,-0.8953857421875,-37.0,-302.0,324.0,101923.0,-4.9720001220703125,0,0
2486.620996,0.00726318359375,0.95831298828125,-0.215118408203125,-0.187774658203125,-1.708984375,-0.48828125,-9.6435546875,-0.3240966796875,0.1021728515625,-0.9010009765625,-37.0,-302.0,324.0,101923.0,-4.9720001220703125,0,0
2486.627996,0.007293701171875,0.958404541015625,-0.214813232421875,-0.187744140625,-1.64794921875,-0.732421875,-9.58251953125,-0.3226318359375,0.103759765625,-0.90625,-37.0,-302.0,324.0,101923.0,-4.9720001220703125,0,0
2486.63502,0.00732421875,0.958465576171875,-0.214508056640625,-0.187713623046875,-1.0986328125,-0.67138671875,-9.33837890625,-0.3223876953125,0.1064453125,-0.9078369140625,-37.0,-302.0,324.0,101923.0,-4.9720001220703125,0,0
2486.642004,0.007354736328125,0.958587646484375,-0.213897705078125,-0.187713623046875,-0.91552734375,-1.15966796875,-8.97216796875,-0.32421875,0.1063232421875,-0.9014892578125,-36.0,-303.0,324.0,101923.0,-4.9720001220703125,0,0
2486.648037,0.007354736328125,0.958587646484375,-0.213897705078125,-0.187713623046875,-0.91552734375,-1.15966796875,-8.97216796875,-0.32421875,0.1063232421875,-0.9014892578125,-36.0,-303.0,324.0,101923.0,-4.9720001220703125,0,0
2486.655021,0.00665283203125,0.95806884765625,-0.21624755859375,-0.187835693359375,-0.3662109375,-1.89208984375,-8.4228515625,-0.3287353515625,0.09375,-0.903076171875,-36.0,-303.0,324.0,101923.0,-4.9720001220703125,0,0
2486.662001,0.006317138671875,0.958221435546875,-0.215423583984375,-0.188018798828125,-0.06103515625,-2.62451171875,-8.30078125,-0.337158203125,0.075927734375,-0.901611328125,-36.0,-303.0,324.0,101923.0,-4.9720001220703125,0,0
2486.669015,0.00616455078125,0.958251953125,-0.21514892578125,-0.188079833984375,-0.06103515625,-2.74658203125,-7.4462890625,-0.3427734375,0.05712890625,-0.8968505859375,-36.0,-303.0,324.0,101923.0,-4.9720001220703125,0,0
2486.675994,0.0059814453125,0.95831298828125,-0.21490478515625,-0.18817138671875,-0.18310546875,-2.50244140625,-7.38525390625,-0.34765625,0.05029296875,-0.8931884765625,-36.0,-303.0,324.0,101923.0,-4.9710001945495605,0,0
2486.682998,0.005462646484375,0.95843505859375,-0.21417236328125,-0.1883544921875,0.06103515625,-1.89208984375,-6.4697265625,-0.3551025390625,0.045654296875,-0.8988037109375,-36.0,-303.0,324.0,101923.0,-4.9710001945495605,0,0
2486.704018,0.00482177734375,0.958587646484375,-0.2132568359375,-0.18865966796875,-1.15966796875,-1.15966796875,-3.41796875,-0.362548828125,0.0565185546875,-0.912353515625,-36.0,-303.0,324.0,101923.0,-4.9710001945495605,0,0
2486.710996,0.004730224609375,0.958587646484375,-0.213134765625,-0.188751220703125,-1.03759765625,-1.3427734375,-3.0517578125,-0.365234375,0.0616455078125,-0.9166259765625,-36.0,-303.0,324.0,101923.0,-4.9710001945495605,0,0
2486.717995,0.004486083984375,0.958587646484375,-0.212921142578125,-0.188995361328125,-0.42724609375,-2.01416015625,-0.79345703125,-0.370361328125,0.06787109375,-0.9261474609375,-36.0,-303.0,324.0,101923.0,-4.9710001945495605,0,0
2486.725016,0.004425048828125,0.958587646484375,-0.212890625,-0.1890869140625,-0.244140625,-1.89208984375,-0.244140625,-0.3701171875,0.07080078125,-0.9251708984375,-36.0,-303.0,324.0,101923.0,-4.9710001945495605,0,0
2486.732004,0.0042724609375,0.958526611328125,-0.212921142578125,-0.18927001953125,0.0,-2.25830078125,0.54931640625,-0.370849609375,0.0712890625,-0.9256591796875,-36.0,-303.0,324.0,101923.0,-4.9710001945495605,0,0
2486.739019,0.004119873046875,0.958465576171875,-0.21307373046875,-0.189453125,0.48828125,-1.8310546875,2.685546875,-0.37158203125,0.0684814453125,-0.921142578125,-36.0,-303.0,324.0,101923.0,-4.9710001945495605,0,0
2486.745052,0.004119873046875,0.958465576171875,-0.21307373046875,-0.189453125,0.48828125,-1.8310546875,2.685546875,-0.37158203125,0.0684814453125,-0.921142578125,-36.0,-303.0,324.0,101923.0,-4.9710001945495605,0,0
2486.752001,0.003662109375,0.957977294921875,-0.215179443359375,-0.18963623046875,0.30517578125,-1.03759765625,3.662109375,-0.3677978515625,0.0782470703125,-0.9208984375,-36.0,-304.0,323.0,101923.0,-4.9710001945495605,0,0
2486.759015,0.003662109375,0.9578857421875,-0.215484619140625,-0.189605712890625,0.6103515625,0.67138671875,4.8828125,-0.3614501953125,0.0826416015625,-0.91650390625,-36.0,-304.0,323.0,101923.0,-4.9710001945495605,0,0
2486.765994,0.003662109375,0.957855224609375,-0.215667724609375,-0.1895751953125,0.6103515625,1.46484375,5.18798828125,-0.361083984375,0.085205078125,-0.912353515625,-36.0,-304.0,323.0,101923.0,-4.9710001945495605,0,0
2486.772998,0.003753662109375,0.957794189453125,-0.216064453125,-0.189422607421875,0.732421875,3.2958984375,5.79833984375,-0.36181640625,0.0977783203125,-0.9132080078125,-36.0,-304.0,323.0,101923.0,-4.9710001945495605,0,0
2486.780018,0.00390625,0.957733154296875,-0.216461181640625,-0.189239501953125,0.91552734375,4.0283203125,5.9814453125,-0.36376953125,0.103759765625,-0.91650390625,-36.0,-304.0,323.0,101923.0,-4.969000339508057,0,0
2486.787002,0.004058837890625,0.95770263671875,-0.216888427734375,-0.188995361328125,1.03759765625,4.150390625,6.16455078125,-0.3621826171875,0.1053466796875,-0.91064453125,-36.0,-304.0,323.0,101923.0,-4.969000339508057,0,0
2486.794018,0.004119873046875,0.957672119140625,-0.217132568359375,-0.1888427734375,1.220703125,5.2490234375,6.34765625,-0.364990234375,0.1036376953125,-0.9119873046875,-36.0,-304.0,323.0,101923.0,-4.969000339508057,0,0
2486.800996,0.0042724609375,0.9576416015625,-0.217559814453125,-0.18853759765625,1.3427734375,5.18798828125,6.04248046875,-0.35986328125,0.1063232421875,-0.9171142578125,-36.0,-304.0,323.0,101923.0,-4.969000339508057,0,0
2486.807995,0.00445556640625,0.95758056640625,-0.218017578125,-0.188262939453125,1.15966796875,4.638671875,6.40869140625,-0.35888671875,0.107177734375,-0.918701171875,-36.0,-304.0,323.0,101923.0,-4.969000339508057,0,0
2486.81502,0.0045166015625,0.957550048828125,-0.21826171875,-0.188140869140625,1.46484375,4.39453125,6.34765625,-0.359619140625,0.109619140625,-0.9193115234375,-36.0,-304.0,323.0,101923.0,-4.969000339508057,0,0
2486.822004,0.0047607421875,0.957489013671875,-0.21893310546875,-0.187744140625,1.28173828125,3.84521484375,6.16455078125,-0.3499755859375,0.107421875,-0.9124755859375,-36.0,-304.0,323.0,101923.0,-4.969000339508057,0,0
2486.829018,0.004852294921875,0.95745849609375,-0.219146728515625,-0.1876220703125,1.0986328125,3.41796875,6.04248046875,-0.3458251953125,0.1094970703125,-0.90966796875,-36.0,-304.0,323.0,101923.0,-4.969000339508057,0,0
2486.835052,0.004852294921875,0.95745849609375,-0.219146728515625,-0.1876220703125,1.0986328125,3.41796875,6.04248046875,-0.3458251953125,0.1094970703125,-0.90966796875,-36.0,-304.0,323.0,101923.0,-4.969000339508057,0,0
2486.842001,0.005096435546875,0.957366943359375,-0.219818115234375,-0.187286376953125,1.64794921875,2.74658203125,5.55419921875,-0.34033203125,0.1160888671875,-0.910400390625,-35.0,-304.0,322.0,101923.0,-4.969000339508057,0,0
2486.849015,0.00537109375,0.957427978515625,-0.2197265625,-0.18707275390625,1.40380859375,2.13623046875,5.2490234375,-0.330322265625,0.1175537109375,-0.9071044921875,-35.0,-304.0,322.0,101923.0,-4.969000339508057,0,0
2486.855999,0.005462646484375,0.9573974609375,-0.21990966796875,-0.18695068359375,1.77001953125,2.25830078125,4.82177734375,-0.3251953125,0.118896484375,-0.90283203125,-35.0,-304.0,322.0,101923.0,-4.969000339508057,0,0
2486.877002,0.00579833984375,0.95733642578125,-0.220703125,-0.186370849609375,2.3193359375,0.91552734375,2.685546875,-0.3228759765625,0.11572265625,-0.914794921875,-35.0,-304.0,322.0,101923.0,-4.9710001945495605,0,0
2486.884018,0.00579833984375,0.957305908203125,-0.220947265625,-0.18621826171875,2.25830078125,-0.42724609375,1.15966796875,-0.3331298828125,0.107177734375,-0.9163818359375,-35.0,-304.0,322.0,101923.0,-4.9710001945495605,0,0
2486.890996,0.005767822265625,0.957275390625,-0.22100830078125,-0.18621826171875,2.197265625,-0.91552734375,0.8544921875,-0.3388671875,0.1058349609375,-0.9127197265625,-35.0,-304.0,322.0,101923.0,-4.9710001945495605,0,0
2486.897996,0.0054931640625,0.957244873046875,-0.22100830078125,-0.1864013671875,2.3193359375,-1.8310546875,-1.28173828125,-0.36181640625,0.089599609375,-0.912353515625,-35.0,-304.0,322.0,101923.0,-4.9710001945495605,0,0
2486.90502,0.00537109375,0.957244873046875,-0.220947265625,-0.1865234375,2.3193359375,-1.8310546875,-1.708984375,-0.366455078125,0.08349609375,-0.9122314453125,-35.0,-304.0,322.0,101923.0,-4.9710001945495605,0,0
2486.912004,0.005035400390625,0.957244873046875,-0.220794677734375,-0.18670654296875,2.38037109375,-2.01416015625,-2.13623046875,-0.3701171875,0.0789794921875,-0.913330078125,-35.0,-304.0,322.0,101923.0,-4.9710001945495605,0,0
2486.919018,0.00469970703125,0.957244873046875,-0.2205810546875,-0.18695068359375,2.01416015625,-1.46484375,-3.41796875,-0.381103515625,0.0743408203125,-0.910400390625,-35.0,-304.0,322.0,101923.0,-4.9710001945495605,0,0
2486.925998,0.004547119140625,0.957275390625,-0.220458984375,-0.187042236328125,1.8310546875,-0.732421875,-3.662109375,-0.3824462890625,0.0751953125,-0.9105224609375,-35.0,-304.0,322.0,101923.0,-4.9710001945495605,0,0
2486.932031,0.004547119140625,0.957275390625,-0.220458984375,-0.187042236328125,1.8310546875,-0.732421875,-3.662109375,-0.3824462890625,0.0751953125,-0.9105224609375,-35.0,-304.0,322.0,101923.0,-4.9710001945495605,0,0
2486.939015,0.004150390625,0.95733642578125,-0.2198486328125,-0.187347412109375,-0.06103515625,1.3427734375,-4.2724609375,-0.3873291015625,0.0855712890625,-0.9185791015625,-35.0,-304.0,322.0,101923.0,-4.9710001945495605,0,0
2486.945999,0.004119873046875,0.957366943359375,-0.219696044921875,-0.1873779296875,0.244140625,1.8310546875,-4.45556640625,-0.3878173828125,0.0904541015625,-0.922119140625,-32.0,-305.0,322.0,101923.0,-4.9710001945495605,0,0
2486.967002,0.004180908203125,0.95751953125,-0.219268798828125,-0.1871337890625,0.48828125,2.74658203125,-3.5400390625,-0.3653564453125,0.1168212890625,-0.9420166015625,-32.0,-305.0,322.0,101923.0,-4.9710001945495605,0,0
2486.974018,0.004241943359375,0.957550048828125,-0.219207763671875,-0.18701171875,1.220703125,2.99072265625,-3.0517578125,-0.3548583984375,0.123046875,-0.9442138671875,-32.0,-305.0,322.0,101923.0,-4.9710001945495605,0,0
2486.980996,0.004364013671875,0.957611083984375,-0.219085693359375,-0.18682861328125,1.708984375,1.8310546875,-2.5634765625,-0.347900390625,0.1279296875,-0.951416015625,-32.0,-305.0,322.0,101923.0,-4.968000411987305,0,0
2486.987995,0.00439453125,0.957672119140625,-0.218994140625,-0.18670654296875,1.953125,0.8544921875,-2.5634765625,-0.3441162109375,0.126220703125,-0.951416015625,-32.0,-305.0,322.0,101923.0,-4.968000411987305,0,0
2486.995016,0.00439453125,0.957672119140625,-0.218963623046875,-0.186676025390625,2.8076171875,0.1220703125,-1.64794921875,-0.34423828125,0.1197509765625,-0.931396484375,-32.0,-305.0,322.0,101923.0,-4.968000411987305,0,0
2487.002004,0.004180908203125,0.95770263671875,-0.21893310546875,-0.186553955078125,3.2958984375,-0.18310546875,-1.40380859375,-0.3416748046875,0.1060791015625,-0.9248046875,-32.0,-305.0,322.0,101923.0,-4.968000411987305,0,0
2487.009018,0.00408935546875,0.95770263671875,-0.21893310546875,-0.1865234375,3.5400390625,-0.42724609375,-1.0986328125,-0.34033203125,0.0941162109375,-0.9166259765625,-32.0,-305.0,322.0,101923.0,-4.968000411987305,0,0
2487.015998,0.00396728515625,0.957733154296875,-0.21893310546875,-0.186492919921875,3.35693359375,-0.48828125,-0.732421875,-0.3377685546875,0.087646484375,-0.9117431640625,-32.0,-305.0,322.0,101923.0,-4.968000411987305,0,0
2487.022026,0.00396728515625,0.957733154296875,-0.21893310546875,-0.186492919921875,3.35693359375,-0.48828125,-0.732421875,-0.3377685546875,0.087646484375,-0.9117431640625,-32.0,-305.0,322.0,101923.0,-4.968000411987305,0,0
2487.029015,0.00360107421875,0.957763671875,-0.21893310546875,-0.186309814453125,2.5634765625,1.28173828125,-0.1220703125,-0.3377685546875,0.09033203125,-0.890380859375,-32.0,-305.0,322.0,101923.0,-4.968000411987305,0,0
2487.035994,0.0035400390625,0.957763671875,-0.218963623046875,-0.186248779296875,2.38037109375,1.77001953125,0.0,-0.3394775390625,0.0924072265625,-0.895751953125,-32.0,-305.0,322.0,101923.0,-4.968000411987305,0,0
2487.042998,0.00347900390625,0.95782470703125,-0.21905517578125,-0.1859130859375,2.62451171875,1.77001953125,-0.06103515625,-0.3287353515625,0.0994873046875,-0.899169921875,-31.0,-305.0,322.0,101923.0,-4.968000411987305,0,0
2487.050018,0.003173828125,0.95751953125,-0.220489501953125,-0.185791015625,2.86865234375,1.46484375,0.06103515625,-0.3153076171875,0.09619140625,-0.8956298828125,-31.0,-305.0,322.0,101923.0,-4.968000411987305,0,0
2487.057002,0.0030517578125,0.957550048828125,-0.2205810546875,-0.185394287109375,2.86865234375,1.28173828125,-0.06103515625,-0.312744140625,0.09619140625,-0.8924560546875,-31.0,-305.0,322.0,101923.0,-4.968000411987305,0,0
2487.064018,0.00299072265625,0.95758056640625,-0.220611572265625,-0.185272216796875,3.0517578125,0.244140625,0.0,-0.30419921875,0.0924072265625,-0.9029541015625,-31.0,-305.0,322.0,101923.0,-4.968000411987305,0,0
2487.070996,0.0029296875,0.95758056640625,-0.22064208984375,-0.1851806640625,3.11279296875,-0.54931640625,-0.1220703125,-0.30908203125,0.0921630859375,-0.9029541015625,-31.0,-305.0,322.0,101923.0,-4.968000411987305,0,0
2487.077995,0.0025634765625,0.95758056640625,-0.220672607421875,-0.185211181640625,3.23486328125,-1.8310546875,-0.18310546875,-0.3135986328125,0.0908203125,-0.904541015625,-31.0,-305.0,322.0,101923.0,-4.9710001945495605,0,0
2487.085016,0.00238037109375,0.957550048828125,-0.220672607421875,-0.185272216796875,3.0517578125,-4.33349609375,-0.6103515625,-0.3270263671875,0.06298828125,-0.888427734375,-31.0,-305.0,322.0,101923.0,-4.9710001945495605,0,0
2487.092004,0.001953125,0.957550048828125,-0.2205810546875,-0.18548583984375,2.99072265625,-4.21142578125,-1.220703125,-0.332275390625,0.0572509765625,-0.881103515625,-31.0,-305.0,322.0,101923.0,-4.9710001945495605,0,0
2487.099018,0.00146484375,0.95751953125,-0.220458984375,-0.18572998046875,2.685546875,-4.08935546875,-2.0751953125,-0.343505859375,0.0416259765625,-0.880615234375,-31.0,-305.0,322.0,101923.0,-4.9710001945495605,0,0
2487.105998,0.001220703125,0.95751953125,-0.220367431640625,-0.185821533203125,2.38037109375,-3.2958984375,-2.25830078125,-0.348876953125,0.04052734375,-0.8812255859375,-31.0,-305.0,322.0,101923.0,-4.9710001945495605,0,0
2487.112998,0.00079345703125,0.957550048828125,-0.220184326171875,-0.186004638671875,1.52587890625,-2.197265625,-2.74658203125,-0.3538818359375,0.04296875,-0.88720703125,-31.0,-305.0,322.0,101923.0,-4.9710001945495605,0,0
2487.11903,0.00079345703125,0.957550048828125,-0.220184326171875,-0.186004638671875,1.52587890625,-2.197265625,-2.74658203125,-0.3538818359375,0.04296875,-0.88720703125,-31.0,-305.0,322.0,101923.0,-4.9710001945495605,0,0
2487.140018,-9.1552734375e-05,0.957611083984375,-0.219329833984375,-0.186614990234375,-1.15966796875,-1.46484375,-2.8076171875,-0.37255859375,0.0638427734375,-0.9210205078125,-31.0,-305.0,322.0,101923.0,-4.9710001945495605,0,0
2487.147002,-0.0001220703125,0.957611083984375,-0.219207763671875,-0.186737060546875,-1.3427734375,-1.40380859375,-3.11279296875,-0.375244140625,0.0682373046875,-0.925048828125,-28.0,-305.0,322.0,101923.0,-4.9710001945495605,0,0
2487.154018,-0.00042724609375,0.957305908203125,-0.22039794921875,-0.186981201171875,-0.9765625,-1.3427734375,-2.685546875,-0.3828125,0.0806884765625,-0.931640625,-28.0,-305.0,322.0,101923.0,-4.9710001945495605,0,0
2487.160996,-0.000457763671875,0.957305908203125,-0.22021484375,-0.187225341796875,-0.3662109375,-0.8544921875,-2.62451171875,-0.386474609375,0.0855712890625,-0.9393310546875,-28.0,-305.0,322.0,101923.0,-4.9710001945495605,0,0
2487.167996,-0.00048828125,0.957305908203125,-0.22003173828125,-0.187408447265625,-0.54931640625,-0.8544921875,-2.25830078125,-0.38671875,0.0849609375,-0.9434814453125,-28.0,-305.0,322.0,101923.0,-4.9710001945495605,0,0
2487.17502,-0.000518798828125,0.957305908203125,-0.219970703125,-0.1875,-0.30517578125,-0.42724609375,-1.8310546875,-0.386962890625,0.0841064453125,-0.9371337890625,-28.0,-305.0,322.0,101923.0,-4.9710001945495605,0,0
2487.182004,-0.00048828125,0.957305908203125,-0.219818115234375,-0.18768310546875,-0.6103515625,0.67138671875,-1.52587890625,-0.391357421875,0.0853271484375,-0.9322509765625,-28.0,-305.0,322.0,101923.0,-4.970000267028809,0,0
2487.189018,-0.000457763671875,0.957305908203125,-0.219757080078125,-0.187713623046875,-1.0986328125,1.8310546875,-0.8544921875,-0.38916015625,0.0872802734375,-0.9375,-28.0,-305.0,322.0,101923.0,-4.970000267028809,0,0
2487.195998,-0.000396728515625,0.957305908203125,-0.2197265625,-0.187744140625,-1.15966796875,2.0751953125,-1.03759765625,-0.3868408203125,0.087890625,-0.9410400390625,-28.0,-305.0,322.0,101923.0,-4.970000267028809,0,0
2487.202998,-0.00018310546875,0.95733642578125,-0.219635009765625,-0.1876220703125,-1.5869140625,3.90625,-0.54931640625,-0.377197265625,0.0931396484375,-0.9320068359375,-28.0,-305.0,322.0,101923.0,-4.970000267028809,0,0
2487.209031,-0.00018310546875,0.95733642578125,-0.219635009765625,-0.1876220703125,-1.5869140625,3.90625,-0.54931640625,-0.377197265625,0.0931396484375,-0.9320068359375,-28.0,-305.0,322.0,101923.0,-4.970000267028809,0,0
2487.230023,0.0006103515625,0.957611083984375,-0.219390869140625,-0.186614990234375,-2.3193359375,6.53076171875,-1.40380859375,-0.338134765625,0.09716796875,-0.92919921875,-28.0,-305.0,322.0,101923.0,-4.970000267028809,0,0
2487.237002,0.001190185546875,0.95782470703125,-0.21923828125,-0.18572998046875,-2.50244140625,6.591796875,-1.40380859375,-0.3255615234375,0.0946044921875,-0.935302734375,-28.0,-305.0,322.0,101923.0,-4.970000267028809,0,0
2487.244018,0.00140380859375,0.9578857421875,-0.21917724609375,-0.185394287109375,-2.44140625,6.34765625,-1.8310546875,-0.300537109375,0.1019287109375,-0.932861328125,-26.0,-303.0,322.0,101923.0,-4.970000267028809,0,0
2487.250996,0.001434326171875,0.957794189453125,-0.21990966796875,-0.185089111328125,-2.3193359375,5.79833984375,-2.3193359375,-0.29443359375,0.1009521484375,-0.934326171875,-26.0,-303.0,322.0,101923.0,-4.970000267028809,0,0
2487.257995,0.002044677734375,0.9580078125,-0.219635009765625,-0.184173583984375,-2.62451171875,3.96728515625,-2.9296875,-0.2806396484375,0.1015625,-0.9326171875,-26.0,-303.0,322.0,101923.0,-4.970000267028809,0,0
2487.26502,0.002227783203125,0.958099365234375,-0.219573974609375,-0.18389892578125,-2.38037109375,3.11279296875,-2.9296875,-0.2796630859375,0.1025390625,-0.9310302734375,-26.0,-303.0,322.0,101923.0,-4.970000267028809,0,0
2487.272004,0.002532958984375,0.958221435546875,-0.2193603515625,-0.183441162109375,-2.38037109375,2.25830078125,-3.2958984375,-0.2789306640625,0.099365234375,-0.9307861328125,-26.0,-303.0,322.0,101923.0,-4.970000267028809,0,0
2487.279018,0.00274658203125,0.958343505859375,-0.2191162109375,-0.183135986328125,-2.685546875,-0.30517578125,-3.84521484375,-0.2816162109375,0.084716796875,-0.923095703125,-26.0,-303.0,322.0,101923.0,-4.9710001945495605,0,0
2487.285998,0.002838134765625,0.9583740234375,-0.218994140625,-0.18304443359375,-2.25830078125,-1.15966796875,-3.72314453125,-0.2901611328125,0.082275390625,-0.9150390625,-26.0,-303.0,322.0,101923.0,-4.9710001945495605,0,0
2487.292998,0.0029296875,0.958465576171875,-0.218719482421875,-0.1829833984375,-2.5634765625,-1.953125,-4.08935546875,-0.304931640625,0.076416015625,-0.907958984375,-26.0,-303.0,322.0,101923.0,-4.9710001945495605,0,0
2487.300018,0.00299072265625,0.958526611328125,-0.218414306640625,-0.183013916015625,-2.5634765625,-2.197265625,-3.90625,-0.311767578125,0.0718994140625,-0.90576171875,-26.0,-303.0,322.0,101923.0,-4.9710001945495605,0,0
2487.30605,0.00299072265625,0.958526611328125,-0.218414306640625,-0.183013916015625,-2.5634765625,-2.197265625,-3.90625,-0.311767578125,0.0718994140625,-0.90576171875,-26.0,-303.0,322.0,101923.0,-4.9710001945495605,0,0
2487.312998,0.0030517578125,0.958587646484375,-0.217926025390625,-0.1832275390625,-2.86865234375,-3.23486328125,-4.33349609375,-0.3262939453125,0.07177734375,-0.9058837890625,-26.0,-303.0,322.0,101923.0,-4.9710001945495605,0,0
2487.320018,0.00311279296875,0.9586181640625,-0.21759033203125,-0.183441162109375,-3.0517578125,-3.662109375,-4.638671875,-0.3367919921875,0.0787353515625,-0.9127197265625,-26.0,-303.0,322.0,101923.0,-4.9710001945495605,0,0
2487.327002,0.003143310546875,0.9586181640625,-0.217437744140625,-0.183624267578125,-2.86865234375,-4.2724609375,-4.150390625,-0.342529296875,0.0816650390625,-0.9166259765625,-26.0,-303.0,322.0,101923.0,-4.9710001945495605,0,0
2487.334018,0.003173828125,0.9586181640625,-0.217132568359375,-0.18402099609375,-2.25830078125,-5.615234375,-4.45556640625,-0.35400390625,0.0855712890625,-0.9210205078125,-26.0,-303.0,322.0,101923.0,-4.9710001945495605,0,0
2487.340996,0.003143310546875,0.958587646484375,-0.216796875,-0.18463134765625,-1.708984375,-7.4462890625,-4.5166015625,-0.3648681640625,0.0924072265625,-0.919189453125,-26.0,-302.0,321.0,101923.0,-4.9710001945495605,0,0
2487.347995,0.0028076171875,0.958160400390625,-0.21795654296875,-0.185333251953125,-1.77001953125,-7.75146484375,-4.5166015625,-0.3692626953125,0.097412109375,-0.9168701171875,-26.0,-302.0,321.0,101923.0,-4.9710001945495605,0,0
2487.355016,0.002777099609375,0.9581298828125,-0.217803955078125,-0.185699462890625,-1.220703125,-7.9345703125,-4.57763671875,-0.3758544921875,0.10009765625,-0.9140625,-26.0,-302.0,321.0,101923.0,-4.9710001945495605,0,0
2487.362004,0.0025634765625,0.958038330078125,-0.21728515625,-0.18682861328125,-0.54931640625,-8.544921875,-4.94384765625,-0.383056640625,0.093994140625,-0.91259765625,-26.0,-302.0,321.0,101923.0,-4.9710001945495605,0,0
2487.369018,0.002471923828125,0.9580078125,-0.21710205078125,-0.187225341796875,-0.48828125,-8.48388671875,-5.55419921875,-0.386962890625,0.0831298828125,-0.907470703125,-26.0,-302.0,321.0,101923.0,-4.9710001945495605,0,0
2487.375998,0.002349853515625,0.957977294921875,-0.2169189453125,-0.187652587890625,-0.67138671875,-8.30078125,-5.2490234375,-0.3946533203125,0.077880859375,-0.9013671875,-26.0,-302.0,321.0,101923.0,-4.9720001220703125,0,0
2487.382998,0.001953125,0.9578857421875,-0.216278076171875,-0.188812255859375,-0.6103515625,-7.32421875,-5.79833984375,-0.4000244140625,0.0750732421875,-0.8968505859375,-26.0,-302.0,321.0,101923.0,-4.9720001220703125,0,0
2487.402998,0.001556396484375,0.957794189453125,-0.21514892578125,-0.1905517578125,-1.40380859375,-5.31005859375,-6.4697265625,-0.4000244140625,0.0885009765625,-0.898681640625,-26.0,-302.0,321.0,101923.0,-4.9720001220703125,0,0
2487.410018,0.00152587890625,0.957763671875,-0.214935302734375,-0.19085693359375,-1.708984375,-5.31005859375,-6.53076171875,-0.3975830078125,0.09228515625,-0.8973388671875,-26.0,-302.0,321.0,101923.0,-4.9720001220703125,0,0
2487.417002,0.00146484375,0.957763671875,-0.214263916015625,-0.191680908203125,-1.52587890625,-4.39453125,-6.53076171875,-0.3990478515625,0.0968017578125,-0.8961181640625,-26.0,-302.0,321.0,101923.0,-4.9720001220703125,0,0
2487.424018,0.00146484375,0.957763671875,-0.214019775390625,-0.19189453125,-0.67138671875,-4.08935546875,-6.77490234375,-0.3802490234375,0.1025390625,-0.90185546875,-26.0,-302.0,321.0,101923.0,-4.9720001220703125,0,0
2487.430996,0.001434326171875,0.957794189453125,-0.21380615234375,-0.192108154296875,-0.67138671875,-3.72314453125,-6.89697265625,-0.375244140625,0.09814453125,-0.8990478515625,-26.0,-302.0,321.0,101923.0,-4.9720001220703125,0,0
2487.437995,0.001312255859375,0.95782470703125,-0.213165283203125,-0.192535400390625,-0.1220703125,-3.5400390625,-6.65283203125,-0.3699951171875,0.0960693359375,-0.89697265625,-26.0,-302.0,321.0,101923.0,-4.9720001220703125,0,0
2487.445016,0.001251220703125,0.957855224609375,-0.212982177734375,-0.192657470703125,-0.18310546875,-3.173828125,-5.859375,-0.3568115234375,0.0855712890625,-0.9010009765625,-24.0,-303.0,319.0,101923.0,-4.9720001220703125,0,0
2487.452004,0.0008544921875,0.95758056640625,-0.21405029296875,-0.19281005859375,0.244140625,-2.8076171875,-5.615234375,-0.353271484375,0.084716796875,-0.897216796875,-24.0,-303.0,319.0,101923.0,-4.9720001220703125,0,0
2487.459018,0.000732421875,0.9576416015625,-0.213714599609375,-0.19293212890625,0.1220703125,-2.74658203125,-4.8828125,-0.342529296875,0.078125,-0.8968505859375,-24.0,-303.0,319.0,101923.0,-4.9720001220703125,0,0
2487.465998,0.00067138671875,0.957672119140625,-0.21356201171875,-0.19293212890625,0.244140625,-2.13623046875,-4.39453125,-0.33984375,0.0750732421875,-0.892333984375,-24.0,-303.0,319.0,101923.0,-4.9720001220703125,0,0
2487.472998,0.000518798828125,0.95770263671875,-0.21331787109375,-0.192962646484375,0.1220703125,-1.89208984375,-3.7841796875,-0.3348388671875,0.068115234375,-0.88818359375,-24.0,-303.0,319.0,101923.0,-4.9720001220703125,0,0
2487.492998,-3.0517578125e-05,0.957794189453125,-0.212890625,-0.192962646484375,0.30517578125,-0.9765625,-1.64794921875,-0.33935546875,0.0452880859375,-0.8759765625,-24.0,-303.0,319.0,101923.0,-4.9720001220703125,0,0
2487.500023,-0.000213623046875,0.957855224609375,-0.21282958984375,-0.19287109375,-0.1220703125,0.3662109375,-0.6103515625,-0.33544921875,0.044189453125,-0.8743896484375,-24.0,-303.0,319.0,101923.0,-4.9720001220703125,0,0
2487.507002,-0.0003662109375,0.9578857421875,-0.212799072265625,-0.192718505859375,-0.18310546875,0.9765625,-0.48828125,-0.336669921875,0.04833984375,-0.8773193359375,-24.0,-303.0,319.0,101923.0,-4.9720001220703125,0,0
2487.514018,-0.00042724609375,0.957916259765625,-0.212799072265625,-0.192596435546875,0.18310546875,2.0751953125,0.48828125,-0.33837890625,0.048583984375,-0.877685546875,-24.0,-303.0,319.0,101923.0,-4.9720001220703125,0,0
2487.520996,-0.000518798828125,0.95794677734375,-0.212860107421875,-0.19232177734375,-0.42724609375,3.11279296875,1.5869140625,-0.339111328125,0.0423583984375,-0.8809814453125,-24.0,-303.0,319.0,101923.0,-4.9720001220703125,0,0
2487.527996,-0.000579833984375,0.957977294921875,-0.212982177734375,-0.19195556640625,-0.42724609375,3.7841796875,2.01416015625,-0.338623046875,0.04150390625,-0.880615234375,-24.0,-303.0,319.0,101923.0,-4.9720001220703125,0,0
2487.53502,-0.000640869140625,0.9580078125,-0.213043212890625,-0.1917724609375,-0.244140625,4.45556640625,2.8076171875,-0.341064453125,0.0413818359375,-0.8917236328125,-24.0,-303.0,319.0,101923.0,-4.9720001220703125,0,0
2487.542004,-0.00067138671875,0.958038330078125,-0.2132568359375,-0.19140625,-0.54931640625,4.2724609375,3.662109375,-0.3436279296875,0.0467529296875,-0.90234375,-22.0,-303.0,318.0,101923.0,-4.9720001220703125,0,0
2487.549019,-0.000823974609375,0.95794677734375,-0.214019775390625,-0.191070556640625,-0.67138671875,3.35693359375,4.150390625,-0.34619140625,0.04833984375,-0.903076171875,-22.0,-303.0,318.0,101923.0,-4.9720001220703125,0,0
2487.555998,-0.000823974609375,0.957916259765625,-0.21417236328125,-0.190948486328125,-0.67138671875,3.11279296875,4.638671875,-0.352294921875,0.0430908203125,-0.902587890625,-22.0,-303.0,318.0,101923.0,-4.9720001220703125,0,0
2487.562997,-0.000885009765625,0.9578857421875,-0.214630126953125,-0.190643310546875,-0.9765625,2.86865234375,5.2490234375,-0.3621826171875,0.0379638671875,-0.9044189453125,-22.0,-303.0,318.0,101923.0,-4.9720001220703125,0,0
2487.570018,-0.00091552734375,0.957855224609375,-0.21478271484375,-0.1905517578125,-1.0986328125,3.2958984375,5.615234375,-0.3677978515625,0.0418701171875,-0.9063720703125,-22.0,-303.0,318.0,101923.0,-4.9720001220703125,0,0
2487.577001,-0.000885009765625,0.957855224609375,-0.214935302734375,-0.19049072265625,-1.77001953125,3.35693359375,5.859375,-0.3685302734375,0.0452880859375,-0.906494140625,-22.0,-303.0,318.0,101923.0,-4.9710001945495605,0,0
2487.583034,-0.000885009765625,0.957855224609375,-0.214935302734375,-0.19049072265625,-1.77001953125,3.35693359375,5.859375,-0.3685302734375,0.0452880859375,-0.906494140625,-22.0,-303.0,318.0,101923.0,-4.9710001945495605,0,0
2487.590018,-0.000701904296875,0.957763671875,-0.21563720703125,-0.190155029296875,-2.50244140625,4.94384765625,6.65283203125,-0.3782958984375,0.0538330078125,-0.9039306640625,-22.0,-303.0,318.0,101923.0,-4.9710001945495605,0,0
2487.597002,-0.0003662109375,0.957672119140625,-0.216217041015625,-0.189849853515625,-2.62451171875,5.55419921875,6.53076171875,-0.383056640625,0.056640625,-0.9058837890625,-22.0,-303.0,318.0,101923.0,-4.9710001945495605,0,0
2487.604018,-0.000213623046875,0.957672119140625,-0.216400146484375,-0.189788818359375,-3.0517578125,5.7373046875,6.8359375,-0.39208984375,0.07177734375,-0.91748046875,-22.0,-303.0,318.0,101923.0,-4.9710001945495605,0,0
2487.610996,-6.103515625e-05,0.9576416015625,-0.216583251953125,-0.189697265625,-3.23486328125,5.79833984375,6.53076171875,-0.3873291015625,0.0762939453125,-0.9205322265625,-22.0,-303.0,318.0,101923.0,-4.9710001945495605,0,0
2487.617995,0.00042724609375,0.957550048828125,-0.217193603515625,-0.18939208984375,-3.0517578125,5.7373046875,6.9580078125,-0.3857421875,0.080322265625,-0.92529296875,-22.0,-303.0,318.0,101923.0,-4.9710001945495605,0,0
2487.62502,0.000640869140625,0.95751953125,-0.2174072265625,-0.1893310546875,-3.173828125,4.638671875,6.7138671875,-0.3839111328125,0.094970703125,-0.9306640625,-22.0,-303.0,318.0,101923.0,-4.9710001945495605,0,0
2487.632004,0.0008544921875,0.957489013671875,-0.217620849609375,-0.18927001953125,-3.11279296875,4.2724609375,6.7138671875,-0.380859375,0.0972900390625,-0.92919921875,-22.0,-303.0,318.0,101923.0,-4.9710001945495605,0,0
2487.639018,0.001434326171875,0.957366943359375,-0.21820068359375,-0.18914794921875,-2.9296875,4.0283203125,6.4697265625,-0.3797607421875,0.101318359375,-0.927490234375,-22.0,-303.0,318.0,101923.0,-4.9710001945495605,0,0
2487.645998,0.00164794921875,0.95733642578125,-0.2183837890625,-0.1890869140625,-3.0517578125,3.84521484375,6.28662109375,-0.37451171875,0.104248046875,-0.92822265625,-21.0,-301.0,318.0,101923.0,-4.9710001945495605,0,0
2487.667001,0.00299072265625,0.957305908203125,-0.219024658203125,-0.1885986328125,-2.3193359375,3.90625,5.615234375,-0.3519287109375,0.107177734375,-0.9207763671875,-21.0,-301.0,318.0,101923.0,-4.9710001945495605,0,0
2487.673034,0.00299072265625,0.957305908203125,-0.219024658203125,-0.1885986328125,-2.3193359375,3.90625,5.615234375,-0.3519287109375,0.107177734375,-0.9207763671875,-21.0,-301.0,318.0,101923.0,-4.9710001945495605,0,0
2487.680018,0.00360107421875,0.957244873046875,-0.219451904296875,-0.188262939453125,-2.197265625,2.99072265625,4.2724609375,-0.339111328125,0.11083984375,-0.9193115234375,-21.0,-301.0,318.0,101923.0,-4.9710001945495605,0,0
2487.687002,0.003997802734375,0.957244873046875,-0.219696044921875,-0.18804931640625,-2.50244140625,2.74658203125,3.60107421875,-0.3372802734375,0.111328125,-0.9171142578125,-21.0,-301.0,318.0,101923.0,-4.9710001945495605,0,0
2487.694018,0.004180908203125,0.957244873046875,-0.219818115234375,-0.187957763671875,-2.0751953125,2.38037109375,3.2958984375,-0.3294677734375,0.114013671875,-0.9168701171875,-21.0,-301.0,318.0,101923.0,-4.9710001945495605,0,0
2487.700996,0.00457763671875,0.95721435546875,-0.220001220703125,-0.187744140625,-1.953125,1.5869140625,2.50244140625,-0.3179931640625,0.1158447265625,-0.9183349609375,-21.0,-301.0,318.0,101923.0,-4.9710001945495605,0,0
2487.707995,0.004913330078125,0.957244873046875,-0.22015380859375,-0.187530517578125,-1.953125,0.91552734375,1.89208984375,-0.3138427734375,0.1119384765625,-0.917724609375,-21.0,-301.0,318.0,101923.0,-4.9710001945495605,0,0
2487.71502,0.005096435546875,0.957244873046875,-0.22021484375,-0.18743896484375,-1.708984375,0.48828125,1.64794921875,-0.3101806640625,0.113037109375,-0.9134521484375,-21.0,-301.0,318.0,101923.0,-4.9710001945495605,0,0
2487.722004,0.00543212890625,0.957244873046875,-0.220306396484375,-0.187255859375,-1.52587890625,-0.3662109375,0.67138671875,-0.3125,0.105224609375,-0.9150390625,-21.0,-301.0,318.0,101923.0,-4.9710001945495605,0,0
2487.729018,0.0054931640625,0.957244873046875,-0.220306396484375,-0.187225341796875,-1.40380859375,-1.0986328125,0.42724609375,-0.3123779296875,0.0968017578125,-0.9151611328125,-21.0,-301.0,318.0,101923.0,-4.9710001945495605,0,0
2487.750018,0.005706787109375,0.95745849609375,-0.219207763671875,-0.18756103515625,-1.46484375,-3.41796875,-1.03759765625,-0.33984375,0.0777587890625,-0.9056396484375,-22.0,-301.0,319.0,101923.0,-4.9710001945495605,0,0
2487.757001,0.00555419921875,0.9573974609375,-0.219024658203125,-0.187957763671875,-1.46484375,-3.84521484375,-1.15966796875,-0.34716796875,0.0758056640625,-0.9031982421875,-22.0,-301.0,319.0,101923.0,-4.9710001945495605,0,0
2487.764019,0.005523681640625,0.9573974609375,-0.218963623046875,-0.1881103515625,-1.15966796875,-3.662109375,-1.77001953125,-0.3548583984375,0.074951171875,-0.9073486328125,-22.0,-301.0,319.0,101923.0,-4.9710001945495605,0,0
2487.770054,0.005523681640625,0.9573974609375,-0.218963623046875,-0.1881103515625,-1.15966796875,-3.662109375,-1.77001953125,-0.3548583984375,0.074951171875,-0.9073486328125,-22.0,-301.0,319.0,101923.0,-4.9710001945495605,0,0
2487.777002,0.005401611328125,0.957366943359375,-0.21881103515625,-0.188385009765625,-1.15966796875,-3.35693359375,-1.5869140625,-0.363037109375,0.0745849609375,-0.908203125,-22.0,-301.0,319.0,101923.0,-4.9710001945495605,0,0
2487.784018,0.0052490234375,0.95733642578125,-0.2186279296875,-0.188873291015625,-0.91552734375,-2.99072265625,-1.40380859375,-0.37451171875,0.076416015625,-0.91357421875,-22.0,-301.0,319.0,101923.0,-4.9710001945495605,0,0
2487.790996,0.00518798828125,0.957305908203125,-0.218536376953125,-0.18902587890625,-0.9765625,-2.685546875,-1.40380859375,-0.3773193359375,0.07568359375,-0.910888671875,-22.0,-301.0,319.0,101923.0,-4.9710001945495605,0,0
2487.797996,0.004974365234375,0.957244873046875,-0.218414306640625,-0.189483642578125,-0.6103515625,-2.44140625,-1.0986328125,-0.381591796875,0.079833984375,-0.910888671875,-22.0,-301.0,319.0,101923.0,-4.9710001945495605,0,0
2487.80502,0.004913330078125,0.957244873046875,-0.218353271484375,-0.1895751953125,-0.18310546875,-1.03759765625,-0.9765625,-0.3822021484375,0.077392578125,-0.9127197265625,-22.0,-301.0,319.0,101923.0,-4.9710001945495605,0,0
2487.812004,0.004791259765625,0.95721435546875,-0.218292236328125,-0.189727783203125,-0.30517578125,-0.9765625,-0.67138671875,-0.3790283203125,0.0748291015625,-0.911865234375,-22.0,-301.0,319.0,101923.0,-4.9710001945495605,0,0
2487.819018,0.00469970703125,0.95721435546875,-0.218292236328125,-0.189849853515625,-0.42724609375,0.1220703125,-0.18310546875,-0.3785400390625,0.08203125,-0.9114990234375,-22.0,-301.0,319.0,101923.0,-4.9710001945495605,0,0
2487.825998,0.004638671875,0.957183837890625,-0.21826171875,-0.189910888671875,-0.48828125,0.54931640625,0.42724609375,-0.3812255859375,0.083251953125,-0.9132080078125,-22.0,-301.0,319.0,101923.0,-4.9720001220703125,0,0
2487.832998,0.00469970703125,0.957183837890625,-0.21832275390625,-0.189971923828125,-0.3662109375,1.15966796875,0.91552734375,-0.38232421875,0.091552734375,-0.9146728515625,-22.0,-301.0,319.0,101923.0,-4.9720001220703125,0,0
2487.840018,0.00482177734375,0.9571533203125,-0.21844482421875,-0.189971923828125,-0.1220703125,1.953125,1.89208984375,-0.3724365234375,0.10888671875,-0.9178466796875,-22.0,-301.0,319.0,101923.0,-4.9720001220703125,0,0
2487.847001,0.004913330078125,0.957122802734375,-0.218505859375,-0.18994140625,-0.18310546875,2.44140625,2.01416015625,-0.3704833984375,0.114990234375,-0.9188232421875,-22.0,-301.0,319.0,101923.0,-4.9720001220703125,0,0
2487.854018,0.00494384765625,0.9569091796875,-0.219512939453125,-0.189849853515625,0.18310546875,2.99072265625,2.38037109375,-0.3675537109375,0.1171875,-0.916748046875,-22.0,-301.0,319.0,101923.0,-4.9720001220703125,0,0
2487.860049,0.00494384765625,0.9569091796875,-0.219512939453125,-0.189849853515625,0.18310546875,2.99072265625,2.38037109375,-0.3675537109375,0.1171875,-0.916748046875,-22.0,-301.0,319.0,101923.0,-4.9720001220703125,0,0
2487.867002,0.005279541015625,0.9569091796875,-0.219970703125,-0.189422607421875,0.79345703125,3.96728515625,3.11279296875,-0.355712890625,0.1131591796875,-0.918212890625,-22.0,-301.0,319.0,101923.0,-4.9720001220703125,0,0
2487.874018,0.005340576171875,0.9569091796875,-0.2200927734375,-0.18927001953125,0.9765625,3.72314453125,3.5400390625,-0.349853515625,0.10791015625,-0.9212646484375,-22.0,-301.0,319.0,101923.0,-4.9720001220703125,0,0
2487.880996,0.0054931640625,0.956878662109375,-0.22039794921875,-0.188995361328125,0.91552734375,3.5400390625,3.96728515625,-0.3424072265625,0.109130859375,-0.9122314453125,-22.0,-301.0,319.0,101923.0,-4.9720001220703125,0,0
2487.887995,0.005706787109375,0.95684814453125,-0.220733642578125,-0.188751220703125,0.30517578125,3.5400390625,4.39453125,-0.3408203125,0.1124267578125,-0.907958984375,-22.0,-301.0,319.0,101923.0,-4.9720001220703125,0,0
2487.895016,0.005859375,0.95684814453125,-0.220916748046875,-0.1885986328125,0.3662109375,3.662109375,4.94384765625,-0.340576171875,0.1220703125,-0.908203125,-22.0,-301.0,319.0,101923.0,-4.9720001220703125,0,0
2487.902004,0.006317138671875,0.956756591796875,-0.2215576171875,-0.188232421875,0.6103515625,3.35693359375,5.4931640625,-0.337646484375,0.1278076171875,-0.913818359375,-22.0,-301.0,319.0,101923.0,-4.9720001220703125,0,0
2487.909018,0.0064697265625,0.956756591796875,-0.221771240234375,-0.188079833984375,0.732421875,3.41796875,5.92041015625,-0.3319091796875,0.132568359375,-0.912353515625,-22.0,-301.0,319.0,101923.0,-4.9720001220703125,0,0
2487.922997,0.006988525390625,0.956634521484375,-0.22265625,-0.1875,1.15966796875,2.99072265625,5.615234375,-0.323974609375,0.1265869140625,-0.90673828125,-22.0,-301.0,319.0,101923.0,-4.9720001220703125,0,0
2487.930018,0.007049560546875,0.956634521484375,-0.222869873046875,-0.1873779296875,1.708984375,1.953125,5.4931640625,-0.3240966796875,0.11572265625,-0.9112548828125,-22.0,-301.0,319.0,101923.0,-4.9720001220703125,0,0
2487.937001,0.007110595703125,0.95660400390625,-0.223052978515625,-0.187255859375,1.64794921875,1.77001953125,5.4931640625,-0.322265625,0.107177734375,-0.90966796875,-22.0,-301.0,319.0,101923.0,-4.9720001220703125,0,0
2487.944018,0.007171630859375,0.956512451171875,-0.223663330078125,-0.18701171875,1.3427734375,1.220703125,5.55419921875,-0.3267822265625,0.098388671875,-0.9041748046875,-23.0,-301.0,319.0,101923.0,-4.9720001220703125,0,0
2487.950995,0.007171630859375,0.956451416015625,-0.223968505859375,-0.18695068359375,0.8544921875,0.54931640625,5.37109375,-0.3338623046875,0.0975341796875,-0.9017333984375,-23.0,-301.0,319.0,101923.0,-4.9720001220703125,0,0
2487.957028,0.007171630859375,0.956451416015625,-0.223968505859375,-0.18695068359375,0.8544921875,0.54931640625,5.37109375,-0.3338623046875,0.0975341796875,-0.9017333984375,-23.0,-301.0,319.0,101923.0,-4.9720001220703125,0,0
2487.964018,0.007171630859375,0.956268310546875,-0.224639892578125,-0.18707275390625,0.30517578125,-0.67138671875,4.638671875,-0.3587646484375,0.0946044921875,-0.8953857421875,-23.0,-301.0,319.0,101923.0,-4.9720001220703125,0,0
2487.970996,0.007171630859375,0.956207275390625,-0.224761962890625,-0.187164306640625,0.06103515625,-0.732421875,4.33349609375,-0.3651123046875,0.0916748046875,-0.895751953125,-23.0,-301.0,319.0,101923.0,-4.9720001220703125,0,0
2487.977995,0.007171630859375,0.956085205078125,-0.22509765625,-0.1875,-0.1220703125,-0.67138671875,4.21142578125,-0.36767578125,0.0938720703125,-0.896484375,-23.0,-301.0,319.0,101923.0,-4.9720001220703125,0,0
2487.98502,0.007171630859375,0.956024169921875,-0.225189208984375,-0.1876220703125,-0.42724609375,-1.220703125,2.99072265625,-0.3779296875,0.0947265625,-0.904296875,-23.0,-301.0,319.0,101923.0,-4.9720001220703125,0,0
2487.992004,0.007171630859375,0.9559326171875,-0.225341796875,-0.187957763671875,-0.06103515625,-1.40380859375,2.8076171875,-0.3831787109375,0.0972900390625,-0.90673828125,-23.0,-301.0,319.0,101923.0,-4.9720001220703125,0,0
2488.012997,0.0072021484375,0.9556884765625,-0.225494384765625,-0.18890380859375,-0.79345703125,-1.708984375,0.8544921875,-0.3956298828125,0.1063232421875,-0.91015625,-23.0,-301.0,319.0,101923.0,-4.9720001220703125,0,0
2488.020018,0.007232666015625,0.95562744140625,-0.225494384765625,-0.1893310546875,-1.15966796875,-1.77001953125,-0.18310546875,-0.3997802734375,0.107421875,-0.914306640625,-23.0,-301.0,319.0,101923.0,-4.9720001220703125,0,0
2488.027001,0.00726318359375,0.955596923828125,-0.2254638671875,-0.18951416015625,-1.3427734375,-1.5869140625,-0.42724609375,-0.4005126953125,0.1104736328125,-0.911865234375,-23.0,-301.0,319.0,101923.0,-4.9720001220703125,0,0
2488.034018,0.007354736328125,0.955535888671875,-0.225372314453125,-0.189910888671875,-1.5869140625,-0.9765625,-1.0986328125,-0.40283203125,0.1142578125,-0.9141845703125,-23.0,-301.0,319.0,101923.0,-4.9720001220703125,0,0
2488.040995,0.007537841796875,0.95550537109375,-0.2252197265625,-0.19024658203125,-1.708984375,-0.30517578125,-1.77001953125,-0.3974609375,0.1241455078125,-0.920654296875,-23.0,-301.0,318.0,101923.0,-4.9720001220703125,0,0
2488.047028,0.007537841796875,0.95550537109375,-0.2252197265625,-0.19024658203125,-1.708984375,-0.30517578125,-1.77001953125,-0.3974609375,0.1241455078125,-0.920654296875,-23.0,-301.0,318.0,101923.0,-4.9720001220703125,0,0
2488.054018,0.007965087890625,0.955657958984375,-0.224212646484375,-0.1905517578125,-1.15966796875,0.79345703125,-2.9296875,-0.384033203125,0.1328125,-0.9224853515625,-23.0,-301.0,318.0,101923.0,-4.9720001220703125,0,0
2488.060996,0.0081787109375,0.9556884765625,-0.224029541015625,-0.19061279296875,-1.03759765625,1.8310546875,-3.2958984375,-0.374267578125,0.1375732421875,-0.92041015625,-23.0,-301.0,318.0,101923.0,-4.9720001220703125,0,0
2488.067996,0.0084228515625,0.955780029296875,-0.22381591796875,-0.190521240234375,-0.79345703125,2.25830078125,-3.662109375,-0.36669921875,0.135986328125,-0.925537109375,-23.0,-301.0,318.0,101923.0,-4.9720001220703125,0,0
2488.07502,0.008544921875,0.955810546875,-0.22369384765625,-0.190460205078125,-0.732421875,2.5634765625,-4.2724609375,-0.348388671875,0.138916015625,-0.9287109375,-23.0,-301.0,318.0,101923.0,-4.9720001220703125,0,0
2488.082004,0.00885009765625,0.955902099609375,-0.22344970703125,-0.190216064453125,-0.6103515625,3.23486328125,-4.2724609375,-0.334228515625,0.14111328125,-0.92626953125,-23.0,-301.0,318.0,101923.0,-4.9720001220703125,0,0
2488.089018,0.009185791015625,0.956024169921875,-0.22320556640625,-0.189910888671875,-0.8544921875,3.35693359375,-4.57763671875,-0.3304443359375,0.1492919921875,-0.929931640625,-23.0,-301.0,318.0,101923.0,-4.9720001220703125,0,0
2488.095998,0.00933837890625,0.956085205078125,-0.223052978515625,-0.18975830078125,-0.54931640625,3.11279296875,-5.06591796875,-0.3265380859375,0.1513671875,-0.927978515625,-23.0,-301.0,318.0,101923.0,-4.9720001220703125,0,0
2488.102998,0.009765625,0.956298828125,-0.222625732421875,-0.189178466796875,-0.06103515625,3.47900390625,-5.31005859375,-0.31591796875,0.14453125,-0.9224853515625,-23.0,-301.0,318.0,101923.0,-4.9720001220703125,0,0
2488.110018,0.0098876953125,0.956390380859375,-0.222442626953125,-0.188934326171875,0.54931640625,4.21142578125,-6.103515625,-0.3074951171875,0.137939453125,-0.9176025390625,-23.0,-301.0,318.0,101923.0,-4.9720001220703125,0,0
2488.117001,0.010101318359375,0.9566650390625,-0.221893310546875,-0.1881103515625,0.54931640625,4.2724609375,-6.40869140625,-0.3018798828125,0.134033203125,-0.9163818359375,-23.0,-301.0,318.0,101923.0,-4.9720001220703125,0,0
2488.124018,0.010162353515625,0.956787109375,-0.221710205078125,-0.18780517578125,1.03759765625,4.39453125,-6.77490234375,-0.2906494140625,0.119140625,-0.9136962890625,-23.0,-301.0,318.0,101923.0,-4.9720001220703125,0,0
2488.130996,0.010162353515625,0.956878662109375,-0.22149658203125,-0.187530517578125,1.52587890625,3.96728515625,-6.89697265625,-0.2923583984375,0.11376953125,-0.9149169921875,-23.0,-301.0,318.0,101923.0,-4.9730000495910645,0,0
2488.138,0.0101318359375,0.957183837890625,-0.220855712890625,-0.186798095703125,1.28173828125,3.662109375,-7.01904296875,-0.292724609375,0.111572265625,-0.9134521484375,-23.0,-301.0,318.0,101923.0,-4.9730000495910645,0,0
2488.144033,0.0101318359375,0.957183837890625,-0.220855712890625,-0.186798095703125,1.28173828125,3.662109375,-7.01904296875,-0.292724609375,0.111572265625,-0.9134521484375,-23.0,-301.0,318.0,101923.0,-4.9730000495910645,0,0
2488.150996,0.0096435546875,0.9569091796875,-0.22222900390625,-0.1865234375,1.28173828125,1.15966796875,-7.38525390625,-0.3084716796875,0.09228515625,-0.9093017578125,-23.0,-301.0,318.0,101923.0,-4.9730000495910645,0,0
2488.157995,0.00921630859375,0.957122802734375,-0.2215576171875,-0.18621826171875,1.3427734375,0.732421875,-7.14111328125,-0.3116455078125,0.0867919921875,-0.9093017578125,-23.0,-301.0,318.0,101923.0,-4.9730000495910645,0,0
2488.165016,0.009033203125,0.957183837890625,-0.221343994140625,-0.186187744140625,2.13623046875,-0.42724609375,-6.591796875,-0.33349609375,0.073486328125,-0.899658203125,-23.0,-301.0,318.0,101923.0,-4.9730000495910645,0,0
2488.185998,0.007843017578125,0.957427978515625,-0.220367431640625,-0.186279296875,1.953125,-0.1220703125,-4.638671875,-0.3624267578125,0.0391845703125,-0.890380859375,-23.0,-301.0,318.0,101923.0,-4.9730000495910645,0,0
2488.192997,0.007232666015625,0.957489013671875,-0.220062255859375,-0.186309814453125,2.197265625,0.244140625,-4.21142578125,-0.364501953125,0.0333251953125,-0.8956298828125,-23.0,-301.0,318.0,101923.0,-4.9730000495910645,0,0
2488.200018,0.00665283203125,0.957550048828125,-0.21978759765625,-0.18634033203125,1.89208984375,-0.18310546875,-2.99072265625,-0.3653564453125,0.0306396484375,-0.9033203125,-23.0,-301.0,318.0,101923.0,-4.9730000495910645,0,0
2488.207001,0.006195068359375,0.95758056640625,-0.219635009765625,-0.1864013671875,1.77001953125,-0.244140625,-2.44140625,-0.3663330078125,0.0345458984375,-0.9078369140625,-23.0,-301.0,318.0,101923.0,-4.9730000495910645,0,0
2488.214018,0.0059814453125,0.95758056640625,-0.219573974609375,-0.186431884765625,1.220703125,-0.244140625,-0.8544921875,-0.3748779296875,0.0477294921875,-0.91259765625,-23.0,-301.0,318.0,101923.0,-4.9730000495910645,0,0
2488.220995,0.00567626953125,0.957550048828125,-0.21954345703125,-0.186553955078125,1.220703125,-0.67138671875,0.244140625,-0.3726806640625,0.062744140625,-0.926025390625,-23.0,-301.0,318.0,101923.0,-4.9730000495910645,0,0
2488.227995,0.005401611328125,0.95751953125,-0.2196044921875,-0.18670654296875,1.40380859375,-1.220703125,0.9765625,-0.3760986328125,0.0697021484375,-0.9293212890625,-23.0,-301.0,318.0,101923.0,-4.974000453948975,0,0
2488.234027,0.005401611328125,0.95751953125,-0.2196044921875,-0.18670654296875,1.40380859375,-1.220703125,0.9765625,-0.3760986328125,0.0697021484375,-0.9293212890625,-23.0,-301.0,318.0,101923.0,-4.974000453948975,0,0
2488.240996,0.00506591796875,0.957427978515625,-0.219818115234375,-0.18701171875,2.01416015625,-1.40380859375,2.50244140625,-0.3736572265625,0.0787353515625,-0.921875,-24.0,-301.0,317.0,101923.0,-4.974000453948975,0,0
2488.247995,0.0045166015625,0.95697021484375,-0.221649169921875,-0.187103271484375,2.25830078125,-0.8544921875,2.8076171875,-0.3712158203125,0.076904296875,-0.9219970703125,-24.0,-301.0,317.0,101923.0,-4.974000453948975,0,0
2488.255016,0.00439453125,0.956939697265625,-0.221771240234375,-0.1871337890625,2.38037109375,0.06103515625,3.5400390625,-0.3720703125,0.0782470703125,-0.9266357421875,-24.0,-301.0,317.0,101923.0,-4.974000453948975,0,0
2488.275998,0.004150390625,0.956756591796875,-0.222564697265625,-0.187103271484375,1.46484375,0.9765625,4.82177734375,-0.358642578125,0.09521484375,-0.927978515625,-24.0,-301.0,317.0,101923.0,-4.974000453948975,0,0
2488.282998,0.00421142578125,0.956695556640625,-0.22314453125,-0.18682861328125,1.5869140625,1.953125,5.31005859375,-0.3505859375,0.1002197265625,-0.93017578125,-24.0,-301.0,317.0,101923.0,-4.974000453948975,0,0
2488.290018,0.0042724609375,0.9566650390625,-0.22332763671875,-0.18670654296875,1.77001953125,2.44140625,5.126953125,-0.3355712890625,0.107666015625,-0.9317626953125,-24.0,-301.0,317.0,101923.0,-4.974000453948975,0,0
2488.297001,0.004486083984375,0.95660400390625,-0.22393798828125,-0.18621826171875,1.8310546875,2.50244140625,5.37109375,-0.329833984375,0.1103515625,-0.9326171875,-24.0,-301.0,317.0,101923.0,-4.974000453948975,0,0
2488.304018,0.0045166015625,0.95660400390625,-0.224090576171875,-0.186065673828125,1.708984375,2.3193359375,4.45556640625,-0.318115234375,0.104248046875,-0.9227294921875,-24.0,-301.0,317.0,101923.0,-4.974000453948975,0,0
2488.310995,0.004547119140625,0.95660400390625,-0.224273681640625,-0.185882568359375,1.77001953125,2.62451171875,4.5166015625,-0.31494140625,0.1016845703125,-0.92529296875,-24.0,-301.0,317.0,101923.0,-4.974000453948975,0,0
2488.317995,0.00469970703125,0.95660400390625,-0.224761962890625,-0.185333251953125,1.64794921875,2.44140625,4.150390625,-0.3138427734375,0.09765625,-0.9268798828125,-24.0,-301.0,317.0,101923.0,-4.974000453948975,0,0
2488.32502,0.004791259765625,0.95660400390625,-0.224884033203125,-0.1851806640625,1.0986328125,2.197265625,3.23486328125,-0.3077392578125,0.1119384765625,-0.9144287109375,-24.0,-301.0,317.0,101923.0,-4.974000453948975,0,0
2488.331052,0.004791259765625,0.95660400390625,-0.224884033203125,-0.1851806640625,1.0986328125,2.197265625,3.23486328125,-0.3077392578125,0.1119384765625,-0.9144287109375,-24.0,-301.0,317.0,101923.0,-4.974000453948975,0,0
2488.337995,0.005157470703125,0.956634521484375,-0.22528076171875,-0.184417724609375,0.9765625,2.74658203125,2.25830078125,-0.3013916015625,0.1148681640625,-0.9072265625,-24.0,-301.0,317.0,101923.0,-4.9730000495910645,0,0
2488.34502,0.005218505859375,0.9566650390625,-0.225341796875,-0.1842041015625,1.3427734375,3.35693359375,1.15966796875,-0.296142578125,0.1031494140625,-0.8975830078125,-24.0,-302.0,317.0,101923.0,-4.9730000495910645,0,0
2488.352004,0.00555419921875,0.957061767578125,-0.223876953125,-0.1839599609375,1.46484375,3.35693359375,0.67138671875,-0.2967529296875,0.0980224609375,-0.896728515625,-24.0,-302.0,317.0,101923.0,-4.9730000495910645,0,0
2488.359018,0.00555419921875,0.9571533203125,-0.22393798828125,-0.183349609375,1.0986328125,2.8076171875,-0.42724609375,-0.3004150390625,0.08544921875,-0.896484375,-24.0,-302.0,317.0,101923.0,-4.9730000495910645,0,0
2488.365998,0.00555419921875,0.95721435546875,-0.22393798828125,-0.18316650390625,0.9765625,2.685546875,-0.6103515625,-0.3046875,0.0816650390625,-0.900634765625,-24.0,-302.0,317.0,101923.0,-4.9730000495910645,0,0
2488.372998,0.005462646484375,0.957275390625,-0.223876953125,-0.182861328125,1.03759765625,2.13623046875,-0.67138671875,-0.3077392578125,0.07666015625,-0.900390625,-24.0,-302.0,317.0,101923.0,-4.9730000495910645,0,0
2488.380018,0.005340576171875,0.95733642578125,-0.22381591796875,-0.1826171875,0.9765625,1.708984375,-1.220703125,-0.3214111328125,0.06787109375,-0.903076171875,-24.0,-302.0,317.0,101923.0,-4.9730000495910645,0,0
2488.387001,0.0052490234375,0.957366943359375,-0.2237548828125,-0.182525634765625,0.91552734375,1.8310546875,-1.5869140625,-0.327880859375,0.06884765625,-0.9049072265625,-24.0,-302.0,317.0,101923.0,-4.9730000495910645,0,0
2488.394018,0.005096435546875,0.957427978515625,-0.2236328125,-0.18243408203125,0.3662109375,1.46484375,-1.708984375,-0.343017578125,0.0689697265625,-0.90380859375,-24.0,-302.0,317.0,101923.0,-4.9730000495910645,0,0
2488.400996,0.004913330078125,0.95745849609375,-0.223480224609375,-0.182403564453125,0.1220703125,1.3427734375,-1.77001953125,-0.3555908203125,0.062744140625,-0.902587890625,-24.0,-302.0,317.0,101923.0,-4.9730000495910645,0,0
2488.408,0.004669189453125,0.957489013671875,-0.22332763671875,-0.18243408203125,0.3662109375,1.3427734375,-1.5869140625,-0.3619384765625,0.0601806640625,-0.904296875,-24.0,-302.0,317.0,101923.0,-4.9730000495910645,0,0
2488.41502,0.004547119140625,0.957489013671875,-0.2232666015625,-0.18243408203125,0.06103515625,1.52587890625,-1.46484375,-0.3656005859375,0.053955078125,-0.9117431640625,-24.0,-302.0,317.0,101923.0,-4.9730000495910645,0,0
2488.421053,0.004547119140625,0.957489013671875,-0.2232666015625,-0.18243408203125,0.06103515625,1.52587890625,-1.46484375,-0.3656005859375,0.053955078125,-0.9117431640625,-24.0,-302.0,317.0,101923.0,-4.9730000495910645,0,0
2488.427996,0.00421142578125,0.95751953125,-0.223052978515625,-0.182525634765625,0.0,1.64794921875,-1.03759765625,-0.3743896484375,0.0704345703125,-0.9141845703125,-24.0,-302.0,317.0,101923.0,-4.9730000495910645,0,0
2488.449018,0.00396728515625,0.957305908203125,-0.223907470703125,-0.1826171875,0.8544921875,2.197265625,0.18310546875,-0.37548828125,0.0994873046875,-0.9320068359375,-24.0,-301.0,317.0,101923.0,-4.9730000495910645,0,0
2488.455998,0.003997802734375,0.957305908203125,-0.223968505859375,-0.182647705078125,0.79345703125,1.77001953125,0.91552734375,-0.37841796875,0.1126708984375,-0.9371337890625,-24.0,-301.0,317.0,101923.0,-4.9730000495910645,0,0
2488.462997,0.00408935546875,0.957244873046875,-0.224151611328125,-0.1827392578125,1.0986328125,1.8310546875,1.220703125,-0.38232421875,0.1202392578125,-0.9383544921875,-24.0,-301.0,317.0,101923.0,-4.9730000495910645,0,0
2488.470018,0.00408935546875,0.95721435546875,-0.224212646484375,-0.1827392578125,1.953125,2.62451171875,1.953125,-0.3765869140625,0.104736328125,-0.9224853515625,-24.0,-301.0,317.0,101923.0,-4.9730000495910645,0,0
2488.477001,0.004058837890625,0.95721435546875,-0.22430419921875,-0.182708740234375,2.38037109375,3.23486328125,2.3193359375,-0.3760986328125,0.1007080078125,-0.921142578125,-24.0,-301.0,317.0,101923.0,-4.9730000495910645,0,0
2488.484018,0.00408935546875,0.957183837890625,-0.224609375,-0.1824951171875,1.8310546875,3.84521484375,2.50244140625,-0.3699951171875,0.10400390625,-0.9312744140625,-24.0,-301.0,317.0,101923.0,-4.9730000495910645,0,0
2488.490995,0.004119873046875,0.9571533203125,-0.2247314453125,-0.182403564453125,1.5869140625,3.96728515625,2.9296875,-0.3612060546875,0.10595703125,-0.932861328125,-24.0,-301.0,317.0,101923.0,-4.9730000495910645,0,0
2488.497995,0.0042724609375,0.957122802734375,-0.22509765625,-0.18206787109375,1.708984375,4.0283203125,3.23486328125,-0.3623046875,0.108642578125,-0.9300537109375,-24.0,-301.0,317.0,101923.0,-4.9730000495910645,0,0
2488.50502,0.00433349609375,0.957122802734375,-0.225250244140625,-0.181915283203125,2.01416015625,4.8828125,3.662109375,-0.34619140625,0.1170654296875,-0.929931640625,-24.0,-301.0,317.0,101923.0,-4.9730000495910645,0,0
2488.511999,0.00445556640625,0.957122802734375,-0.225555419921875,-0.181549072265625,1.953125,5.06591796875,3.662109375,-0.3372802734375,0.114013671875,-0.929931640625,-24.0,-301.0,317.0,101923.0,-4.9730000495910645,0,0
2488.518031,0.00445556640625,0.957122802734375,-0.225555419921875,-0.181549072265625,1.953125,5.06591796875,3.662109375,-0.3372802734375,0.114013671875,-0.929931640625,-24.0,-301.0,317.0,101923.0,-4.9730000495910645,0,0
2488.539018,0.004638671875,0.957244873046875,-0.2265625,-0.1796875,2.685546875,4.33349609375,3.35693359375,-0.2923583984375,0.1016845703125,-0.92919921875,-24.0,-301.0,317.0,101923.0,-4.9710001945495605,0,0
2488.545998,0.004669189453125,0.957244873046875,-0.226715087890625,-0.179412841796875,2.50244140625,3.5400390625,3.11279296875,-0.29052734375,0.0999755859375,-0.926513671875,-26.0,-300.0,318.0,101923.0,-4.9710001945495605,0,0
2488.552998,0.00482177734375,0.957489013671875,-0.226165771484375,-0.178955078125,2.44140625,3.0517578125,2.86865234375,-0.289794921875,0.09716796875,-0.9266357421875,-26.0,-300.0,318.0,101923.0,-4.9710001945495605,0,0
2488.560018,0.0047607421875,0.95751953125,-0.22637939453125,-0.17852783203125,2.685546875,1.64794921875,2.38037109375,-0.2900390625,0.0904541015625,-0.9208984375,-26.0,-300.0,318.0,101923.0,-4.9710001945495605,0,0
2488.567001,0.00469970703125,0.95751953125,-0.2265625,-0.17822265625,2.86865234375,1.28173828125,2.0751953125,-0.28955078125,0.08935546875,-0.919921875,-26.0,-300.0,318.0,101923.0,-4.9710001945495605,0,0
2488.574018,0.004638671875,0.95751953125,-0.22662353515625,-0.178070068359375,2.685546875,0.6103515625,1.5869140625,-0.2906494140625,0.090087890625,-0.9183349609375,-26.0,-300.0,318.0,101923.0,-4.9710001945495605,0,0
2488.580995,0.0045166015625,0.957550048828125,-0.22674560546875,-0.177825927734375,2.38037109375,-0.06103515625,0.9765625,-0.29736328125,0.08447265625,-0.910888671875,-26.0,-300.0,318.0,101923.0,-4.9710001945495605,0,0
2488.587995,0.004364013671875,0.957550048828125,-0.226837158203125,-0.17767333984375,2.25830078125,-0.06103515625,0.8544921875,-0.3009033203125,0.0787353515625,-0.9111328125,-26.0,-300.0,318.0,101923.0,-4.9710001945495605,0,0
2488.59502,0.0042724609375,0.957550048828125,-0.226837158203125,-0.1776123046875,1.953125,-0.42724609375,0.1220703125,-0.3095703125,0.0767822265625,-0.9063720703125,-26.0,-300.0,318.0,101923.0,-4.9710001945495605,0,0
2488.601999,0.003997802734375,0.95758056640625,-0.226837158203125,-0.1776123046875,1.64794921875,-1.220703125,-0.42724609375,-0.3172607421875,0.07861328125,-0.908203125,-26.0,-300.0,318.0,101923.0,-4.9710001945495605,0,0
2488.608031,0.003997802734375,0.95758056640625,-0.226837158203125,-0.1776123046875,1.64794921875,-1.220703125,-0.42724609375,-0.3172607421875,0.07861328125,-0.908203125,-26.0,-300.0,318.0,101923.0,-4.9710001945495605,0,0
2488.615016,0.0037841796875,0.957550048828125,-0.226776123046875,-0.177764892578125,1.3427734375,-2.0751953125,-1.40380859375,-0.33447265625,0.0758056640625,-0.90234375,-26.0,-300.0,318.0,101923.0,-4.9710001945495605,0,0
2488.622004,0.003570556640625,0.957550048828125,-0.2266845703125,-0.17791748046875,1.0986328125,-1.77001953125,-1.8310546875,-0.346923828125,0.075439453125,-0.9111328125,-26.0,-300.0,318.0,101923.0,-4.9710001945495605,0,0
2488.629018,0.00335693359375,0.957550048828125,-0.226531982421875,-0.17816162109375,1.220703125,-1.89208984375,-2.01416015625,-0.351806640625,0.0745849609375,-0.9158935546875,-26.0,-300.0,318.0,101923.0,-4.9710001945495605,0,0
2488.635998,0.00323486328125,0.95751953125,-0.226470947265625,-0.17828369140625,1.03759765625,-2.25830078125,-2.197265625,-0.354736328125,0.073974609375,-0.9150390625,-26.0,-300.0,318.0,101923.0,-4.9710001945495605,0,0
2488.642998,0.003021240234375,0.95751953125,-0.226287841796875,-0.17852783203125,0.1220703125,-1.953125,-2.3193359375,-0.3548583984375,0.069580078125,-0.91455078125,-27.0,-301.0,318.0,101923.0,-4.9710001945495605,0,0
2488.650018,0.00286865234375,0.95758056640625,-0.22589111328125,-0.178741455078125,0.48828125,-1.28173828125,-1.8310546875,-0.35400390625,0.0718994140625,-0.918212890625,-27.0,-301.0,318.0,101923.0,-4.9710001945495605,0,0
2488.657001,0.0028076171875,0.957611083984375,-0.225799560546875,-0.178802490234375,0.3662109375,-0.91552734375,-2.25830078125,-0.3548583984375,0.0723876953125,-0.9207763671875,-27.0,-301.0,318.0,101923.0,-4.9710001945495605,0,0
2488.664018,0.00262451171875,0.95758056640625,-0.2255859375,-0.179107666015625,0.18310546875,-1.3427734375,-1.40380859375,-0.363037109375,0.0826416015625,-0.9345703125,-27.0,-301.0,318.0,101923.0,-4.9710001945495605,0,0
2488.670996,0.002593994140625,0.95758056640625,-0.225555419921875,-0.17919921875,-0.06103515625,-1.28173828125,-1.40380859375,-0.3662109375,0.0828857421875,-0.9317626953125,-27.0,-301.0,318.0,101923.0,-4.9710001945495605,0,0
2488.678,0.002532958984375,0.95758056640625,-0.225494384765625,-0.1793212890625,0.30517578125,-1.28173828125,-1.28173828125,-0.3675537109375,0.083251953125,-0.932861328125,-27.0,-301.0,318.0,101923.0,-4.9710001945495605,0,0
2488.68502,0.002410888671875,0.95751953125,-0.22540283203125,-0.179656982421875,0.06103515625,-1.15966796875,-0.42724609375,-0.3673095703125,0.0816650390625,-0.9320068359375,-27.0,-301.0,318.0,101923.0,-4.9710001945495605,0,0
2488.691999,0.00238037109375,0.95751953125,-0.22540283203125,-0.179779052734375,-0.3662109375,-0.9765625,-0.30517578125,-0.367431640625,0.0806884765625,-0.928466796875,-27.0,-301.0,318.0,101923.0,-4.9710001945495605,0,0
2488.712004,0.002288818359375,0.95745849609375,-0.225372314453125,-0.180084228515625,-0.79345703125,0.91552734375,0.3662109375,-0.3583984375,0.08837890625,-0.9287109375,-27.0,-301.0,318.0,101923.0,-4.9710001945495605,0,0
2488.719018,0.00238037109375,0.95745849609375,-0.225372314453125,-0.18017578125,-0.732421875,1.03759765625,0.732421875,-0.3487548828125,0.1019287109375,-0.931884765625,-27.0,-301.0,318.0,101923.0,-4.9710001945495605,0,0
2488.725998,0.002471923828125,0.957427978515625,-0.22540283203125,-0.180145263671875,-0.732421875,1.64794921875,0.8544921875,-0.3465576171875,0.1046142578125,-0.9290771484375,-27.0,-301.0,318.0,101923.0,-4.970000267028809,0,0
2488.732998,0.002685546875,0.957427978515625,-0.2254638671875,-0.18011474609375,-0.732421875,1.52587890625,0.8544921875,-0.3470458984375,0.106689453125,-0.9254150390625,-27.0,-301.0,318.0,101923.0,-4.970000267028809,0,0
2488.740018,0.00286865234375,0.957427978515625,-0.22552490234375,-0.17999267578125,-0.3662109375,2.38037109375,0.54931640625,-0.331298828125,0.107177734375,-0.9234619140625,-27.0,-301.0,318.0,101923.0,-4.970000267028809,0,0
2488.747001,0.002960205078125,0.95745849609375,-0.225555419921875,-0.17987060546875,-0.06103515625,2.685546875,0.67138671875,-0.3182373046875,0.1011962890625,-0.923095703125,-27.0,-302.0,318.0,101923.0,-4.970000267028809,0,0
2488.754019,0.0030517578125,0.9573974609375,-0.226043701171875,-0.1795654296875,0.30517578125,2.44140625,0.732421875,-0.3111572265625,0.1038818359375,-0.921875,-27.0,-302.0,318.0,101923.0,-4.970000267028809,0,0
2488.760995,0.00323486328125,0.95745849609375,-0.226104736328125,-0.17919921875,-0.1220703125,2.685546875,0.30517578125,-0.2930908203125,0.0970458984375,-0.9163818359375,-27.0,-302.0,318.0,101923.0,-4.970000267028809,0,0
2488.767996,0.00341796875,0.95751953125,-0.22613525390625,-0.178802490234375,-0.30517578125,2.9296875,0.18310546875,-0.2930908203125,0.0968017578125,-0.9180908203125,-27.0,-302.0,318.0,101923.0,-4.970000267028809,0,0
2488.77502,0.00347900390625,0.957550048828125,-0.226165771484375,-0.178619384765625,-0.3662109375,2.25830078125,0.30517578125,-0.29150390625,0.0958251953125,-0.9256591796875,-27.0,-302.0,318.0,101923.0,-4.970000267028809,0,0
2488.781999,0.003662109375,0.95758056640625,-0.2261962890625,-0.17828369140625,-0.244140625,1.220703125,0.0,-0.290283203125,0.096923828125,-0.9261474609375,-27.0,-302.0,318.0,101923.0,-4.970000267028809,0,0
2488.802004,0.00384521484375,0.9576416015625,-0.22625732421875,-0.177947998046875,0.1220703125,0.244140625,-0.79345703125,-0.3140869140625,0.0833740234375,-0.907958984375,-27.0,-302.0,318.0,101923.0,-4.970000267028809,0,0
2488.809018,0.0037841796875,0.957672119140625,-0.226226806640625,-0.1778564453125,0.1220703125,-0.1220703125,-1.220703125,-0.31689453125,0.0712890625,-0.9127197265625,-27.0,-302.0,318.0,101923.0,-4.970000267028809,0,0
2488.815998,0.00372314453125,0.95770263671875,-0.226165771484375,-0.177825927734375,0.30517578125,-0.1220703125,-1.40380859375,-0.3162841796875,0.0692138671875,-0.9111328125,-27.0,-302.0,318.0,101923.0,-4.970000267028809,0,0
2488.822997,0.00347900390625,0.957733154296875,-0.22601318359375,-0.177734375,0.54931640625,0.06103515625,-1.220703125,-0.3216552734375,0.0654296875,-0.9041748046875,-27.0,-302.0,318.0,101923.0,-4.970000267028809,0,0
2488.830018,0.003387451171875,0.957763671875,-0.2259521484375,-0.177703857421875,0.0,0.06103515625,-1.15966796875,-0.3238525390625,0.05810546875,-0.911376953125,-27.0,-302.0,318.0,101923.0,-4.9710001945495605,0,0
2488.837001,0.003326416015625,0.957794189453125,-0.225921630859375,-0.17767333984375,0.06103515625,0.06103515625,-1.3427734375,-0.327392578125,0.0567626953125,-0.91650390625,-27.0,-302.0,318.0,101923.0,-4.9710001945495605,0,0
2488.844018,0.003021240234375,0.95782470703125,-0.225738525390625,-0.177703857421875,0.0,-0.79345703125,-1.52587890625,-0.3316650390625,0.056884765625,-0.9171142578125,-26.0,-302.0,318.0,101923.0,-4.9710001945495605,0,0
2488.850995,0.002838134765625,0.957733154296875,-0.22607421875,-0.177734375,-0.1220703125,-1.220703125,-1.40380859375,-0.3389892578125,0.057861328125,-0.916259765625,-26.0,-302.0,318.0,101923.0,-4.9710001945495605,0,0
2488.857995,0.0025634765625,0.95770263671875,-0.225921630859375,-0.178070068359375,-0.244140625,-1.89208984375,-1.220703125,-0.34326171875,0.0592041015625,-0.9149169921875,-26.0,-302.0,318.0,101923.0,-4.9710001945495605,0,0
2488.86502,0.002471923828125,0.95770263671875,-0.225860595703125,-0.178253173828125,-0.18310546875,-3.35693359375,-1.220703125,-0.3631591796875,0.064697265625,-0.9232177734375,-26.0,-302.0,318.0,101923.0,-4.9710001945495605,0,0
2488.871999,0.00238037109375,0.957672119140625,-0.225799560546875,-0.178436279296875,0.18310546875,-2.99072265625,-1.52587890625,-0.364990234375,0.075439453125,-0.9150390625,-26.0,-302.0,318.0,101923.0,-4.9710001945495605,0,0
2488.879016,0.00213623046875,0.957611083984375,-0.22564697265625,-0.17889404296875,0.18310546875,-2.5634765625,-1.5869140625,-0.3663330078125,0.0732421875,-0.90869140625,-26.0,-302.0,318.0,101923.0,-4.9710001945495605,0,0
2488.885998,0.002105712890625,0.957611083984375,-0.225616455078125,-0.17901611328125,0.30517578125,-0.67138671875,-1.03759765625,-0.3658447265625,0.0841064453125,-0.9156494140625,-26.0,-302.0,318.0,101923.0,-4.9710001945495605,0,0
2488.89203,0.002105712890625,0.957611083984375,-0.225616455078125,-0.17901611328125,0.30517578125,-0.67138671875,-1.03759765625,-0.3658447265625,0.0841064453125,-0.9156494140625,-26.0,-302.0,318.0,101923.0,-4.9710001945495605,0,0
2488.899019,0.002105712890625,0.957550048828125,-0.2255859375,-0.17938232421875,0.6103515625,0.54931640625,0.18310546875,-0.373779296875,0.10009765625,-0.926025390625,-26.0,-302.0,318.0,101923.0,-4.9710001945495605,0,0
2488.905998,0.00213623046875,0.95751953125,-0.225616455078125,-0.179443359375,0.3662109375,1.15966796875,0.42724609375,-0.373779296875,0.0986328125,-0.9244384765625,-26.0,-302.0,318.0,101923.0,-4.9710001945495605,0,0
2488.912997,0.002197265625,0.957489013671875,-0.225677490234375,-0.1795654296875,0.54931640625,1.15966796875,0.732421875,-0.3707275390625,0.1016845703125,-0.9268798828125,-26.0,-302.0,318.0,101923.0,-4.9710001945495605,0,0
2488.920018,0.002227783203125,0.957427978515625,-0.225799560546875,-0.17962646484375,0.9765625,1.0986328125,1.64794921875,-0.3636474609375,0.103515625,-0.9339599609375,-26.0,-302.0,318.0,101923.0,-4.9710001945495605,0,0
2488.927001,0.002227783203125,0.957427978515625,-0.225860595703125,-0.1796875,1.46484375,0.91552734375,1.5869140625,-0.3626708984375,0.1026611328125,-0.9276123046875,-26.0,-302.0,318.0,101923.0,-4.9710001945495605,0,0
2488.934018,0.002227783203125,0.957366943359375,-0.226043701171875,-0.179718017578125,1.77001953125,1.0986328125,1.953125,-0.361328125,0.1025390625,-0.924560546875,-26.0,-302.0,318.0,101923.0,-4.9710001945495605,0,0
2488.940995,0.002227783203125,0.95733642578125,-0.226226806640625,-0.1796875,2.197265625,2.25830078125,2.8076171875,-0.351806640625,0.0987548828125,-0.9176025390625,-26.0,-302.0,318.0,101923.0,-4.9710001945495605,0,0
2488.948,0.002197265625,0.957305908203125,-0.226348876953125,-0.17962646484375,2.01416015625,1.953125,3.0517578125,-0.34619140625,0.097412109375,-0.9193115234375,-25.0,-302.0,319.0,101923.0,-4.9710001945495605,0,0
2488.95502,0.002349853515625,0.957427978515625,-0.226043701171875,-0.179473876953125,2.13623046875,2.5634765625,3.47900390625,-0.33349609375,0.097412109375,-0.9156494140625,-25.0,-302.0,319.0,101923.0,-4.9710001945495605,0,0
2488.975998,0.002288818359375,0.9573974609375,-0.22674560546875,-0.17864990234375,2.25830078125,3.662109375,3.7841796875,-0.3045654296875,0.079345703125,-0.9080810546875,-25.0,-302.0,319.0,101923.0,-4.9710001945495605,0,0
2488.982031,0.002288818359375,0.9573974609375,-0.22674560546875,-0.17864990234375,2.25830078125,3.662109375,3.7841796875,-0.3045654296875,0.079345703125,-0.9080810546875,-25.0,-302.0,319.0,101923.0,-4.9710001945495605,0,0
2488.989018,0.002197265625,0.957427978515625,-0.22735595703125,-0.177825927734375,2.3193359375,2.38037109375,3.7841796875,-0.29248046875,0.07763671875,-0.9107666015625,-25.0,-302.0,319.0,101923.0,-4.9710001945495605,0,0
2488.995998,0.002197265625,0.957427978515625,-0.227508544921875,-0.1776123046875,2.13623046875,1.8310546875,3.7841796875,-0.2847900390625,0.0772705078125,-0.90478515625,-25.0,-302.0,319.0,101923.0,-4.9710001945495605,0,0
2489.002998,0.002044677734375,0.95745849609375,-0.227813720703125,-0.177032470703125,1.89208984375,1.64794921875,2.86865234375,-0.282470703125,0.0675048828125,-0.9056396484375,-25.0,-302.0,319.0,101923.0,-4.9710001945495605,0,0
2489.010018,0.001983642578125,0.95745849609375,-0.2279052734375,-0.176849365234375,1.77001953125,1.03759765625,2.25830078125,-0.2818603515625,0.060791015625,-0.906982421875,-25.0,-302.0,319.0,101923.0,-4.9710001945495605,0,0
2489.017001,0.00189208984375,0.95745849609375,-0.227996826171875,-0.17669677734375,1.708984375,0.67138671875,1.953125,-0.283447265625,0.0589599609375,-0.90576171875,-25.0,-302.0,319.0,101923.0,-4.9710001945495605,0,0
2489.024018,0.00164794921875,0.95751953125,-0.228057861328125,-0.17633056640625,0.244140625,0.91552734375,0.6103515625,-0.2923583984375,0.0426025390625,-0.897705078125,-25.0,-302.0,319.0,101923.0,-4.9710001945495605,0,0
2489.030996,0.001556396484375,0.957550048828125,-0.228057861328125,-0.17620849609375,0.06103515625,0.67138671875,0.18310546875,-0.2935791015625,0.041259765625,-0.9007568359375,-25.0,-302.0,319.0,101923.0,-4.9710001945495605,0,0
2489.038,0.0013427734375,0.957611083984375,-0.22796630859375,-0.175994873046875,-0.79345703125,0.6103515625,0.0,-0.2977294921875,0.0411376953125,-0.907958984375,-25.0,-302.0,319.0,101923.0,-4.9710001945495605,0,0
2489.059016,0.00128173828125,0.957733154296875,-0.22735595703125,-0.17620849609375,-2.99072265625,-1.5869140625,-1.89208984375,-0.33837890625,0.058349609375,-0.9246826171875,-25.0,-302.0,319.0,101923.0,-4.9710001945495605,0,0
2489.065998,0.00128173828125,0.957733154296875,-0.22723388671875,-0.176300048828125,-3.35693359375,-2.0751953125,-2.5634765625,-0.3458251953125,0.059326171875,-0.927490234375,-25.0,-302.0,319.0,101923.0,-4.9710001945495605,0,0
2489.072997,0.00128173828125,0.957733154296875,-0.22698974609375,-0.1766357421875,-3.23486328125,-2.50244140625,-2.3193359375,-0.350830078125,0.05810546875,-0.9256591796875,-25.0,-302.0,319.0,101923.0,-4.9710001945495605,0,0
2489.079025,0.00128173828125,0.957733154296875,-0.22698974609375,-0.1766357421875,-3.23486328125,-2.50244140625,-2.3193359375,-0.350830078125,0.05810546875,-0.9256591796875,-25.0,-302.0,319.0,101923.0,-4.9710001945495605,0,0
2489.085998,0.001373291015625,0.95770263671875,-0.22662353515625,-0.17718505859375,-4.82177734375,-0.9765625,-2.38037109375,-0.365234375,0.0628662109375,-0.9161376953125,-25.0,-302.0,319.0,101923.0,-4.9710001945495605,0,0
2489.092998,0.001617431640625,0.957733154296875,-0.226348876953125,-0.177459716796875,-5.37109375,-0.48828125,-2.50244140625,-0.3643798828125,0.071044921875,-0.916748046875,-25.0,-302.0,319.0,101923.0,-4.9710001945495605,0,0
2489.100018,0.001953125,0.957733154296875,-0.226104736328125,-0.17767333984375,-6.2255859375,0.06103515625,-2.5634765625,-0.3587646484375,0.0872802734375,-0.9366455078125,-25.0,-302.0,319.0,101923.0,-4.9710001945495605,0,0
2489.107001,0.002166748046875,0.957763671875,-0.225982666015625,-0.177764892578125,-6.103515625,0.06103515625,-2.62451171875,-0.3597412109375,0.0960693359375,-0.93701171875,-25.0,-302.0,319.0,101923.0,-4.9710001945495605,0,0
2489.114018,0.00262451171875,0.957763671875,-0.22576904296875,-0.178009033203125,-6.16455078125,0.0,-2.25830078125,-0.3609619140625,0.1092529296875,-0.94384765625,-25.0,-302.0,319.0,101923.0,-4.9710001945495605,0,0
2489.120995,0.003173828125,0.957763671875,-0.225555419921875,-0.178253173828125,-6.2255859375,-1.0986328125,-2.0751953125,-0.35693359375,0.1195068359375,-0.9521484375,-25.0,-302.0,319.0,101923.0,-4.9710001945495605,0,0
2489.127995,0.003448486328125,0.957733154296875,-0.2254638671875,-0.178436279296875,-6.2255859375,-1.708984375,-1.953125,-0.3564453125,0.1209716796875,-0.9530029296875,-25.0,-302.0,319.0,101923.0,-4.9710001945495605,0,0
2489.13502,0.003936767578125,0.95770263671875,-0.225311279296875,-0.17877197265625,-5.37109375,-2.3193359375,-1.77001953125,-0.3560791015625,0.1197509765625,-0.9473876953125,-25.0,-302.0,319.0,101923.0,-4.9710001945495605,0,0
2489.141999,0.004364013671875,0.95770263671875,-0.22515869140625,-0.179107666015625,-5.18798828125,-2.0751953125,-1.46484375,-0.3511962890625,0.116455078125,-0.9420166015625,-26.0,-302.0,320.0,101923.0,-4.9710001945495605,0,0
2489.149016,0.00457763671875,0.957366943359375,-0.226226806640625,-0.179412841796875,-5.31005859375,-2.0751953125,-1.3427734375,-0.349365234375,0.11572265625,-0.9398193359375,-26.0,-302.0,320.0,101923.0,-4.9710001945495605,0,0
2489.155998,0.004791259765625,0.957366943359375,-0.226165771484375,-0.179534912109375,-5.0048828125,-2.01416015625,-0.91552734375,-0.3446044921875,0.1163330078125,-0.9344482421875,-26.0,-302.0,320.0,101923.0,-4.9710001945495605,0,0
2489.162997,0.00543212890625,0.95733642578125,-0.226043701171875,-0.179840087890625,-5.0048828125,-1.28173828125,-0.732421875,-0.339599609375,0.111328125,-0.923095703125,-26.0,-302.0,320.0,101923.0,-4.9710001945495605,0,0
2489.169025,0.00543212890625,0.95733642578125,-0.226043701171875,-0.179840087890625,-5.0048828125,-1.28173828125,-0.732421875,-0.339599609375,0.111328125,-0.923095703125,-26.0,-302.0,320.0,101923.0,-4.9710001945495605,0,0
2489.175998,0.005859375,0.95733642578125,-0.22601318359375,-0.179840087890625,-4.638671875,-0.48828125,0.06103515625,-0.3125,0.1024169921875,-0.92626953125,-26.0,-302.0,320.0,101923.0,-4.9710001945495605,0,0
2489.182998,0.0062255859375,0.95733642578125,-0.225982666015625,-0.1798095703125,-4.2724609375,-1.15966796875,0.30517578125,-0.3021240234375,0.0994873046875,-0.9271240234375,-26.0,-302.0,320.0,101923.0,-4.9710001945495605,0,0
2489.190018,0.006500244140625,0.95733642578125,-0.225982666015625,-0.179840087890625,-3.662109375,-2.50244140625,0.30517578125,-0.302978515625,0.0933837890625,-0.9251708984375,-26.0,-302.0,320.0,101923.0,-4.9710001945495605,0,0
2489.197001,0.006591796875,0.95733642578125,-0.225982666015625,-0.179901123046875,-3.2958984375,-3.35693359375,0.79345703125,-0.301513671875,0.090576171875,-0.923828125,-26.0,-302.0,320.0,101923.0,-4.9710001945495605,0,0
2489.204018,0.00677490234375,0.957275390625,-0.226043701171875,-0.18011474609375,-2.50244140625,-5.2490234375,0.9765625,-0.299072265625,0.0789794921875,-0.914794921875,-26.0,-302.0,320.0,101923.0,-4.9710001945495605,0,0
2489.210995,0.00677490234375,0.957244873046875,-0.22607421875,-0.180206298828125,-2.13623046875,-5.92041015625,0.9765625,-0.2943115234375,0.0712890625,-0.9111328125,-26.0,-302.0,320.0,101923.0,-4.9710001945495605,0,0
2489.217995,0.006591796875,0.9571533203125,-0.22613525390625,-0.18060302734375,-2.197265625,-6.40869140625,1.03759765625,-0.2957763671875,0.064208984375,-0.9029541015625,-26.0,-302.0,320.0,101923.0,-4.9710001945495605,0,0
2489.239016,0.006011962890625,0.95703125,-0.22625732421875,-0.18115234375,-0.9765625,-5.126953125,1.3427734375,-0.306640625,0.04296875,-0.8863525390625,-26.0,-302.0,320.0,101923.0,-4.9710001945495605,0,0
2489.245998,0.005859375,0.957000732421875,-0.226287841796875,-0.181243896484375,-0.732421875,-4.57763671875,1.953125,-0.3109130859375,0.0372314453125,-0.8896484375,-26.0,-304.0,321.0,101923.0,-4.9710001945495605,0,0
2489.252997,0.005615234375,0.956939697265625,-0.22637939453125,-0.181427001953125,-0.67138671875,-4.638671875,1.89208984375,-0.3145751953125,0.0404052734375,-0.891845703125,-26.0,-304.0,321.0,101923.0,-4.9710001945495605,0,0
2489.25903,0.005615234375,0.956939697265625,-0.22637939453125,-0.181427001953125,-0.67138671875,-4.638671875,1.89208984375,-0.3145751953125,0.0404052734375,-0.891845703125,-26.0,-304.0,321.0,101923.0,-4.9710001945495605,0,0
2489.265998,0.005279541015625,0.95684814453125,-0.226531982421875,-0.181793212890625,-0.67138671875,-4.45556640625,2.197265625,-0.330810546875,0.05322265625,-0.90869140625,-26.0,-304.0,321.0,101923.0,-4.9710001945495605,0,0
2489.272998,0.00506591796875,0.956756591796875,-0.226654052734375,-0.18212890625,-0.18310546875,-5.06591796875,2.3193359375,-0.3365478515625,0.0596923828125,-0.910400390625,-26.0,-304.0,321.0,101923.0,-4.9710001945495605,0,0
2489.280018,0.00494384765625,0.956634521484375,-0.226837158203125,-0.1824951171875,0.30517578125,-5.06591796875,2.99072265625,-0.35009765625,0.083740234375,-0.9051513671875,-26.0,-304.0,321.0,101923.0,-4.9710001945495605,0,0
2489.287001,0.0048828125,0.956573486328125,-0.226959228515625,-0.182708740234375,0.48828125,-4.5166015625,3.23486328125,-0.35498046875,0.0869140625,-0.9012451171875,-26.0,-304.0,321.0,101923.0,-4.9710001945495605,0,0
2489.294019,0.00482177734375,0.956451416015625,-0.227203369140625,-0.183074951171875,0.732421875,-3.60107421875,3.60107421875,-0.3577880859375,0.093017578125,-0.899658203125,-26.0,-304.0,321.0,101923.0,-4.9710001945495605,0,0
2489.300996,0.004791259765625,0.956329345703125,-0.227508544921875,-0.183319091796875,1.46484375,-1.40380859375,4.21142578125,-0.357666015625,0.10205078125,-0.902099609375,-26.0,-304.0,321.0,101923.0,-4.9710001945495605,0,0
2489.321999,0.004730224609375,0.956085205078125,-0.228424072265625,-0.18353271484375,2.25830078125,1.03759765625,5.615234375,-0.3663330078125,0.10400390625,-0.9151611328125,-26.0,-304.0,321.0,101923.0,-4.9710001945495605,0,0
2489.329016,0.00469970703125,0.955963134765625,-0.22882080078125,-0.18359375,1.953125,0.91552734375,5.615234375,-0.3648681640625,0.1043701171875,-0.917236328125,-26.0,-304.0,321.0,101923.0,-4.9710001945495605,0,0
2489.335998,0.004730224609375,0.955902099609375,-0.229034423828125,-0.183624267578125,1.8310546875,1.03759765625,5.79833984375,-0.3681640625,0.1082763671875,-0.9168701171875,-26.0,-304.0,321.0,101923.0,-4.9710001945495605,0,0
2489.342997,0.0047607421875,0.955780029296875,-0.2294921875,-0.183685302734375,1.89208984375,1.52587890625,6.4697265625,-0.3739013671875,0.1123046875,-0.9090576171875,-26.0,-303.0,321.0,101923.0,-4.9710001945495605,0,0
2489.350022,0.00494384765625,0.95574951171875,-0.229522705078125,-0.18377685546875,1.89208984375,2.25830078125,6.04248046875,-0.3802490234375,0.118896484375,-0.906494140625,-26.0,-303.0,321.0,101923.0,-4.9710001945495605,0,0
2489.35605,0.00494384765625,0.95574951171875,-0.229522705078125,-0.18377685546875,1.89208984375,2.25830078125,6.04248046875,-0.3802490234375,0.118896484375,-0.906494140625,-26.0,-303.0,321.0,101923.0,-4.9710001945495605,0,0
2489.362997,0.0052490234375,0.955535888671875,-0.23040771484375,-0.183807373046875,1.220703125,3.72314453125,6.103515625,-0.379638671875,0.123779296875,-0.8958740234375,-26.0,-303.0,321.0,101923.0,-4.9710001945495605,0,0
2489.370018,0.005340576171875,0.95550537109375,-0.2305908203125,-0.183746337890625,1.40380859375,5.615234375,5.79833984375,-0.371337890625,0.123779296875,-0.8892822265625,-26.0,-303.0,321.0,101923.0,-4.9710001945495605,0,0
2489.377001,0.005462646484375,0.955474853515625,-0.230804443359375,-0.183624267578125,1.52587890625,6.53076171875,5.79833984375,-0.363525390625,0.126220703125,-0.8934326171875,-26.0,-303.0,321.0,101923.0,-4.9720001220703125,0,0
2489.384018,0.00592041015625,0.9554443359375,-0.2314453125,-0.182952880859375,1.52587890625,7.87353515625,5.37109375,-0.3414306640625,0.129638671875,-0.9010009765625,-26.0,-303.0,321.0,101923.0,-4.9720001220703125,0,0
2489.390995,0.006072998046875,0.955474853515625,-0.23162841796875,-0.182647705078125,1.3427734375,8.30078125,5.0048828125,-0.3232421875,0.1318359375,-0.9061279296875,-26.0,-303.0,321.0,101923.0,-4.9720001220703125,0,0
2489.397995,0.006561279296875,0.95550537109375,-0.232208251953125,-0.181671142578125,1.28173828125,8.36181640625,5.126953125,-0.31640625,0.1285400390625,-0.9117431640625,-26.0,-303.0,321.0,101923.0,-4.9720001220703125,0,0
2489.40502,0.006683349609375,0.95550537109375,-0.232391357421875,-0.181365966796875,1.40380859375,7.01904296875,4.94384765625,-0.3070068359375,0.1195068359375,-0.9154052734375,-26.0,-303.0,321.0,101923.0,-4.9720001220703125,0,0
2489.411999,0.006805419921875,0.95550537109375,-0.23260498046875,-0.18109130859375,1.28173828125,6.04248046875,5.06591796875,-0.3070068359375,0.115234375,-0.9158935546875,-26.0,-303.0,321.0,101923.0,-4.9720001220703125,0,0
2489.419016,0.007049560546875,0.95550537109375,-0.233123779296875,-0.180419921875,1.3427734375,5.37109375,4.69970703125,-0.3087158203125,0.1131591796875,-0.9158935546875,-26.0,-303.0,321.0,101923.0,-4.9720001220703125,0,0
2489.425997,0.007171630859375,0.95550537109375,-0.2332763671875,-0.18023681640625,0.54931640625,4.39453125,4.57763671875,-0.310302734375,0.1068115234375,-0.907958984375,-26.0,-303.0,321.0,101923.0,-4.9720001220703125,0,0
2489.432997,0.007232666015625,0.95550537109375,-0.23345947265625,-0.1800537109375,0.244140625,4.45556640625,4.638671875,-0.31103515625,0.1015625,-0.9034423828125,-26.0,-303.0,321.0,101923.0,-4.9720001220703125,0,0
2489.440022,0.007537841796875,0.95550537109375,-0.233856201171875,-0.179473876953125,-0.732421875,4.94384765625,4.0283203125,-0.3143310546875,0.0941162109375,-0.90283203125,-26.0,-303.0,321.0,101923.0,-4.9720001220703125,0,0
2489.44605,0.007537841796875,0.95550537109375,-0.233856201171875,-0.179473876953125,-0.732421875,4.94384765625,4.0283203125,-0.3143310546875,0.0941162109375,-0.90283203125,-26.0,-303.0,321.0,101923.0,-4.9720001220703125,0,0
2489.452997,0.0078125,0.95562744140625,-0.233734130859375,-0.179046630859375,-1.220703125,5.7373046875,3.41796875,-0.3133544921875,0.09521484375,-0.9010009765625,-26.0,-302.0,322.0,101923.0,-4.9720001220703125,0,0
2489.460018,0.008209228515625,0.955657958984375,-0.234039306640625,-0.17840576171875,-1.15966796875,5.9814453125,3.23486328125,-0.3140869140625,0.0975341796875,-0.907470703125,-26.0,-302.0,322.0,101923.0,-4.9720001220703125,0,0
2489.467001,0.008331298828125,0.955657958984375,-0.234100341796875,-0.178253173828125,-1.708984375,4.45556640625,2.5634765625,-0.3201904296875,0.1029052734375,-0.9285888671875,-26.0,-302.0,322.0,101923.0,-4.9720001220703125,0,0
2489.474018,0.008575439453125,0.9556884765625,-0.234222412109375,-0.177978515625,-1.5869140625,3.96728515625,2.25830078125,-0.3199462890625,0.1053466796875,-0.9329833984375,-26.0,-302.0,322.0,101923.0,-4.9720001220703125,0,0
2489.49502,0.009246826171875,0.9556884765625,-0.23443603515625,-0.177703857421875,-2.13623046875,2.01416015625,1.15966796875,-0.337158203125,0.1138916015625,-0.9459228515625,-26.0,-302.0,322.0,101923.0,-4.970000267028809,0,0
2489.501999,0.00946044921875,0.955657958984375,-0.2344970703125,-0.17767333984375,-2.13623046875,1.52587890625,0.9765625,-0.3465576171875,0.111572265625,-0.943359375,-26.0,-302.0,322.0,101923.0,-4.970000267028809,0,0
2489.509016,0.009674072265625,0.955657958984375,-0.23455810546875,-0.177703857421875,-2.3193359375,1.46484375,1.0986328125,-0.3489990234375,0.1099853515625,-0.9404296875,-26.0,-302.0,322.0,101923.0,-4.970000267028809,0,0
2489.515997,0.00982666015625,0.955657958984375,-0.23455810546875,-0.177734375,-3.35693359375,1.708984375,1.0986328125,-0.3560791015625,0.1083984375,-0.940673828125,-26.0,-302.0,322.0,101923.0,-4.970000267028809,0,0
2489.522997,0.0101318359375,0.95562744140625,-0.234588623046875,-0.177825927734375,-3.35693359375,1.8310546875,1.03759765625,-0.3624267578125,0.1263427734375,-0.94775390625,-26.0,-302.0,322.0,101923.0,-4.970000267028809,0,0
2489.530022,0.01055908203125,0.95556640625,-0.234649658203125,-0.177978515625,-3.60107421875,1.77001953125,0.9765625,-0.367431640625,0.13037109375,-0.949462890625,-26.0,-302.0,322.0,101923.0,-4.970000267028809,0,0
2489.537001,0.010772705078125,0.955535888671875,-0.234649658203125,-0.178070068359375,-3.72314453125,1.3427734375,0.91552734375,-0.3707275390625,0.1402587890625,-0.951171875,-26.0,-302.0,322.0,101923.0,-4.970000267028809,0,0
2489.543033,0.010772705078125,0.955535888671875,-0.234649658203125,-0.178070068359375,-3.72314453125,1.3427734375,0.91552734375,-0.3707275390625,0.1402587890625,-0.951171875,-26.0,-302.0,322.0,101923.0,-4.970000267028809,0,0
2489.550018,0.01171875,0.955535888671875,-0.234283447265625,-0.178497314453125,-2.86865234375,0.8544921875,1.28173828125,-0.3740234375,0.1524658203125,-0.953125,-26.0,-303.0,322.0,101923.0,-4.970000267028809,0,0
2489.557001,0.011932373046875,0.95550537109375,-0.23431396484375,-0.1785888671875,-2.44140625,0.67138671875,1.28173828125,-0.3692626953125,0.1553955078125,-0.9560546875,-26.0,-303.0,322.0,101923.0,-4.970000267028809,0,0
2489.564018,0.012542724609375,0.955413818359375,-0.23443603515625,-0.17889404296875,-1.953125,0.3662109375,0.9765625,-0.3619384765625,0.1611328125,-0.9508056640625,-26.0,-303.0,322.0,101923.0,-4.970000267028809,0,0
2489.58502,0.01324462890625,0.955322265625,-0.23455810546875,-0.179168701171875,-0.79345703125,0.18310546875,0.18310546875,-0.34814453125,0.1529541015625,-0.9444580078125,-26.0,-303.0,322.0,101923.0,-4.9720001220703125,0,0
2489.591999,0.01336669921875,0.955322265625,-0.234588623046875,-0.17919921875,-0.42724609375,-0.6103515625,-0.48828125,-0.3355712890625,0.150634765625,-0.93896484375,-26.0,-303.0,322.0,101923.0,-4.9720001220703125,0,0
2489.599016,0.013671875,0.955291748046875,-0.23455810546875,-0.179412841796875,-0.48828125,-1.40380859375,-0.48828125,-0.3326416015625,0.152099609375,-0.93505859375,-26.0,-303.0,322.0,101923.0,-4.9720001220703125,0,0
2489.605998,0.0137939453125,0.95526123046875,-0.234527587890625,-0.17950439453125,-0.244140625,-3.2958984375,-1.52587890625,-0.314453125,0.149169921875,-0.930419921875,-26.0,-303.0,322.0,101923.0,-4.9720001220703125,0,0
2489.612997,0.01385498046875,0.95526123046875,-0.2344970703125,-0.179595947265625,0.48828125,-3.7841796875,-2.01416015625,-0.3118896484375,0.147705078125,-0.92822265625,-26.0,-303.0,322.0,101923.0,-4.9720001220703125,0,0
2489.620022,0.013885498046875,0.955230712890625,-0.234283447265625,-0.17999267578125,0.48828125,-4.82177734375,-2.5634765625,-0.30908203125,0.1419677734375,-0.927734375,-26.0,-303.0,322.0,101923.0,-4.9720001220703125,0,0
2489.627001,0.01385498046875,0.955230712890625,-0.23419189453125,-0.180145263671875,0.91552734375,-6.2255859375,-3.96728515625,-0.3023681640625,0.12939453125,-0.9117431640625,-26.0,-303.0,322.0,101923.0,-4.9720001220703125,0,0
2489.633034,0.01385498046875,0.955230712890625,-0.23419189453125,-0.180145263671875,0.91552734375,-6.2255859375,-3.96728515625,-0.3023681640625,0.12939453125,-0.9117431640625,-26.0,-303.0,322.0,101923.0,-4.9720001220703125,0,0
2489.640018,0.01348876953125,0.95526123046875,-0.233612060546875,-0.180755615234375,1.28173828125,-6.4697265625,-4.57763671875,-0.301513671875,0.116943359375,-0.906005859375,-26.0,-303.0,322.0,101923.0,-4.9720001220703125,0,0
2489.647001,0.013153076171875,0.955078125,-0.234222412109375,-0.180908203125,1.64794921875,-6.77490234375,-6.16455078125,-0.302001953125,0.0966796875,-0.8958740234375,-26.0,-303.0,322.0,101923.0,-4.9720001220703125,0,0
2489.654019,0.01300048828125,0.955108642578125,-0.2340087890625,-0.181060791015625,1.5869140625,-6.9580078125,-6.9580078125,-0.3006591796875,0.0943603515625,-0.894775390625,-26.0,-303.0,322.0,101923.0,-4.9720001220703125,0,0
2489.660995,0.01239013671875,0.9552001953125,-0.233245849609375,-0.18157958984375,0.91552734375,-7.6904296875,-8.4228515625,-0.3046875,0.0787353515625,-0.8890380859375,-26.0,-303.0,322.0,101923.0,-4.9720001220703125,0,0
2489.667995,0.01214599609375,0.95526123046875,-0.232940673828125,-0.181793212890625,1.52587890625,-7.9345703125,-8.7890625,-0.3089599609375,0.0750732421875,-0.889892578125,-26.0,-303.0,322.0,101923.0,-4.9720001220703125,0,0
2489.67502,0.01165771484375,0.955322265625,-0.232330322265625,-0.182220458984375,1.0986328125,-8.4228515625,-9.033203125,-0.3101806640625,0.0726318359375,-0.8919677734375,-26.0,-303.0,322.0,101923.0,-4.9720001220703125,0,0
2489.681999,0.0111083984375,0.95538330078125,-0.231689453125,-0.182769775390625,1.03759765625,-9.3994140625,-9.70458984375,-0.322021484375,0.0653076171875,-0.8922119140625,-26.0,-303.0,322.0,101923.0,-4.9710001945495605,0,0
2489.689016,0.010833740234375,0.955413818359375,-0.23138427734375,-0.183074951171875,1.0986328125,-9.82666015625,-9.70458984375,-0.3291015625,0.0631103515625,-0.88916015625,-26.0,-303.0,322.0,101923.0,-4.9710001945495605,0,0
2489.695998,0.01025390625,0.9554443359375,-0.230682373046875,-0.183746337890625,0.9765625,-9.6435546875,-10.07080078125,-0.3477783203125,0.062255859375,-0.8851318359375,-26.0,-303.0,322.0,101923.0,-4.9710001945495605,0,0
2489.702997,0.0096435546875,0.955474853515625,-0.22998046875,-0.184478759765625,0.91552734375,-8.7890625,-10.009765625,-0.367431640625,0.06103515625,-0.8848876953125,-26.0,-303.0,322.0,101923.0,-4.9710001945495605,0,0
2489.710022,0.009033203125,0.95550537109375,-0.22930908203125,-0.1851806640625,1.220703125,-8.30078125,-9.94873046875,-0.3704833984375,0.0616455078125,-0.88671875,-26.0,-303.0,322.0,101923.0,-4.9710001945495605,0,0
2489.717001,0.008758544921875,0.955535888671875,-0.228973388671875,-0.185516357421875,0.91552734375,-7.568359375,-9.21630859375,-0.3763427734375,0.05712890625,-0.890625,-26.0,-303.0,322.0,101923.0,-4.9710001945495605,0,0
2489.724015,0.0079345703125,0.955596923828125,-0.22802734375,-0.186431884765625,0.8544921875,-5.859375,-8.72802734375,-0.384521484375,0.0579833984375,-0.89208984375,-26.0,-303.0,322.0,101923.0,-4.9710001945495605,0,0
2489.730048,0.0079345703125,0.955596923828125,-0.22802734375,-0.186431884765625,0.8544921875,-5.859375,-8.72802734375,-0.384521484375,0.0579833984375,-0.89208984375,-26.0,-303.0,322.0,101923.0,-4.9710001945495605,0,0
2489.737001,0.007415771484375,0.95562744140625,-0.22747802734375,-0.18695068359375,0.79345703125,-4.08935546875,-7.14111328125,-0.3890380859375,0.056396484375,-0.899169921875,-26.0,-303.0,322.0,101923.0,-4.9710001945495605,0,0
2489.757995,0.00628662109375,0.955535888671875,-0.227203369140625,-0.18780517578125,0.18310546875,-1.5869140625,-3.7841796875,-0.383056640625,0.0606689453125,-0.9051513671875,-26.0,-303.0,322.0,101923.0,-4.9710001945495605,0,0
2489.76502,0.005889892578125,0.95556640625,-0.226898193359375,-0.18804931640625,-0.06103515625,-0.54931640625,-2.62451171875,-0.3760986328125,0.0633544921875,-0.905517578125,-26.0,-303.0,322.0,101923.0,-4.9710001945495605,0,0
2489.771999,0.00579833984375,0.955535888671875,-0.22686767578125,-0.188079833984375,-0.48828125,0.8544921875,-0.9765625,-0.3680419921875,0.0638427734375,-0.9075927734375,-26.0,-303.0,322.0,101923.0,-4.9710001945495605,0,0
2489.779016,0.0057373046875,0.95556640625,-0.226837158203125,-0.188079833984375,-0.8544921875,1.15966796875,-0.18310546875,-0.3641357421875,0.0665283203125,-0.9039306640625,-26.0,-303.0,322.0,101923.0,-4.9710001945495605,0,0
2489.785998,0.0057373046875,0.955596923828125,-0.226898193359375,-0.1878662109375,-1.0986328125,3.5400390625,2.01416015625,-0.35400390625,0.0750732421875,-0.9114990234375,-26.0,-303.0,322.0,101923.0,-4.9710001945495605,0,0
2489.792997,0.00579833984375,0.955596923828125,-0.226959228515625,-0.187774658203125,-1.28173828125,3.7841796875,2.3193359375,-0.3505859375,0.08544921875,-0.912841796875,-26.0,-303.0,322.0,101923.0,-4.9710001945495605,0,0
2489.800022,0.00616455078125,0.955596923828125,-0.227325439453125,-0.187225341796875,-1.40380859375,4.5166015625,3.2958984375,-0.3453369140625,0.0911865234375,-0.916748046875,-26.0,-303.0,322.0,101923.0,-4.9710001945495605,0,0
2489.807001,0.00634765625,0.955596923828125,-0.227508544921875,-0.18701171875,-1.3427734375,5.7373046875,4.7607421875,-0.328857421875,0.1102294921875,-0.914306640625,-26.0,-303.0,322.0,101923.0,-4.9710001945495605,0,0
2489.814015,0.0067138671875,0.95562744140625,-0.227874755859375,-0.186492919921875,-0.8544921875,6.103515625,5.18798828125,-0.3211669921875,0.1112060546875,-0.9154052734375,-26.0,-303.0,322.0,101923.0,-4.9710001945495605,0,0
2489.820048,0.0067138671875,0.95562744140625,-0.227874755859375,-0.186492919921875,-0.8544921875,6.103515625,5.18798828125,-0.3211669921875,0.1112060546875,-0.9154052734375,-26.0,-303.0,322.0,101923.0,-4.9710001945495605,0,0
2489.827001,0.00714111328125,0.95562744140625,-0.228546142578125,-0.18560791015625,-0.54931640625,5.79833984375,6.8359375,-0.306640625,0.0966796875,-0.914794921875,-26.0,-303.0,322.0,101923.0,-4.9710001945495605,0,0
2489.848,0.0078125,0.95556640625,-0.22979736328125,-0.18438720703125,-2.197265625,4.638671875,7.8125,-0.309814453125,0.09130859375,-0.8973388671875,-26.0,-305.0,321.0,101923.0,-4.9710001945495605,0,0
2489.85502,0.008148193359375,0.95550537109375,-0.23028564453125,-0.18402099609375,-2.0751953125,4.39453125,7.75146484375,-0.3125,0.09326171875,-0.8953857421875,-26.0,-305.0,321.0,101923.0,-4.9710001945495605,0,0
2489.861999,0.008544921875,0.9554443359375,-0.230804443359375,-0.18365478515625,-2.0751953125,4.69970703125,7.4462890625,-0.3114013671875,0.109375,-0.8935546875,-26.0,-305.0,321.0,101923.0,-4.9710001945495605,0,0
2489.869016,0.00897216796875,0.955413818359375,-0.231292724609375,-0.183258056640625,-2.13623046875,4.82177734375,7.62939453125,-0.3096923828125,0.1121826171875,-0.896484375,-26.0,-305.0,321.0,101923.0,-4.9710001945495605,0,0
2489.875998,0.0091552734375,0.95538330078125,-0.231536865234375,-0.18310546875,-1.77001953125,4.45556640625,7.2021484375,-0.316650390625,0.11279296875,-0.901123046875,-26.0,-305.0,321.0,101923.0,-4.9710001945495605,0,0
2489.882997,0.009490966796875,0.955322265625,-0.232025146484375,-0.18280029296875,-1.0986328125,3.662109375,7.01904296875,-0.32275390625,0.111572265625,-0.9078369140625,-26.0,-305.0,321.0,101923.0,-4.974000453948975,0,0
2489.890022,0.00970458984375,0.955230712890625,-0.232452392578125,-0.1826171875,-1.0986328125,3.0517578125,6.77490234375,-0.324951171875,0.107421875,-0.9080810546875,-26.0,-305.0,321.0,101923.0,-4.974000453948975,0,0
2489.897001,0.009796142578125,0.9552001953125,-0.232666015625,-0.18255615234375,-0.8544921875,1.953125,5.9814453125,-0.332763671875,0.1002197265625,-0.9100341796875,-26.0,-305.0,321.0,101923.0,-4.974000453948975,0,0
2489.904015,0.0098876953125,0.955108642578125,-0.2330322265625,-0.182525634765625,-0.79345703125,0.54931640625,5.79833984375,-0.346435546875,0.0947265625,-0.90869140625,-26.0,-305.0,321.0,101923.0,-4.974000453948975,0,0
2489.911,0.00994873046875,0.95501708984375,-0.23333740234375,-0.18267822265625,-0.9765625,-0.18310546875,4.82177734375,-0.363525390625,0.0948486328125,-0.90673828125,-26.0,-305.0,321.0,101923.0,-4.974000453948975,0,0
2489.917033,0.00994873046875,0.95501708984375,-0.23333740234375,-0.18267822265625,-0.9765625,-0.18310546875,4.82177734375,-0.363525390625,0.0948486328125,-0.90673828125,-26.0,-305.0,321.0,101923.0,-4.974000453948975,0,0
2489.924018,0.00994873046875,0.954864501953125,-0.233673095703125,-0.183074951171875,-1.46484375,-0.42724609375,3.41796875,-0.38232421875,0.086669921875,-0.9066162109375,-26.0,-305.0,321.0,101923.0,-4.974000453948975,0,0
2489.930996,0.009918212890625,0.95477294921875,-0.233795166015625,-0.183380126953125,-1.5869140625,-0.244140625,2.99072265625,-0.3865966796875,0.08544921875,-0.9075927734375,-26.0,-305.0,321.0,101923.0,-4.974000453948975,0,0
2489.938,0.009918212890625,0.9547119140625,-0.23382568359375,-0.18353271484375,-1.708984375,0.1220703125,2.13623046875,-0.3905029296875,0.0926513671875,-0.9134521484375,-26.0,-305.0,321.0,101923.0,-4.974000453948975,0,0
2489.94502,0.009979248046875,0.954681396484375,-0.23388671875,-0.18377685546875,-1.8310546875,1.220703125,0.9765625,-0.388671875,0.1009521484375,-0.913330078125,-27.0,-305.0,320.0,101923.0,-4.974000453948975,0,0
2489.951999,0.0101318359375,0.954681396484375,-0.233734130859375,-0.183929443359375,-1.8310546875,2.197265625,0.06103515625,-0.3818359375,0.11181640625,-0.9190673828125,-27.0,-305.0,320.0,101923.0,-4.974000453948975,0,0
2489.959016,0.010223388671875,0.954681396484375,-0.23370361328125,-0.1839599609375,-1.77001953125,2.74658203125,-0.30517578125,-0.377685546875,0.1185302734375,-0.9244384765625,-27.0,-305.0,320.0,101923.0,-4.974000453948975,0,0
2489.965997,0.010528564453125,0.9547119140625,-0.23358154296875,-0.183929443359375,-1.220703125,2.99072265625,-1.46484375,-0.3651123046875,0.12841796875,-0.9354248046875,-27.0,-305.0,320.0,101923.0,-4.974000453948975,0,0
2489.972997,0.010650634765625,0.9547119140625,-0.233551025390625,-0.183868408203125,-0.8544921875,3.35693359375,-1.46484375,-0.3583984375,0.1331787109375,-0.94091796875,-27.0,-305.0,320.0,101923.0,-4.974000453948975,0,0
2489.980022,0.010772705078125,0.954742431640625,-0.233489990234375,-0.18377685546875,-0.732421875,3.2958984375,-2.197265625,-0.3487548828125,0.133544921875,-0.9473876953125,-27.0,-305.0,320.0,101923.0,-4.974000453948975,0,0
2489.987001,0.01104736328125,0.954833984375,-0.233306884765625,-0.183502197265625,-0.06103515625,2.74658203125,-2.38037109375,-0.34375,0.1331787109375,-0.95068359375,-27.0,-305.0,320.0,101923.0,-4.974000453948975,0,0
2489.994015,0.011138916015625,0.95489501953125,-0.23321533203125,-0.18341064453125,0.18310546875,2.86865234375,-2.50244140625,-0.3424072265625,0.133056640625,-0.94921875,-27.0,-305.0,320.0,101923.0,-4.974000453948975,0,0
2490.000995,0.01123046875,0.954986572265625,-0.233001708984375,-0.18310546875,0.91552734375,2.3193359375,-2.5634765625,-0.339111328125,0.12158203125,-0.950439453125,-27.0,-305.0,320.0,101923.0,-4.974000453948975,0,0
2490.020995,0.01129150390625,0.955169677734375,-0.23272705078125,-0.182464599609375,1.77001953125,2.86865234375,-2.0751953125,-0.318603515625,0.120849609375,-0.927490234375,-27.0,-305.0,320.0,101923.0,-4.974000453948975,0,0
2490.027996,0.01129150390625,0.955230712890625,-0.232696533203125,-0.182281494140625,1.77001953125,3.173828125,-1.8310546875,-0.3095703125,0.1221923828125,-0.9246826171875,-27.0,-305.0,320.0,101923.0,-4.974000453948975,0,0
2490.03502,0.0113525390625,0.955322265625,-0.232666015625,-0.18182373046875,2.0751953125,3.662109375,-1.52587890625,-0.3037109375,0.121826171875,-0.922119140625,-27.0,-305.0,320.0,101923.0,-4.974000453948975,0,0
2490.041999,0.011444091796875,0.955413818359375,-0.232696533203125,-0.181304931640625,2.197265625,3.47900390625,-0.79345703125,-0.284423828125,0.1214599609375,-0.9215087890625,-27.0,-305.0,320.0,101923.0,-4.974000453948975,0,0
2490.049016,0.011199951171875,0.955108642578125,-0.234100341796875,-0.181060791015625,2.38037109375,3.5400390625,-0.67138671875,-0.2796630859375,0.1148681640625,-0.9219970703125,-28.0,-305.0,320.0,101923.0,-4.974000453948975,0,0
2490.055997,0.011199951171875,0.9552001953125,-0.234161376953125,-0.180511474609375,2.38037109375,3.23486328125,-0.54931640625,-0.2777099609375,0.113525390625,-0.9202880859375,-28.0,-305.0,320.0,101923.0,-4.974000453948975,0,0
2490.062997,0.01116943359375,0.95526123046875,-0.2342529296875,-0.180084228515625,2.38037109375,1.64794921875,0.79345703125,-0.2801513671875,0.1075439453125,-0.913330078125,-28.0,-305.0,320.0,101923.0,-4.974000453948975,0,0
2490.070022,0.011077880859375,0.955291748046875,-0.234344482421875,-0.1798095703125,2.25830078125,0.9765625,0.6103515625,-0.28662109375,0.1041259765625,-0.9140625,-28.0,-305.0,320.0,101923.0,-4.974000453948975,0,0
2490.077001,0.011016845703125,0.955291748046875,-0.234405517578125,-0.1796875,2.50244140625,-0.54931640625,1.03759765625,-0.2950439453125,0.0947265625,-0.9102783203125,-28.0,-305.0,320.0,101923.0,-4.974000453948975,0,0
2490.084015,0.010833740234375,0.955291748046875,-0.234527587890625,-0.179595947265625,2.50244140625,-1.3427734375,1.28173828125,-0.30029296875,0.0909423828125,-0.9007568359375,-28.0,-305.0,320.0,101924.0,-4.975000381469727,0,0
2490.090995,0.0106201171875,0.95526123046875,-0.234649658203125,-0.1795654296875,2.38037109375,-1.708984375,1.220703125,-0.303466796875,0.088134765625,-0.8997802734375,-28.0,-305.0,320.0,101924.0,-4.975000381469727,0,0
2490.110995,0.010009765625,0.95513916015625,-0.234893798828125,-0.17999267578125,0.244140625,-2.62451171875,2.01416015625,-0.3419189453125,0.073486328125,-0.8905029296875,-28.0,-305.0,320.0,101924.0,-4.975000381469727,0,0
2490.117996,0.00994873046875,0.955108642578125,-0.234954833984375,-0.18011474609375,-0.1220703125,-2.0751953125,1.8310546875,-0.346923828125,0.0814208984375,-0.890869140625,-28.0,-305.0,320.0,101924.0,-4.975000381469727,0,0
2490.12502,0.0098876953125,0.954986572265625,-0.23504638671875,-0.1805419921875,-0.42724609375,-2.13623046875,1.220703125,-0.3515625,0.0987548828125,-0.9061279296875,-28.0,-305.0,320.0,101924.0,-4.975000381469727,0,0
2490.131999,0.0098876953125,0.9549560546875,-0.235076904296875,-0.180694580078125,-0.9765625,-2.38037109375,1.0986328125,-0.3583984375,0.107177734375,-0.9112548828125,-28.0,-305.0,320.0,101924.0,-4.975000381469727,0,0
2490.139016,0.0098876953125,0.954925537109375,-0.235107421875,-0.180877685546875,-0.732421875,-2.13623046875,0.9765625,-0.3643798828125,0.1082763671875,-0.9102783203125,-28.0,-305.0,320.0,101924.0,-4.975000381469727,0,0
2490.145998,0.009918212890625,0.954833984375,-0.235137939453125,-0.181243896484375,-0.91552734375,-1.953125,0.79345703125,-0.3746337890625,0.1099853515625,-0.91796875,-29.0,-307.0,319.0,101924.0,-4.975000381469727,0,0
2490.152997,0.0101318359375,0.955047607421875,-0.233978271484375,-0.181640625,-0.48828125,-2.74658203125,0.6103515625,-0.381103515625,0.1063232421875,-0.930908203125,-29.0,-307.0,319.0,101924.0,-4.975000381469727,0,0
2490.160022,0.010009765625,0.9549560546875,-0.233978271484375,-0.182159423828125,-0.732421875,-3.96728515625,0.30517578125,-0.392578125,0.09619140625,-0.9296875,-29.0,-307.0,319.0,101924.0,-4.975000381469727,0,0
2490.167001,0.009918212890625,0.954833984375,-0.233917236328125,-0.182769775390625,-1.5869140625,-4.08935546875,0.18310546875,-0.402587890625,0.095458984375,-0.9222412109375,-29.0,-307.0,319.0,101924.0,-4.975000381469727,0,0
2490.174015,0.0098876953125,0.954803466796875,-0.23388671875,-0.183074951171875,-1.953125,-3.662109375,-0.30517578125,-0.403076171875,0.09814453125,-0.9208984375,-29.0,-307.0,319.0,101924.0,-4.975000381469727,0,0
2490.181,0.0098876953125,0.9547119140625,-0.233795166015625,-0.18365478515625,-2.74658203125,-3.0517578125,-0.67138671875,-0.397216796875,0.0982666015625,-0.9210205078125,-29.0,-307.0,319.0,101924.0,-4.975000381469727,0,0
2490.187999,0.009979248046875,0.95465087890625,-0.23370361328125,-0.18414306640625,-2.9296875,-1.64794921875,-0.67138671875,-0.39599609375,0.107666015625,-0.9180908203125,-29.0,-307.0,319.0,101924.0,-4.975000381469727,0,0
2490.194032,0.009979248046875,0.95465087890625,-0.23370361328125,-0.18414306640625,-2.9296875,-1.64794921875,-0.67138671875,-0.39599609375,0.107666015625,-0.9180908203125,-29.0,-307.0,319.0,101924.0,-4.975000381469727,0,0
2490.21502,0.010986328125,0.954620361328125,-0.233367919921875,-0.184539794921875,-3.47900390625,2.74658203125,-1.40380859375,-0.3447265625,0.1453857421875,-0.94384765625,-29.0,-307.0,319.0,101924.0,-4.975000381469727,0,0
2490.221999,0.011688232421875,0.954742431640625,-0.233184814453125,-0.1842041015625,-3.0517578125,3.2958984375,-1.89208984375,-0.33056640625,0.1475830078125,-0.9393310546875,-29.0,-307.0,319.0,101924.0,-4.975000381469727,0,0
2490.229016,0.01190185546875,0.95477294921875,-0.233123779296875,-0.184051513671875,-2.50244140625,3.60107421875,-2.38037109375,-0.3201904296875,0.14306640625,-0.9432373046875,-29.0,-307.0,319.0,101924.0,-4.975000381469727,0,0
2490.235998,0.012115478515625,0.954833984375,-0.233062744140625,-0.18389892578125,-2.44140625,3.23486328125,-2.50244140625,-0.3123779296875,0.137939453125,-0.943359375,-29.0,-307.0,319.0,101924.0,-4.975000381469727,0,0
2490.242997,0.01226806640625,0.954620361328125,-0.2342529296875,-0.1834716796875,-1.77001953125,2.197265625,-3.23486328125,-0.310302734375,0.132080078125,-0.9437255859375,-28.0,-305.0,319.0,101924.0,-4.975000381469727,0,0
2490.250022,0.012359619140625,0.954681396484375,-0.234130859375,-0.183319091796875,-1.46484375,1.708984375,-3.84521484375,-0.3016357421875,0.12451171875,-0.9349365234375,-28.0,-305.0,319.0,101924.0,-4.975000381469727,0,0
2490.257001,0.01263427734375,0.954833984375,-0.233734130859375,-0.182891845703125,-1.5869140625,1.220703125,-3.84521484375,-0.2972412109375,0.118896484375,-0.9298095703125,-28.0,-305.0,319.0,101924.0,-4.975000381469727,0,0
2490.264015,0.012725830078125,0.95489501953125,-0.23358154296875,-0.1827392578125,-1.89208984375,1.64794921875,-4.5166015625,-0.2908935546875,0.10888671875,-0.910888671875,-28.0,-305.0,319.0,101924.0,-4.975000381469727,0,0
2490.285019,0.01312255859375,0.955291748046875,-0.232818603515625,-0.181671142578125,-1.52587890625,2.99072265625,-4.638671875,-0.2698974609375,0.1075439453125,-0.908935546875,-28.0,-305.0,319.0,101924.0,-4.975000381469727,0,0
2490.291052,0.01312255859375,0.955291748046875,-0.232818603515625,-0.181671142578125,-1.52587890625,2.99072265625,-4.638671875,-0.2698974609375,0.1075439453125,-0.908935546875,-28.0,-305.0,319.0,101924.0,-4.975000381469727,0,0
2490.297995,0.01336669921875,0.955596923828125,-0.232269287109375,-0.18072509765625,-1.0986328125,2.8076171875,-4.638671875,-0.2666015625,0.10791015625,-0.9073486328125,-28.0,-305.0,319.0,101924.0,-4.975000381469727,0,0
2490.30502,0.01336669921875,0.955657958984375,-0.232147216796875,-0.1805419921875,-0.30517578125,1.220703125,-4.21142578125,-0.2745361328125,0.0970458984375,-0.9105224609375,-28.0,-305.0,319.0,101924.0,-4.975000381469727,0,0
2490.311999,0.0133056640625,0.955780029296875,-0.23187255859375,-0.1802978515625,-0.06103515625,0.18310546875,-4.21142578125,-0.2786865234375,0.09375,-0.9119873046875,-28.0,-305.0,319.0,101924.0,-4.975000381469727,0,0
2490.319016,0.01312255859375,0.955841064453125,-0.231658935546875,-0.180206298828125,0.42724609375,-2.13623046875,-3.47900390625,-0.2984619140625,0.0838623046875,-0.9068603515625,-28.0,-305.0,319.0,101924.0,-4.975000381469727,0,0
2490.325997,0.01300048828125,0.95587158203125,-0.231536865234375,-0.18023681640625,0.732421875,-2.86865234375,-3.11279296875,-0.3096923828125,0.0751953125,-0.905029296875,-28.0,-305.0,319.0,101924.0,-4.975000381469727,0,0
2490.332997,0.012664794921875,0.955902099609375,-0.231353759765625,-0.180389404296875,1.03759765625,-3.173828125,-2.99072265625,-0.3165283203125,0.0750732421875,-0.9049072265625,-28.0,-305.0,319.0,101924.0,-4.975000381469727,0,0
2490.340022,0.01226806640625,0.955902099609375,-0.231170654296875,-0.180694580078125,1.0986328125,-4.39453125,-2.13623046875,-0.341064453125,0.0692138671875,-0.8974609375,-28.0,-305.0,319.0,101924.0,-4.975000381469727,0,0
2490.347001,0.01177978515625,0.95550537109375,-0.232574462890625,-0.180877685546875,1.5869140625,-4.150390625,-1.89208984375,-0.3466796875,0.068359375,-0.899169921875,-29.0,-306.0,320.0,101924.0,-4.975000381469727,0,0
2490.354015,0.0113525390625,0.955474853515625,-0.23248291015625,-0.1812744140625,1.46484375,-4.2724609375,-0.732421875,-0.366943359375,0.069091796875,-0.8988037109375,-29.0,-306.0,320.0,101924.0,-4.975000381469727,0,0
2490.367995,0.010528564453125,0.955291748046875,-0.232421875,-0.182281494140625,1.708984375,-4.08935546875,0.54931640625,-0.3828125,0.0750732421875,-0.9012451171875,-29.0,-306.0,320.0,101924.0,-4.975000381469727,0,0
2490.375019,0.0103759765625,0.955230712890625,-0.232452392578125,-0.182525634765625,1.03759765625,-3.72314453125,1.220703125,-0.392822265625,0.0765380859375,-0.90283203125,-29.0,-306.0,320.0,101924.0,-4.975000381469727,0,0
2490.381052,0.0103759765625,0.955230712890625,-0.232452392578125,-0.182525634765625,1.03759765625,-3.72314453125,1.220703125,-0.392822265625,0.0765380859375,-0.90283203125,-29.0,-306.0,320.0,101924.0,-4.975000381469727,0,0
2490.387995,0.009857177734375,0.95501708984375,-0.23272705078125,-0.183502197265625,0.9765625,-2.3193359375,2.5634765625,-0.397216796875,0.088623046875,-0.9080810546875,-29.0,-306.0,320.0,101924.0,-4.975000381469727,0,0
2490.39502,0.009765625,0.9549560546875,-0.23284912109375,-0.18365478515625,1.28173828125,-1.220703125,3.5400390625,-0.39404296875,0.1016845703125,-0.9149169921875,-29.0,-306.0,320.0,101924.0,-4.975000381469727,0,0
2490.401999,0.009674072265625,0.95477294921875,-0.233245849609375,-0.18402099609375,1.220703125,-0.06103515625,4.33349609375,-0.385009765625,0.10986328125,-0.9219970703125,-29.0,-306.0,320.0,101924.0,-4.975000381469727,0,0
2490.409016,0.009674072265625,0.9547119140625,-0.233428955078125,-0.18408203125,1.77001953125,0.48828125,4.69970703125,-0.3759765625,0.119140625,-0.93212890625,-29.0,-306.0,320.0,101924.0,-4.975000381469727,0,0
2490.415997,0.009674072265625,0.954681396484375,-0.233612060546875,-0.184112548828125,2.3193359375,0.3662109375,5.0048828125,-0.3685302734375,0.125244140625,-0.934814453125,-29.0,-306.0,320.0,101924.0,-4.975000381469727,0,0
2490.422997,0.009674072265625,0.954498291015625,-0.234222412109375,-0.1842041015625,2.44140625,-0.18310546875,5.55419921875,-0.3614501953125,0.12646484375,-0.936767578125,-29.0,-306.0,320.0,101924.0,-4.975000381469727,0,0
2490.430022,0.0096435546875,0.954437255859375,-0.23443603515625,-0.184234619140625,2.8076171875,-0.42724609375,5.92041015625,-0.35546875,0.11962890625,-0.934326171875,-29.0,-306.0,320.0,101924.0,-4.9760003089904785,0,0
2490.437001,0.00958251953125,0.954376220703125,-0.23468017578125,-0.18426513671875,3.41796875,-0.54931640625,6.34765625,-0.355224609375,0.1202392578125,-0.93115234375,-29.0,-306.0,320.0,101924.0,-4.9760003089904785,0,0
2490.444015,0.00982666015625,0.95458984375,-0.2337646484375,-0.18426513671875,3.2958984375,-0.6103515625,6.34765625,-0.3486328125,0.123046875,-0.9237060546875,-29.0,-307.0,318.0,101924.0,-4.9760003089904785,0,0
2490.451,0.00982666015625,0.95452880859375,-0.2340087890625,-0.18426513671875,2.99072265625,0.30517578125,6.34765625,-0.341796875,0.1219482421875,-0.91455078125,-29.0,-307.0,318.0,101924.0,-4.9760003089904785,0,0
2490.457999,0.0098876953125,0.954437255859375,-0.234710693359375,-0.183929443359375,3.35693359375,1.40380859375,6.103515625,-0.3382568359375,0.1229248046875,-0.9080810546875,-29.0,-307.0,318.0,101924.0,-4.9760003089904785,0,0
2490.46502,0.00994873046875,0.95440673828125,-0.23492431640625,-0.1837158203125,2.9296875,4.21142578125,5.67626953125,-0.3148193359375,0.12890625,-0.9078369140625,-29.0,-307.0,318.0,101924.0,-4.9760003089904785,0,0
2490.472003,0.010101318359375,0.95440673828125,-0.235382080078125,-0.1832275390625,3.0517578125,4.57763671875,5.615234375,-0.3062744140625,0.1298828125,-0.909912109375,-29.0,-307.0,318.0,101924.0,-4.9760003089904785,0,0
2490.478036,0.010101318359375,0.95440673828125,-0.235382080078125,-0.1832275390625,3.0517578125,4.57763671875,5.615234375,-0.3062744140625,0.1298828125,-0.909912109375,-29.0,-307.0,318.0,101924.0,-4.9760003089904785,0,0
2490.48502,0.010345458984375,0.954437255859375,-0.235992431640625,-0.182281494140625,2.86865234375,5.126953125,4.45556640625,-0.28125,0.1251220703125,-0.9161376953125,-29.0,-307.0,318.0,101924.0,-4.9760003089904785,0,0
2490.491999,0.010467529296875,0.954437255859375,-0.236358642578125,-0.181671142578125,2.62451171875,4.638671875,4.33349609375,-0.2784423828125,0.123046875,-0.9168701171875,-29.0,-307.0,318.0,101924.0,-4.9760003089904785,0,0
2490.499016,0.010528564453125,0.9544677734375,-0.23663330078125,-0.181243896484375,2.13623046875,1.953125,2.99072265625,-0.2869873046875,0.1163330078125,-0.9095458984375,-29.0,-307.0,318.0,101924.0,-4.9760003089904785,0,0
2490.505998,0.01055908203125,0.9544677734375,-0.23675537109375,-0.18109130859375,2.13623046875,1.40380859375,2.74658203125,-0.2894287109375,0.1097412109375,-0.9044189453125,-29.0,-307.0,318.0,101924.0,-4.9760003089904785,0,0
2490.512997,0.010467529296875,0.9544677734375,-0.2369384765625,-0.180877685546875,2.3193359375,0.67138671875,2.13623046875,-0.294921875,0.104736328125,-0.8997802734375,-29.0,-307.0,318.0,101924.0,-4.9760003089904785,0,0
2490.520022,0.01031494140625,0.9544677734375,-0.23699951171875,-0.18072509765625,2.197265625,0.30517578125,0.42724609375,-0.3092041015625,0.0931396484375,-0.8907470703125,-29.0,-307.0,318.0,101924.0,-4.9760003089904785,0,0
2490.527001,0.01025390625,0.954498291015625,-0.23699951171875,-0.1806640625,2.01416015625,0.244140625,-0.18310546875,-0.312744140625,0.0908203125,-0.889892578125,-29.0,-307.0,318.0,101924.0,-4.978000164031982,0,0
2490.547995,0.00994873046875,0.95489501953125,-0.235626220703125,-0.180267333984375,0.8544921875,2.685546875,-2.9296875,-0.3328857421875,0.08154296875,-0.890625,-28.0,-308.0,319.0,101924.0,-4.978000164031982,0,0
2490.555019,0.009857177734375,0.9549560546875,-0.235504150390625,-0.180206298828125,0.244140625,2.9296875,-3.2958984375,-0.34814453125,0.08349609375,-0.9027099609375,-28.0,-308.0,319.0,101924.0,-4.978000164031982,0,0
2490.562003,0.0096435546875,0.955047607421875,-0.235076904296875,-0.180206298828125,-0.54931640625,2.13623046875,-3.72314453125,-0.35986328125,0.0771484375,-0.9146728515625,-28.0,-308.0,319.0,101924.0,-4.978000164031982,0,0
2490.568036,0.0096435546875,0.955047607421875,-0.235076904296875,-0.180206298828125,-0.54931640625,2.13623046875,-3.72314453125,-0.35986328125,0.0771484375,-0.9146728515625,-28.0,-308.0,319.0,101924.0,-4.978000164031982,0,0
2490.57502,0.009521484375,0.955108642578125,-0.234771728515625,-0.180328369140625,-0.79345703125,0.8544921875,-3.90625,-0.3775634765625,0.0875244140625,-0.9244384765625,-28.0,-308.0,319.0,101924.0,-4.978000164031982,0,0
2490.581999,0.009429931640625,0.95513916015625,-0.23443603515625,-0.1805419921875,-0.732421875,0.8544921875,-4.2724609375,-0.3824462890625,0.097900390625,-0.9241943359375,-28.0,-308.0,319.0,101924.0,-4.978000164031982,0,0
2490.589016,0.0093994140625,0.9552001953125,-0.234100341796875,-0.1807861328125,-0.732421875,0.91552734375,-4.21142578125,-0.3900146484375,0.104736328125,-0.9244384765625,-28.0,-308.0,319.0,101924.0,-4.978000164031982,0,0
2490.595997,0.009368896484375,0.9552001953125,-0.23394775390625,-0.180877685546875,-0.42724609375,1.708984375,-4.2724609375,-0.386474609375,0.105224609375,-0.923095703125,-28.0,-308.0,319.0,101924.0,-4.978000164031982,0,0
2490.602997,0.009368896484375,0.955322265625,-0.233489990234375,-0.180908203125,-0.3662109375,3.35693359375,-4.150390625,-0.3795166015625,0.1075439453125,-0.92333984375,-28.0,-308.0,319.0,101924.0,-4.978000164031982,0,0
2490.610022,0.009368896484375,0.955352783203125,-0.23333740234375,-0.180816650390625,-0.244140625,4.8828125,-3.96728515625,-0.364013671875,0.10595703125,-0.9326171875,-28.0,-308.0,319.0,101924.0,-4.978000164031982,0,0
