Time stamp(sec),adc1,adc2,roll_angular_rate,pitch_angular_rate,yaw_angular_rate,acc_X,acc_Y,acc_Z,mag_X,mag_Y,mag_Z,pressure,altitude
0.016814699993119575,0.371307373046875,-0.451507568359375,0.311309814453125,-0.74920654296875,0.1220703125,-0.06103515625,-0.244140625,0.4444580078125,-0.8006591796875,0.397216796875,-295.0,153.0,-151.0,101700.0,-3.123000144958496,0,0
0.016887799996766262,0.371307373046875,-0.451507568359375,0.311279296875,-0.74920654296875,-0.06103515625,-0.244140625,-0.244140625,0.447265625,-0.8038330078125,0.4019775390625,-295.0,153.0,-151.0,101700.0,-3.123000144958496,0,0
0.01694560000032652,0.371307373046875,-0.451507568359375,0.311279296875,-0.74920654296875,0.0,-0.1220703125,-0.1220703125,0.444580078125,-0.8023681640625,0.400390625,-295.0,153.0,-151.0,101700.0,-3.123000144958496,0,0
0.01700120000168681,0.371307373046875,-0.451507568359375,0.311279296875,-0.74920654296875,0.1220703125,-0.06103515625,0.1220703125,0.445556640625,-0.8023681640625,0.39892578125,-295.0,153.0,-151.0,101700.0,-3.123000144958496,0,0
0.017053999996278435,0.371307373046875,-0.451507568359375,0.311279296875,-0.74920654296875,0.18310546875,-0.06103515625,-0.18310546875,0.4447021484375,-0.803466796875,0.3994140625,-295.0,153.0,-151.0,101700.0,-3.123000144958496,0,0
0.017107299994677305,0.371307373046875,-0.451507568359375,0.311279296875,-0.74920654296875,0.18310546875,-0.06103515625,-0.18310546875,0.4447021484375,-0.803466796875,0.3994140625,-295.0,153.0,-151.0,101700.0,-3.123000144958496,0,0
0.01914609999221284,0.371307373046875,-0.451507568359375,0.311279296875,-0.74920654296875,0.244140625,-0.244140625,-0.244140625,0.4449462890625,-0.802978515625,0.3983154296875,-295.0,153.0,-151.0,101700.0,-3.123000144958496,0,0
0.01920290000271052,0.371307373046875,-0.451507568359375,0.311279296875,-0.74920654296875,0.244140625,-0.244140625,-0.244140625,0.4449462890625,-0.802978515625,0.3983154296875,-296.0,153.0,-152.0,101700.0,-3.123000144958496,0,0
0.01925729999493342,0.371307373046875,-0.451507568359375,0.311279296875,-0.74920654296875,-0.1220703125,-0.06103515625,-0.244140625,0.4454345703125,-0.80224609375,0.3985595703125,-296.0,153.0,-152.0,101700.0,-3.123000144958496,0,0
0.019311099997139536,0.371307373046875,-0.451507568359375,0.311279296875,-0.74920654296875,0.06103515625,0.1220703125,-0.18310546875,0.4456787109375,-0.7999267578125,0.3994140625,-296.0,153.0,-152.0,101700.0,-3.123000144958496,0,0
0.01936330000171438,0.371307373046875,-0.451507568359375,0.311279296875,-0.74920654296875,-0.06103515625,-0.1220703125,0.0,0.447509765625,-0.802734375,0.3984375,-296.0,153.0,-152.0,101700.0,-3.123000144958496,0,0
0.01941719999013003,0.371307373046875,-0.451507568359375,0.311279296875,-0.74920654296875,-0.30517578125,-0.06103515625,-0.06103515625,0.4471435546875,-0.8031005859375,0.4002685546875,-296.0,153.0,-152.0,101700.0,-3.123000144958496,0,0
0.0194704999885289,0.371307373046875,-0.451507568359375,0.311279296875,-0.74920654296875,0.30517578125,0.06103515625,0.1220703125,0.44580078125,-0.79931640625,0.3975830078125,-296.0,153.0,-152.0,101700.0,-3.123000144958496,0,0
0.07153909999760799,0.371307373046875,-0.451507568359375,0.311279296875,-0.74920654296875,0.06103515625,0.1220703125,0.0,0.44677734375,-0.8023681640625,0.398193359375,-296.0,153.0,-152.0,101700.0,-3.123000144958496,0,0
0.07160619999922346,0.371307373046875,-0.451507568359375,0.311279296875,-0.74920654296875,-0.06103515625,-0.18310546875,-0.1220703125,0.442626953125,-0.8023681640625,0.399169921875,-296.0,153.0,-152.0,101700.0,-3.123000144958496,0,0
0.07166469999356195,0.371307373046875,-0.451507568359375,0.311279296875,-0.74920654296875,0.06103515625,-0.244140625,0.18310546875,0.4444580078125,-0.7998046875,0.400146484375,-296.0,153.0,-152.0,101700.0,-3.123000144958496,0,0
0.07171869999729097,0.371307373046875,-0.45147705078125,0.311279296875,-0.74920654296875,0.0,0.06103515625,0.1220703125,0.4434814453125,-0.799560546875,0.4007568359375,-296.0,153.0,-152.0,101700.0,-3.123000144958496,0,0
0.07177189999492839,0.371307373046875,-0.45147705078125,0.311279296875,-0.74920654296875,0.1220703125,0.06103515625,-0.18310546875,0.4434814453125,-0.801513671875,0.4000244140625,-296.0,153.0,-152.0,101700.0,-3.123000144958496,0,0
0.07243609998840839,0.371307373046875,-0.45147705078125,0.311279296875,-0.74920654296875,0.0,0.1220703125,0.0,0.4468994140625,-0.802734375,0.3994140625,-296.0,153.0,-152.0,101700.0,-3.123000144958496,0,0
0.07250059999933,0.371307373046875,-0.45147705078125,0.311279296875,-0.74920654296875,0.18310546875,-0.1220703125,-0.1220703125,0.4464111328125,-0.8021240234375,0.399169921875,-296.0,153.0,-152.0,101700.0,-3.123000144958496,0,0
0.07281359999615233,0.371307373046875,-0.45147705078125,0.311279296875,-0.74920654296875,0.06103515625,0.0,-0.06103515625,0.4456787109375,-0.8026123046875,0.4005126953125,-296.0,153.0,-152.0,101700.0,-3.123000144958496,0,0
0.07287959998939186,0.371307373046875,-0.45147705078125,0.311279296875,-0.749237060546875,-0.1220703125,-0.18310546875,-0.06103515625,0.4447021484375,-0.801513671875,0.400390625,-296.0,153.0,-152.0,101700.0,-3.123000144958496,0,0
0.0729358999960823,0.371307373046875,-0.45147705078125,0.311279296875,-0.749237060546875,-0.1220703125,-0.18310546875,-0.06103515625,0.4447021484375,-0.801513671875,0.400390625,-296.0,153.0,-152.0,101700.0,-3.123000144958496,0,0
0.07298889999219682,0.371337890625,-0.45147705078125,0.311279296875,-0.749237060546875,0.06103515625,0.06103515625,-0.1220703125,0.445068359375,-0.8018798828125,0.399169921875,-296.0,153.0,-152.0,101700.0,-3.123000144958496,0,0
0.13961929999641143,0.371337890625,-0.45147705078125,0.311279296875,-0.749237060546875,-0.244140625,-0.1220703125,-0.06103515625,0.444580078125,-0.8018798828125,0.39990234375,-296.0,153.0,-151.0,101700.0,-3.123000144958496,0,0
0.13968179999210406,0.371337890625,-0.45147705078125,0.311279296875,-0.749237060546875,0.18310546875,0.30517578125,0.06103515625,0.4449462890625,-0.802001953125,0.399169921875,-296.0,153.0,-151.0,101700.0,-3.123000144958496,0,0
0.13973719999194145,0.371337890625,-0.451446533203125,0.311279296875,-0.749237060546875,-0.06103515625,-0.244140625,0.18310546875,0.4451904296875,-0.803466796875,0.398681640625,-296.0,153.0,-151.0,101700.0,-3.123000144958496,0,0
0.13979339999787044,0.371337890625,-0.45147705078125,0.311279296875,-0.749237060546875,-0.1220703125,0.0,-0.06103515625,0.4468994140625,-0.8035888671875,0.39892578125,-296.0,153.0,-151.0,101700.0,-3.123000144958496,0,0
0.13984930000151508,0.371337890625,-0.451446533203125,0.311279296875,-0.749237060546875,-0.18310546875,0.0,0.1220703125,0.4439697265625,-0.800537109375,0.400634765625,-296.0,153.0,-151.0,101700.0,-3.123000144958496,0,0
0.1408682999899611,0.371337890625,-0.451446533203125,0.311279296875,-0.749237060546875,0.06103515625,0.06103515625,0.0,0.4454345703125,-0.802978515625,0.3994140625,-296.0,153.0,-151.0,101700.0,-3.123000144958496,0,0
0.14092669999809004,0.371337890625,-0.451446533203125,0.311279296875,-0.749237060546875,0.06103515625,0.06103515625,0.0,0.4454345703125,-0.802978515625,0.3994140625,-296.0,153.0,-151.0,101700.0,-3.123000144958496,0,0
0.1409817999956431,0.371337890625,-0.451446533203125,0.311279296875,-0.749237060546875,0.06103515625,-0.18310546875,-0.244140625,0.4427490234375,-0.8035888671875,0.3988037109375,-296.0,153.0,-151.0,101700.0,-3.123000144958496,0,0
0.1410349999932805,0.371337890625,-0.451446533203125,0.311279296875,-0.749237060546875,0.06103515625,-0.18310546875,-0.18310546875,0.4429931640625,-0.802490234375,0.4013671875,-296.0,153.0,-151.0,101700.0,-3.123000144958496,0,0
0.14108849999320228,0.371337890625,-0.451416015625,0.311279296875,-0.749237060546875,0.244140625,0.0,-0.06103515625,0.4456787109375,-0.8035888671875,0.3994140625,-296.0,153.0,-151.0,101700.0,-3.123000144958496,0,0
0.14114139998855535,0.371337890625,-0.451416015625,0.311279296875,-0.749237060546875,0.244140625,0.0,-0.06103515625,0.4456787109375,-0.8035888671875,0.3994140625,-296.0,153.0,-151.0,101700.0,-3.123000144958496,0,0
0.20775159999902826,0.371368408203125,-0.451416015625,0.311279296875,-0.749237060546875,0.1220703125,0.0,0.18310546875,0.4439697265625,-0.8021240234375,0.3995361328125,-296.0,153.0,-151.0,101700.0,-3.123000144958496,0,0
0.2078175999922678,0.371368408203125,-0.451416015625,0.311279296875,-0.749237060546875,-0.1220703125,0.1220703125,0.06103515625,0.445068359375,-0.80126953125,0.3994140625,-296.0,153.0,-151.0,101700.0,-3.123000144958496,0,0
0.2078752999950666,0.371368408203125,-0.451416015625,0.311279296875,-0.749237060546875,0.244140625,-0.30517578125,-0.18310546875,0.4454345703125,-0.802978515625,0.3994140625,-296.0,153.0,-151.0,101700.0,-3.123000144958496,0,0
0.20793059999414254,0.371368408203125,-0.451416015625,0.311279296875,-0.749237060546875,0.3662109375,0.06103515625,-0.06103515625,0.4453125,-0.8018798828125,0.399169921875,-296.0,153.0,-151.0,101700.0,-3.123000144958496,0,0
0.20798529998864979,0.371368408203125,-0.451416015625,0.311279296875,-0.749237060546875,0.3662109375,0.06103515625,-0.06103515625,0.4453125,-0.8018798828125,0.399169921875,-296.0,153.0,-151.0,101700.0,-3.123000144958496,0,0
0.20803879998857155,0.371368408203125,-0.451416015625,0.311279296875,-0.749237060546875,0.0,-0.06103515625,-0.30517578125,0.4464111328125,-0.802001953125,0.399658203125,-296.0,153.0,-151.0,101700.0,-3.123000144958496,0,0
0.20809210000152234,0.371368408203125,-0.451416015625,0.311248779296875,-0.749267578125,0.0,-0.244140625,-0.18310546875,0.4454345703125,-0.802734375,0.4005126953125,-296.0,153.0,-151.0,101700.0,-3.123000144958496,0,0
0.20900289999553934,0.371368408203125,-0.451416015625,0.311248779296875,-0.749267578125,0.244140625,0.0,0.18310546875,0.44677734375,-0.8013916015625,0.401123046875,-296.0,153.0,-151.0,101700.0,-3.123000144958496,0,0
0.20905669999774545,0.371368408203125,-0.451416015625,0.311279296875,-0.749237060546875,-0.18310546875,-0.30517578125,-0.06103515625,0.4459228515625,-0.8045654296875,0.3997802734375,-296.0,153.0,-151.0,101700.0,-3.123000144958496,0,0
0.20910909998929128,0.371368408203125,-0.451416015625,0.311279296875,-0.749237060546875,-0.06103515625,0.0,0.06103515625,0.4451904296875,-0.80322265625,0.399169921875,-295.0,151.0,-150.0,101700.0,-3.122000217437744,0,0
0.20916089999082033,0.3714599609375,-0.451446533203125,0.31121826171875,-0.74920654296875,-0.30517578125,-0.1220703125,0.1220703125,0.4454345703125,-0.8021240234375,0.3992919921875,-295.0,151.0,-150.0,101700.0,-3.122000217437744,0,0
0.20921390000148676,0.3714599609375,-0.451446533203125,0.31121826171875,-0.74920654296875,0.244140625,0.0,-0.06103515625,0.4459228515625,-0.803466796875,0.3992919921875,-295.0,151.0,-150.0,101700.0,-3.122000217437744,0,0
0.2092662999930326,0.3714599609375,-0.451446533203125,0.311187744140625,-0.74920654296875,0.42724609375,0.06103515625,0.0,0.4451904296875,-0.80126953125,0.4000244140625,-295.0,151.0,-150.0,101700.0,-3.122000217437744,0,0
0.27663890000258107,0.3714599609375,-0.451446533203125,0.311187744140625,-0.74920654296875,0.1220703125,-0.1220703125,-0.244140625,0.4442138671875,-0.799560546875,0.3975830078125,-295.0,151.0,-150.0,101700.0,-3.122000217437744,0,0
0.27670539999962784,0.3714599609375,-0.451446533203125,0.311187744140625,-0.74920654296875,0.06103515625,0.1220703125,-0.06103515625,0.4453125,-0.7989501953125,0.3983154296875,-295.0,151.0,-150.0,101700.0,-3.122000217437744,0,0
0.2767628000001423,0.3714599609375,-0.451446533203125,0.311187744140625,-0.74920654296875,-0.06103515625,-0.244140625,-0.30517578125,0.445068359375,-0.800537109375,0.3990478515625,-295.0,151.0,-150.0,101700.0,-3.122000217437744,0,0
0.27681789999769535,0.3714599609375,-0.451446533203125,0.311187744140625,-0.74920654296875,0.3662109375,-0.1220703125,0.0,0.446044921875,-0.7991943359375,0.3975830078125,-295.0,151.0,-150.0,101700.0,-3.122000217437744,0,0
0.27687519999744836,0.3714599609375,-0.451446533203125,0.311187744140625,-0.74920654296875,0.0,-0.30517578125,-0.06103515625,0.4482421875,-0.8013916015625,0.39794921875,-295.0,151.0,-150.0,101700.0,-3.122000217437744,0,0
0.27694460000202525,0.3714599609375,-0.451446533203125,0.3111572265625,-0.749237060546875,0.0,0.18310546875,0.244140625,0.4482421875,-0.8028564453125,0.4014892578125,-295.0,151.0,-150.0,101700.0,-3.122000217437744,0,0
0.27699899999424815,0.371429443359375,-0.451446533203125,0.3111572265625,-0.749237060546875,-0.1220703125,0.06103515625,0.244140625,0.44775390625,-0.8028564453125,0.399658203125,-295.0,151.0,-150.0,101700.0,-3.122000217437744,0,0
0.2770535000017844,0.371429443359375,-0.451446533203125,0.3111572265625,-0.749237060546875,-0.30517578125,0.244140625,0.42724609375,0.4447021484375,-0.8018798828125,0.3997802734375,-295.0,151.0,-150.0,101700.0,-3.122000217437744,0,0
0.27710710000246763,0.371429443359375,-0.451446533203125,0.3111572265625,-0.749237060546875,-0.30517578125,0.244140625,0.42724609375,0.4447021484375,-0.8018798828125,0.3997802734375,-295.0,151.0,-150.0,101700.0,-3.122000217437744,0,0
0.2771599999978207,0.371429443359375,-0.451446533203125,0.3111572265625,-0.749237060546875,-0.18310546875,-0.1220703125,0.0,0.4471435546875,-0.8035888671875,0.40087890625,-295.0,151.0,-150.0,101700.0,-3.122000217437744,0,0
0.277212499990128,0.371429443359375,-0.451446533203125,0.3111572265625,-0.749237060546875,0.0,-0.06103515625,-0.1220703125,0.447509765625,-0.8028564453125,0.3985595703125,-295.0,151.0,-150.0,101700.0,-3.122000217437744,0,0
0.32705329998862,0.371429443359375,-0.451446533203125,0.3111572265625,-0.749237060546875,0.0,-0.06103515625,0.0,0.4473876953125,-0.80517578125,0.4012451171875,-295.0,151.0,-150.0,101700.0,-3.122000217437744,0,0
0.32711379999818746,0.3714599609375,-0.451446533203125,0.3111572265625,-0.749237060546875,0.0,-0.06103515625,0.0,0.4473876953125,-0.80517578125,0.4012451171875,-295.0,151.0,-150.0,101700.0,-3.124000072479248,0,0
0.32716879999497905,0.3714599609375,-0.451446533203125,0.3111572265625,-0.749237060546875,0.42724609375,0.0,-0.06103515625,0.44775390625,-0.80322265625,0.400146484375,-295.0,150.0,-150.0,101700.0,-3.124000072479248,0,0
0.3272217999910936,0.3714599609375,-0.451446533203125,0.3111572265625,-0.749237060546875,0.18310546875,-0.06103515625,-0.3662109375,0.4447021484375,-0.80126953125,0.3984375,-295.0,150.0,-150.0,101700.0,-3.124000072479248,0,0
0.3272755999932997,0.371429443359375,-0.451446533203125,0.3111572265625,-0.749237060546875,0.0,-0.18310546875,-0.6103515625,0.443359375,-0.799560546875,0.398193359375,-295.0,150.0,-150.0,101700.0,-3.124000072479248,0,0
0.3295032000023639,0.371429443359375,-0.451446533203125,0.3111572265625,-0.749237060546875,0.0,-0.18310546875,-0.6103515625,0.443359375,-0.799560546875,0.398193359375,-295.0,150.0,-150.0,101700.0,-3.124000072479248,0,0
0.3295627999905264,0.371429443359375,-0.451446533203125,0.311126708984375,-0.749237060546875,0.0,-0.18310546875,-0.54931640625,0.4444580078125,-0.7987060546875,0.3974609375,-295.0,150.0,-150.0,101700.0,-3.124000072479248,0,0
0.3296165999927325,0.371429443359375,-0.451446533203125,0.311126708984375,-0.749237060546875,0.06103515625,-0.1220703125,-0.48828125,0.4454345703125,-0.7972412109375,0.3963623046875,-295.0,150.0,-150.0,101700.0,-3.124000072479248,0,0
0.32966920000035316,0.371429443359375,-0.451446533203125,0.311126708984375,-0.749237060546875,0.0,-0.06103515625,-0.18310546875,0.443359375,-0.8006591796875,0.39697265625,-295.0,150.0,-150.0,101700.0,-3.124000072479248,0,0
0.3297213999903761,0.371429443359375,-0.45147705078125,0.311126708984375,-0.749237060546875,-0.18310546875,0.06103515625,0.244140625,0.450439453125,-0.802978515625,0.3988037109375,-295.0,150.0,-150.0,101700.0,-3.124000072479248,0,0
0.3297743000002811,0.371429443359375,-0.45147705078125,0.311126708984375,-0.749237060546875,-0.1220703125,0.30517578125,0.48828125,0.4461669921875,-0.8009033203125,0.396484375,-295.0,150.0,-150.0,101700.0,-3.124000072479248,0,0
0.39338649999990594,0.371429443359375,-0.45147705078125,0.311126708984375,-0.749237060546875,-0.1220703125,0.30517578125,0.48828125,0.4461669921875,-0.8009033203125,0.396484375,-295.0,150.0,-150.0,101700.0,-3.124000072479248,0,0
0.39345429999229964,0.371429443359375,-0.45147705078125,0.311126708984375,-0.749237060546875,-0.06103515625,0.244140625,0.3662109375,0.4461669921875,-0.804443359375,0.4002685546875,-295.0,150.0,-150.0,101700.0,-3.124000072479248,0,0
0.3935137999942526,0.371429443359375,-0.451446533203125,0.3111572265625,-0.749237060546875,0.06103515625,0.18310546875,0.42724609375,0.4447021484375,-0.8048095703125,0.3995361328125,-295.0,150.0,-150.0,101700.0,-3.124000072479248,0,0
0.39356719999341294,0.371429443359375,-0.451446533203125,0.3111572265625,-0.749237060546875,0.06103515625,0.18310546875,0.42724609375,0.4447021484375,-0.8048095703125,0.3995361328125,-295.0,150.0,-150.0,101700.0,-3.124000072479248,0,0
0.39362319999781903,0.371429443359375,-0.45147705078125,0.3111572265625,-0.749237060546875,0.0,-0.30517578125,-0.244140625,0.446533203125,-0.80029296875,0.395751953125,-295.0,150.0,-150.0,101700.0,-3.124000072479248,0,0
0.3936787999991793,0.371429443359375,-0.45147705078125,0.3111572265625,-0.749237060546875,0.1220703125,-0.18310546875,-0.18310546875,0.44384765625,-0.80029296875,0.3958740234375,-295.0,150.0,-150.0,101700.0,-3.124000072479248,0,0
0.3937298999953782,0.371429443359375,-0.45147705078125,0.3111572265625,-0.74920654296875,-0.06103515625,-0.18310546875,-0.18310546875,0.4451904296875,-0.800537109375,0.398193359375,-295.0,150.0,-150.0,101700.0,-3.124000072479248,0,0
0.39388999999209773,0.371429443359375,-0.45147705078125,0.3111572265625,-0.749237060546875,0.48828125,0.18310546875,0.06103515625,0.4429931640625,-0.802978515625,0.3961181640625,-295.0,150.0,-150.0,101700.0,-3.124000072479248,0,0
0.3939410000020871,0.371429443359375,-0.45147705078125,0.3111572265625,-0.749237060546875,0.06103515625,-0.06103515625,-0.1220703125,0.4434814453125,-0.7982177734375,0.39892578125,-295.0,150.0,-150.0,101700.0,-3.124000072479248,0,0
0.3939914999937173,0.371429443359375,-0.45147705078125,0.3111572265625,-0.749237060546875,0.18310546875,-0.30517578125,0.244140625,0.4434814453125,-0.8017578125,0.398681640625,-295.0,150.0,-150.0,101700.0,-3.124000072479248,0,0
0.3940437999990536,0.371429443359375,-0.45147705078125,0.3111572265625,-0.749237060546875,0.06103515625,-0.18310546875,-0.06103515625,0.44580078125,-0.80126953125,0.3990478515625,-295.0,150.0,-150.0,101700.0,-3.123000144958496,0,0
0.3940961999905994,0.371429443359375,-0.45147705078125,0.3111572265625,-0.74920654296875,-0.1220703125,-0.30517578125,-0.06103515625,0.4454345703125,-0.8018798828125,0.3975830078125,-296.0,151.0,-149.0,101700.0,-3.123000144958496,0,0
0.39414669999678154,0.371429443359375,-0.45147705078125,0.3111572265625,-0.74920654296875,0.06103515625,0.06103515625,0.06103515625,0.4451904296875,-0.802490234375,0.3974609375,-296.0,151.0,-149.0,101700.0,-3.123000144958496,0,0
0.4574867999908747,0.371429443359375,-0.45147705078125,0.3111572265625,-0.74920654296875,0.0,0.1220703125,0.06103515625,0.447998046875,-0.8048095703125,0.3988037109375,-296.0,151.0,-149.0,101700.0,-3.123000144958496,0,0
0.4575588000006974,0.371429443359375,-0.45147705078125,0.3111572265625,-0.74920654296875,0.0,-0.1220703125,0.1220703125,0.446533203125,-0.80322265625,0.39794921875,-296.0,151.0,-149.0,101700.0,-3.123000144958496,0,0
0.4576161000004504,0.371429443359375,-0.45147705078125,0.3111572265625,-0.74920654296875,0.30517578125,0.0,-0.1220703125,0.4444580078125,-0.802978515625,0.396728515625,-296.0,151.0,-149.0,101700.0,-3.123000144958496,0,0
0.4581082999939099,0.371429443359375,-0.451507568359375,0.311187744140625,-0.74920654296875,0.0,0.0,-0.18310546875,0.4459228515625,-0.802978515625,0.3970947265625,-296.0,151.0,-149.0,101700.0,-3.123000144958496,0,0
0.45817699999315664,0.371429443359375,-0.451507568359375,0.311187744140625,-0.74920654296875,0.1220703125,-0.1220703125,-0.244140625,0.4432373046875,-0.8001708984375,0.3966064453125,-296.0,151.0,-149.0,101700.0,-3.123000144958496,0,0
0.4583310000016354,0.371429443359375,-0.451507568359375,0.311187744140625,-0.74920654296875,0.30517578125,0.1220703125,-0.3662109375,0.4456787109375,-0.8001708984375,0.396484375,-296.0,151.0,-149.0,101700.0,-3.123000144958496,0,0
0.45843329999479465,0.371429443359375,-0.451507568359375,0.311187744140625,-0.74920654296875,0.0,-0.18310546875,-0.06103515625,0.445556640625,-0.80126953125,0.3974609375,-296.0,151.0,-149.0,101700.0,-3.123000144958496,0,0
0.4585476999927778,0.371429443359375,-0.451507568359375,0.311187744140625,-0.74920654296875,0.0,-0.18310546875,-0.06103515625,0.445556640625,-0.80126953125,0.3974609375,-296.0,151.0,-149.0,101700.0,-3.123000144958496,0,0
0.4586066999909235,0.371429443359375,-0.451507568359375,0.311187744140625,-0.74920654296875,-0.1220703125,-0.1220703125,0.0,0.44775390625,-0.8028564453125,0.3978271484375,-296.0,151.0,-149.0,101700.0,-3.123000144958496,0,0
0.458831600000849,0.371429443359375,-0.451507568359375,0.311187744140625,-0.74920654296875,-0.06103515625,-0.1220703125,0.1220703125,0.446044921875,-0.8001708984375,0.397216796875,-296.0,151.0,-149.0,101700.0,-3.123000144958496,0,0
0.45889169999281876,0.371429443359375,-0.451507568359375,0.311187744140625,-0.74920654296875,0.30517578125,0.0,0.18310546875,0.44677734375,-0.8016357421875,0.39697265625,-296.0,151.0,-149.0,101700.0,-3.123000144958496,0,0
0.5268999999971129,0.371429443359375,-0.451507568359375,0.311187744140625,-0.74920654296875,0.0,-0.06103515625,0.0,0.4447021484375,-0.8013916015625,0.3968505859375,-296.0,151.0,-149.0,101700.0,-3.123000144958496,0,0
0.526981099988916,0.371429443359375,-0.451507568359375,0.311187744140625,-0.74920654296875,-0.1220703125,-0.18310546875,0.06103515625,0.4459228515625,-0.8013916015625,0.398193359375,-296.0,151.0,-149.0,101700.0,-3.123000144958496,0,0
0.5270416999992449,0.371429443359375,-0.451507568359375,0.311187744140625,-0.74920654296875,0.244140625,-0.244140625,0.0,0.4466552734375,-0.802734375,0.399169921875,-296.0,151.0,-149.0,101700.0,-3.123000144958496,0,0
0.5270966999960365,0.371429443359375,-0.451507568359375,0.311187744140625,-0.749176025390625,0.91552734375,0.18310546875,0.0,0.4444580078125,-0.8013916015625,0.39794921875,-296.0,151.0,-149.0,101700.0,-3.123000144958496,0,0
0.5271503999974811,0.371429443359375,-0.451507568359375,0.311187744140625,-0.749176025390625,0.91552734375,0.18310546875,0.0,0.4444580078125,-0.8013916015625,0.39794921875,-296.0,151.0,-149.0,101700.0,-3.123000144958496,0,0
0.5273959999904037,0.371429443359375,-0.451507568359375,0.311187744140625,-0.74920654296875,0.18310546875,0.0,-0.06103515625,0.4434814453125,-0.8013916015625,0.3984375,-296.0,152.0,-150.0,101700.0,-3.123000144958496,0,0
0.5275255000015022,0.371429443359375,-0.451507568359375,0.311187744140625,-0.74920654296875,0.18310546875,-0.06103515625,-0.3662109375,0.44580078125,-0.799072265625,0.39990234375,-296.0,152.0,-150.0,101700.0,-3.123000144958496,0,0
0.5275869999895804,0.371429443359375,-0.451507568359375,0.311187744140625,-0.74920654296875,0.06103515625,0.0,0.18310546875,0.4429931640625,-0.8016357421875,0.398193359375,-296.0,152.0,-150.0,101700.0,-3.123000144958496,0,0
0.5276415999978781,0.371429443359375,-0.451507568359375,0.311187744140625,-0.74920654296875,0.18310546875,0.1220703125,-0.06103515625,0.4454345703125,-0.8021240234375,0.3975830078125,-296.0,152.0,-150.0,101700.0,-3.123000144958496,0,0
0.5292208999890136,0.371429443359375,-0.451507568359375,0.311187744140625,-0.74920654296875,0.1220703125,-0.18310546875,-0.18310546875,0.445556640625,-0.8016357421875,0.3984375,-296.0,152.0,-150.0,101700.0,-3.123000144958496,0,0
0.5293327999970643,0.371429443359375,-0.451507568359375,0.311187744140625,-0.74920654296875,0.244140625,-0.18310546875,0.1220703125,0.4447021484375,-0.80078125,0.3975830078125,-296.0,152.0,-150.0,101700.0,-3.123000144958496,0,0
0.6131485999940196,0.371429443359375,-0.451507568359375,0.311187744140625,-0.749176025390625,-0.06103515625,0.0,0.1220703125,0.443359375,-0.8006591796875,0.39599609375,-296.0,152.0,-150.0,101700.0,-3.123000144958496,0,0
0.613215899997158,0.371429443359375,-0.451507568359375,0.311187744140625,-0.749176025390625,-0.06103515625,0.06103515625,-0.06103515625,0.445556640625,-0.801025390625,0.39892578125,-296.0,152.0,-150.0,101700.0,-3.123000144958496,0,0
0.6132733999984339,0.371429443359375,-0.451507568359375,0.311187744140625,-0.749176025390625,-0.06103515625,0.06103515625,-0.06103515625,0.445556640625,-0.801025390625,0.39892578125,-296.0,152.0,-150.0,101700.0,-3.123000144958496,0,0
0.6133287999982713,0.371429443359375,-0.451507568359375,0.311187744140625,-0.749176025390625,-0.244140625,-0.1220703125,0.18310546875,0.44482421875,-0.80078125,0.39697265625,-296.0,152.0,-150.0,101700.0,-3.123000144958496,0,0
0.6133842999988701,0.371429443359375,-0.451507568359375,0.311187744140625,-0.749176025390625,-0.18310546875,0.0,0.1220703125,0.4439697265625,-0.80126953125,0.398681640625,-296.0,152.0,-150.0,101700.0,-3.123000144958496,0,0
0.6134374999965075,0.371429443359375,-0.451507568359375,0.31121826171875,-0.749176025390625,0.0,0.18310546875,0.06103515625,0.4447021484375,-0.803466796875,0.397216796875,-296.0,152.0,-150.0,101700.0,-3.123000144958496,0,0
0.6134899000026053,0.371429443359375,-0.451507568359375,0.31121826171875,-0.749176025390625,0.06103515625,0.0,0.06103515625,0.443359375,-0.8037109375,0.396728515625,-296.0,152.0,-150.0,101700.0,-3.123000144958496,0,0
0.6219739999942249,0.371429443359375,-0.4515380859375,0.31121826171875,-0.749176025390625,0.30517578125,-0.18310546875,-0.1220703125,0.4461669921875,-0.8004150390625,0.3973388671875,-296.0,152.0,-150.0,101700.0,-3.123000144958496,0,0
0.6220392999966862,0.371429443359375,-0.4515380859375,0.31121826171875,-0.749176025390625,0.1220703125,0.0,0.0,0.4444580078125,-0.801513671875,0.396240234375,-296.0,152.0,-150.0,101700.0,-3.123000144958496,0,0
0.6220954000018537,0.371429443359375,-0.4515380859375,0.31121826171875,-0.749176025390625,0.06103515625,-0.06103515625,-0.1220703125,0.4468994140625,-0.802734375,0.39697265625,-296.0,152.0,-150.0,101700.0,-3.123000144958496,0,0
0.6221525000000838,0.371429443359375,-0.4515380859375,0.31121826171875,-0.749176025390625,-0.18310546875,0.0,-0.18310546875,0.4453125,-0.8009033203125,0.39892578125,-296.0,152.0,-150.0,101700.0,-3.123000144958496,0,0
0.6222083999891765,0.371429443359375,-0.4515380859375,0.31121826171875,-0.749176025390625,0.0,-0.06103515625,0.0,0.44384765625,-0.8021240234375,0.3975830078125,-296.0,152.0,-150.0,101700.0,-3.123000144958496,0,0
0.6222623999929056,0.371429443359375,-0.4515380859375,0.31121826171875,-0.749176025390625,0.0,-0.06103515625,0.0,0.44384765625,-0.8021240234375,0.3975830078125,-296.0,152.0,-150.0,101700.0,-3.123000144958496,0,0
0.6569524999940768,0.371429443359375,-0.4515380859375,0.31121826171875,-0.7491455078125,0.1220703125,-0.06103515625,-0.30517578125,0.4454345703125,-0.802734375,0.396728515625,-296.0,153.0,-151.0,101700.0,-3.124000072479248,0,0
0.6570734999986598,0.371429443359375,-0.4515380859375,0.31121826171875,-0.7491455078125,0.1220703125,-0.1220703125,-0.06103515625,0.446533203125,-0.80322265625,0.3984375,-296.0,153.0,-151.0,101700.0,-3.124000072479248,0,0
0.6571344999974826,0.371429443359375,-0.4515380859375,0.311248779296875,-0.7491455078125,0.1220703125,0.06103515625,-0.18310546875,0.445556640625,-0.8021240234375,0.397216796875,-296.0,153.0,-151.0,101700.0,-3.124000072479248,0,0
0.65719209999952,0.371429443359375,-0.4515380859375,0.311248779296875,-0.7491455078125,-0.18310546875,-0.1220703125,-0.30517578125,0.44287109375,-0.802978515625,0.396728515625,-296.0,153.0,-151.0,101700.0,-3.124000072479248,0,0
0.6572499999892898,0.371429443359375,-0.4515380859375,0.311248779296875,-0.7491455078125,0.0,-0.06103515625,-0.18310546875,0.4456787109375,-0.8013916015625,0.395751953125,-296.0,153.0,-151.0,101700.0,-3.124000072479248,0,0
0.6578106999950251,0.37139892578125,-0.451568603515625,0.311248779296875,-0.7491455078125,-0.06103515625,-0.06103515625,0.06103515625,0.4466552734375,-0.8023681640625,0.3966064453125,-296.0,153.0,-151.0,101700.0,-3.124000072479248,0,0
0.657870199996978,0.37139892578125,-0.451568603515625,0.311248779296875,-0.7491455078125,-0.06103515625,-0.06103515625,0.06103515625,0.4466552734375,-0.8023681640625,0.3966064453125,-296.0,153.0,-151.0,101700.0,-3.124000072479248,0,0
0.6579269999929238,0.37139892578125,-0.451568603515625,0.311248779296875,-0.7491455078125,0.30517578125,-0.1220703125,0.0,0.4482421875,-0.8017578125,0.39892578125,-296.0,153.0,-151.0,101700.0,-3.124000072479248,0,0
0.6579840999911539,0.37139892578125,-0.451568603515625,0.311248779296875,-0.7491455078125,-0.06103515625,0.0,-0.1220703125,0.4462890625,-0.80126953125,0.3975830078125,-296.0,153.0,-151.0,101700.0,-3.124000072479248,0,0
0.6580412999901455,0.37139892578125,-0.451568603515625,0.311248779296875,-0.7491455078125,0.244140625,-0.18310546875,-0.18310546875,0.4432373046875,-0.802734375,0.3956298828125,-296.0,153.0,-151.0,101700.0,-3.124000072479248,0,0
0.6580960999999661,0.37139892578125,-0.451568603515625,0.311248779296875,-0.7491455078125,0.0,-0.244140625,-0.06103515625,0.44482421875,-0.802001953125,0.396240234375,-296.0,153.0,-151.0,101700.0,-3.124000072479248,0,0
0.7085437999921851,0.37139892578125,-0.451568603515625,0.311248779296875,-0.749114990234375,0.06103515625,-0.244140625,0.0,0.4454345703125,-0.802490234375,0.396240234375,-296.0,153.0,-151.0,101700.0,-3.124000072479248,0,0
0.7086097999999765,0.37139892578125,-0.451568603515625,0.311248779296875,-0.749114990234375,0.244140625,-0.1220703125,0.0,0.4464111328125,-0.8028564453125,0.3970947265625,-296.0,153.0,-151.0,101700.0,-3.124000072479248,0,0
0.7086722999956692,0.37139892578125,-0.451568603515625,0.311248779296875,-0.749114990234375,0.06103515625,-0.18310546875,0.06103515625,0.4449462890625,-0.8013916015625,0.398681640625,-296.0,153.0,-151.0,101700.0,-3.124000072479248,0,0
0.7087296999961836,0.37139892578125,-0.451568603515625,0.311248779296875,-0.749114990234375,0.06103515625,-0.18310546875,0.06103515625,0.4449462890625,-0.8013916015625,0.398681640625,-296.0,153.0,-151.0,101700.0,-3.124000072479248,0,0
0.7087873999989824,0.37139892578125,-0.45159912109375,0.311279296875,-0.749114990234375,0.30517578125,-0.1220703125,0.06103515625,0.4444580078125,-0.8017578125,0.395751953125,-296.0,153.0,-151.0,101700.0,-3.124000072479248,0,0
0.7106426999962423,0.37139892578125,-0.45159912109375,0.311279296875,-0.749114990234375,0.30517578125,-0.1220703125,0.06103515625,0.4444580078125,-0.8017578125,0.395751953125,-296.0,154.0,-151.0,101700.0,-3.122000217437744,0,0
0.710710300001665,0.37139892578125,-0.45159912109375,0.311279296875,-0.749114990234375,0.06103515625,-0.06103515625,-0.244140625,0.444580078125,-0.8006591796875,0.3975830078125,-296.0,154.0,-151.0,101700.0,-3.122000217437744,0,0
0.7107678999891505,0.37139892578125,-0.45159912109375,0.311248779296875,-0.749114990234375,0.42724609375,-0.42724609375,0.0,0.445556640625,-0.80078125,0.3975830078125,-296.0,154.0,-151.0,101700.0,-3.122000217437744,0,0
0.7108297999948263,0.37139892578125,-0.45159912109375,0.311279296875,-0.749114990234375,-0.06103515625,-0.18310546875,-0.42724609375,0.4468994140625,-0.8016357421875,0.3988037109375,-296.0,154.0,-151.0,101700.0,-3.122000217437744,0,0
0.7108873999968637,0.37139892578125,-0.45159912109375,0.311279296875,-0.749114990234375,-0.06103515625,0.18310546875,0.0,0.4462890625,-0.80126953125,0.396484375,-296.0,154.0,-151.0,101700.0,-3.122000217437744,0,0
0.7109445999958552,0.37139892578125,-0.45159912109375,0.311279296875,-0.749114990234375,-0.1220703125,-0.244140625,-0.06103515625,0.44677734375,-0.8018798828125,0.398193359375,-296.0,154.0,-151.0,101700.0,-3.122000217437744,0,0
0.7111902999895392,0.37139892578125,-0.45159912109375,0.311279296875,-0.749114990234375,0.06103515625,0.06103515625,-0.1220703125,0.4454345703125,-0.801025390625,0.3973388671875,-296.0,154.0,-151.0,101700.0,-3.122000217437744,0,0
0.7863756000006106,0.37139892578125,-0.45159912109375,0.311279296875,-0.749114990234375,0.06103515625,0.06103515625,-0.1220703125,0.4454345703125,-0.801025390625,0.3973388671875,-296.0,154.0,-151.0,101700.0,-3.122000217437744,0,0
0.786439599993173,0.37139892578125,-0.451629638671875,0.311279296875,-0.749114990234375,-0.06103515625,-0.244140625,0.1220703125,0.4439697265625,-0.8018798828125,0.3958740234375,-296.0,154.0,-151.0,101700.0,-3.122000217437744,0,0
0.786497099994449,0.37139892578125,-0.451629638671875,0.311279296875,-0.749114990234375,0.0,-0.06103515625,0.0,0.4468994140625,-0.8018798828125,0.396728515625,-296.0,154.0,-151.0,101700.0,-3.122000217437744,0,0
0.7865515000012238,0.37139892578125,-0.451629638671875,0.311279296875,-0.749114990234375,0.0,0.0,-0.06103515625,0.4454345703125,-0.801025390625,0.397216796875,-296.0,154.0,-151.0,101700.0,-3.122000217437744,0,0
0.786607100002584,0.371368408203125,-0.451629638671875,0.311279296875,-0.749114990234375,0.18310546875,0.06103515625,0.06103515625,0.4451904296875,-0.801513671875,0.3974609375,-296.0,154.0,-151.0,101700.0,-3.122000217437744,0,0
0.7866594999941299,0.371368408203125,-0.451629638671875,0.311279296875,-0.749114990234375,0.18310546875,0.0,-0.18310546875,0.4473876953125,-0.8037109375,0.396728515625,-296.0,154.0,-151.0,101700.0,-3.122000217437744,0,0
0.78680849999364,0.371368408203125,-0.451629638671875,0.311279296875,-0.749114990234375,0.18310546875,0.06103515625,-0.1220703125,0.4468994140625,-0.8023681640625,0.3980712890625,-296.0,154.0,-151.0,101700.0,-3.122000217437744,0,0
0.786860299995169,0.371368408203125,-0.451629638671875,0.311279296875,-0.749114990234375,-0.244140625,0.06103515625,-0.1220703125,0.4449462890625,-0.80078125,0.3966064453125,-296.0,154.0,-151.0,101700.0,-3.122000217437744,0,0
0.7869120999966981,0.371368408203125,-0.451629638671875,0.311279296875,-0.74908447265625,0.1220703125,-0.18310546875,-0.06103515625,0.4444580078125,-0.8023681640625,0.3975830078125,-296.0,154.0,-151.0,101700.0,-3.122000217437744,0,0
0.7869637999974657,0.371368408203125,-0.451629638671875,0.311279296875,-0.74908447265625,0.0,-0.1220703125,-0.06103515625,0.4439697265625,-0.80322265625,0.3980712890625,-296.0,154.0,-151.0,101700.0,-3.122000217437744,0,0
0.7870150999951875,0.371368408203125,-0.451629638671875,0.311279296875,-0.74908447265625,0.0,-0.1220703125,-0.06103515625,0.4439697265625,-0.80322265625,0.3980712890625,-296.0,154.0,-151.0,101700.0,-3.122000217437744,0,0
0.7870715000026394,0.371368408203125,-0.45166015625,0.311279296875,-0.74908447265625,0.0,0.0,-0.06103515625,0.4462890625,-0.80126953125,0.3951416015625,-296.0,154.0,-151.0,101700.0,-3.122000217437744,0,0
0.8401747999887448,0.371368408203125,-0.45166015625,0.311309814453125,-0.74908447265625,-0.18310546875,0.0,-0.244140625,0.4447021484375,-0.80078125,0.397216796875,-295.0,154.0,-150.0,101700.0,-3.124000072479248,0,0
0.8402371999982279,0.37158203125,-0.451751708984375,0.311187744140625,-0.74896240234375,-0.54931640625,0.06103515625,-0.06103515625,0.444580078125,-0.8035888671875,0.3953857421875,-295.0,154.0,-150.0,101700.0,-3.124000072479248,0,0
0.8402940999949351,0.37158203125,-0.451751708984375,0.311187744140625,-0.74896240234375,0.18310546875,0.30517578125,-0.18310546875,0.445068359375,-0.8009033203125,0.3956298828125,-295.0,154.0,-150.0,101700.0,-3.124000072479248,0,0
0.8403466000017943,0.37158203125,-0.451751708984375,0.311187744140625,-0.74896240234375,-0.06103515625,-0.1220703125,-0.1220703125,0.444580078125,-0.8011474609375,0.39599609375,-295.0,154.0,-150.0,101700.0,-3.124000072479248,0,0
0.840396999992663,0.371551513671875,-0.451751708984375,0.311187744140625,-0.74896240234375,-0.1220703125,-0.30517578125,-0.06103515625,0.446044921875,-0.80029296875,0.3956298828125,-295.0,154.0,-150.0,101700.0,-3.124000072479248,0,0
0.8424904999992577,0.371551513671875,-0.451751708984375,0.311187744140625,-0.74896240234375,-0.1220703125,-0.30517578125,-0.06103515625,0.446044921875,-0.80029296875,0.3956298828125,-295.0,154.0,-150.0,101700.0,-3.124000072479248,0,0
0.8425497999996878,0.371551513671875,-0.4517822265625,0.311187744140625,-0.74896240234375,-0.06103515625,0.0,0.1220703125,0.444580078125,-0.8011474609375,0.395751953125,-295.0,154.0,-150.0,101700.0,-3.124000072479248,0,0
0.8426019999897107,0.371551513671875,-0.4517822265625,0.311187744140625,-0.74896240234375,-0.30517578125,-0.06103515625,0.06103515625,0.4459228515625,-0.7994384765625,0.396484375,-295.0,154.0,-150.0,101700.0,-3.124000072479248,0,0
0.8426562999957241,0.371551513671875,-0.4517822265625,0.31121826171875,-0.74896240234375,-0.18310546875,-0.30517578125,-0.30517578125,0.4432373046875,-0.8037109375,0.3956298828125,-295.0,154.0,-150.0,101700.0,-3.124000072479248,0,0
0.8427057999942917,0.371551513671875,-0.4517822265625,0.31121826171875,-0.748931884765625,0.1220703125,0.244140625,0.1220703125,0.4451904296875,-0.8023681640625,0.39404296875,-295.0,154.0,-150.0,101700.0,-3.124000072479248,0,0
0.8427594999957364,0.371551513671875,-0.4517822265625,0.31121826171875,-0.748931884765625,0.1220703125,-0.06103515625,-0.18310546875,0.444580078125,-0.8009033203125,0.3968505859375,-295.0,154.0,-150.0,101700.0,-3.124000072479248,0,0
0.9026103999931365,0.371551513671875,-0.451812744140625,0.31121826171875,-0.748931884765625,0.18310546875,0.0,0.06103515625,0.44482421875,-0.801025390625,0.3951416015625,-295.0,154.0,-150.0,101700.0,-3.124000072479248,0,0
0.9026750999910291,0.371551513671875,-0.451812744140625,0.31121826171875,-0.748931884765625,0.0,-0.06103515625,0.06103515625,0.4462890625,-0.8043212890625,0.396484375,-295.0,154.0,-150.0,101700.0,-3.124000072479248,0,0
0.9027327999938279,0.371551513671875,-0.451812744140625,0.31121826171875,-0.748931884765625,0.0,-0.06103515625,0.06103515625,0.4462890625,-0.8043212890625,0.396484375,-295.0,154.0,-150.0,101700.0,-3.124000072479248,0,0
0.9027888999989955,0.371551513671875,-0.451812744140625,0.311248779296875,-0.748931884765625,0.06103515625,-0.18310546875,-0.3662109375,0.4466552734375,-0.8011474609375,0.39501953125,-295.0,154.0,-150.0,101700.0,-3.124000072479248,0,0
0.902842999988934,0.371551513671875,-0.45184326171875,0.311248779296875,-0.7489013671875,0.30517578125,0.06103515625,-0.1220703125,0.445068359375,-0.8028564453125,0.3951416015625,-295.0,154.0,-150.0,101700.0,-3.124000072479248,0,0
0.9029098999890266,0.371551513671875,-0.45184326171875,0.311248779296875,-0.7489013671875,0.06103515625,-0.06103515625,-0.3662109375,0.442626953125,-0.7998046875,0.3953857421875,-295.0,154.0,-150.0,101700.0,-3.124000072479248,0,0
0.9029627999989316,0.371551513671875,-0.45184326171875,0.311248779296875,-0.7489013671875,0.3662109375,-0.06103515625,-0.18310546875,0.4461669921875,-0.8017578125,0.396484375,-295.0,154.0,-150.0,101700.0,-3.124000072479248,0,0
0.9030155999935232,0.371551513671875,-0.45184326171875,0.311248779296875,-0.7489013671875,0.3662109375,-0.06103515625,-0.18310546875,0.4461669921875,-0.8017578125,0.396484375,-296.0,153.0,-150.0,101700.0,-3.120000123977661,0,0
0.903067999999621,0.371551513671875,-0.45184326171875,0.311248779296875,-0.7489013671875,0.06103515625,-0.18310546875,0.244140625,0.4459228515625,-0.8031005859375,0.3956298828125,-296.0,153.0,-150.0,101700.0,-3.120000123977661,0,0
0.9031195999996271,0.371551513671875,-0.45184326171875,0.311248779296875,-0.7489013671875,0.0,-0.42724609375,0.0,0.4453125,-0.805419921875,0.3963623046875,-296.0,153.0,-150.0,101700.0,-3.120000123977661,0,0
0.9031716999888886,0.37152099609375,-0.451873779296875,0.311279296875,-0.7489013671875,0.244140625,0.06103515625,0.06103515625,0.4456787109375,-0.801025390625,0.395263671875,-296.0,153.0,-150.0,101700.0,-3.120000123977661,0,0
0.903226900001755,0.37152099609375,-0.451873779296875,0.311279296875,-0.7489013671875,0.244140625,0.06103515625,0.06103515625,0.4456787109375,-0.801025390625,0.395263671875,-296.0,153.0,-150.0,101700.0,-3.120000123977661,0,0
0.9684144999919226,0.37152099609375,-0.451873779296875,0.311279296875,-0.748870849609375,-0.1220703125,-0.1220703125,0.1220703125,0.44482421875,-0.8018798828125,0.3946533203125,-296.0,153.0,-150.0,101700.0,-3.120000123977661,0,0
0.9684772999898996,0.37152099609375,-0.451873779296875,0.311279296875,-0.748870849609375,0.244140625,0.06103515625,0.1220703125,0.4434814453125,-0.8018798828125,0.3956298828125,-296.0,153.0,-150.0,101700.0,-3.120000123977661,0,0
0.9699835999927018,0.37152099609375,-0.451873779296875,0.311309814453125,-0.748870849609375,0.18310546875,0.0,0.244140625,0.446044921875,-0.8021240234375,0.3961181640625,-296.0,153.0,-150.0,101700.0,-3.120000123977661,0,0
0.9700428999931319,0.37152099609375,-0.451873779296875,0.311309814453125,-0.748870849609375,-0.1220703125,0.1220703125,0.06103515625,0.4454345703125,-0.8037109375,0.3966064453125,-296.0,153.0,-150.0,101700.0,-3.120000123977661,0,0
0.970111899994663,0.37152099609375,-0.451873779296875,0.311309814453125,-0.748870849609375,0.30517578125,0.06103515625,0.06103515625,0.44384765625,-0.8018798828125,0.394287109375,-296.0,153.0,-150.0,101700.0,-3.120000123977661,0,0
0.9702742999943439,0.37152099609375,-0.451873779296875,0.311309814453125,-0.748870849609375,0.30517578125,0.06103515625,0.06103515625,0.44384765625,-0.8018798828125,0.394287109375,-296.0,153.0,-150.0,101700.0,-3.120000123977661,0,0
0.9703336999955354,0.37152099609375,-0.451904296875,0.311309814453125,-0.74884033203125,-0.1220703125,-0.06103515625,-0.1220703125,0.444580078125,-0.8017578125,0.3956298828125,-296.0,153.0,-150.0,101700.0,-3.120000123977661,0,0
0.9704040999931749,0.37152099609375,-0.451904296875,0.311309814453125,-0.74884033203125,0.244140625,0.0,-0.18310546875,0.4447021484375,-0.802001953125,0.395751953125,-296.0,153.0,-150.0,101700.0,-3.120000123977661,0,0
1.0403977999958443,0.37152099609375,-0.451904296875,0.31134033203125,-0.74884033203125,0.244140625,-0.18310546875,-0.06103515625,0.4462890625,-0.8021240234375,0.3983154296875,-296.0,153.0,-150.0,101700.0,-3.120000123977661,0,0
1.0404872999934014,0.37152099609375,-0.451904296875,0.31134033203125,-0.74884033203125,-0.244140625,-0.1220703125,0.0,0.4453125,-0.80322265625,0.3951416015625,-297.0,152.0,-150.0,101700.0,-3.123000144958496,0,0
1.0405465999938315,0.37152099609375,-0.451934814453125,0.31134033203125,-0.74884033203125,0.06103515625,-0.06103515625,-0.06103515625,0.4459228515625,-0.800537109375,0.3961181640625,-297.0,152.0,-150.0,101700.0,-3.123000144958496,0,0
1.0406371999997646,0.37152099609375,-0.451934814453125,0.311309814453125,-0.74884033203125,-0.1220703125,-0.06103515625,0.1220703125,0.4471435546875,-0.799560546875,0.3968505859375,-297.0,152.0,-150.0,101700.0,-3.123000144958496,0,0
1.0407189999968978,0.37152099609375,-0.451934814453125,0.311309814453125,-0.74884033203125,-0.1220703125,-0.06103515625,0.1220703125,0.4471435546875,-0.799560546875,0.3968505859375,-297.0,152.0,-150.0,101700.0,-3.123000144958496,0,0
1.0409241000015754,0.37152099609375,-0.451934814453125,0.311309814453125,-0.74884033203125,0.244140625,-0.1220703125,0.1220703125,0.4451904296875,-0.801513671875,0.39599609375,-297.0,152.0,-150.0,101700.0,-3.123000144958496,0,0
1.0409809999982826,0.37152099609375,-0.451934814453125,0.311309814453125,-0.74884033203125,-0.30517578125,-0.06103515625,-0.244140625,0.445556640625,-0.802734375,0.3961181640625,-297.0,152.0,-150.0,101700.0,-3.123000144958496,0,0
1.0410351999889826,0.37152099609375,-0.451934814453125,0.31134033203125,-0.74884033203125,0.06103515625,0.0,-0.06103515625,0.4459228515625,-0.8017578125,0.39453125,-297.0,152.0,-150.0,101700.0,-3.123000144958496,0,0
1.0410888999904273,0.37152099609375,-0.451934814453125,0.31134033203125,-0.74884033203125,0.1220703125,0.06103515625,-0.06103515625,0.447021484375,-0.801513671875,0.3958740234375,-297.0,152.0,-150.0,101700.0,-3.123000144958496,0,0
1.0411418000003323,0.371490478515625,-0.45196533203125,0.31134033203125,-0.748809814453125,0.0,0.0,-0.06103515625,0.447998046875,-0.80029296875,0.3935546875,-297.0,152.0,-150.0,101700.0,-3.123000144958496,0,0
1.0411954000010155,0.371490478515625,-0.45196533203125,0.31134033203125,-0.748809814453125,0.244140625,-0.06103515625,-0.18310546875,0.446044921875,-0.8013916015625,0.3958740234375,-297.0,152.0,-150.0,101700.0,-3.123000144958496,0,0
1.0412495999917155,0.371490478515625,-0.45196533203125,0.31134033203125,-0.748809814453125,-0.1220703125,0.1220703125,-0.1220703125,0.4459228515625,-0.802001953125,0.3970947265625,-297.0,152.0,-150.0,101700.0,-3.123000144958496,0,0
1.0931538000004366,0.371490478515625,-0.45196533203125,0.31134033203125,-0.748809814453125,0.06103515625,-0.18310546875,0.06103515625,0.4451904296875,-0.80126953125,0.396484375,-297.0,152.0,-150.0,101700.0,-3.123000144958496,0,0
1.093215599990799,0.371490478515625,-0.45196533203125,0.31134033203125,-0.748809814453125,0.06103515625,0.0,-0.1220703125,0.444580078125,-0.8011474609375,0.3968505859375,-297.0,152.0,-150.0,101700.0,-3.123000144958496,0,0
1.0932691999914823,0.371490478515625,-0.45196533203125,0.31134033203125,-0.748809814453125,0.3662109375,-0.06103515625,-0.1220703125,0.4447021484375,-0.7996826171875,0.39697265625,-297.0,152.0,-150.0,101700.0,-3.123000144958496,0,0
1.0933216999983415,0.371490478515625,-0.45196533203125,0.31134033203125,-0.748809814453125,0.06103515625,-0.06103515625,-0.06103515625,0.443359375,-0.8013916015625,0.3963623046875,-297.0,152.0,-150.0,101700.0,-3.123000144958496,0,0
1.093387699991581,0.371490478515625,-0.45196533203125,0.31134033203125,-0.748809814453125,0.06103515625,-0.06103515625,-0.06103515625,0.4434814453125,-0.8018798828125,0.39794921875,-297.0,152.0,-150.0,101700.0,-3.123000144958496,0,0
1.0934415999945486,0.371490478515625,-0.45196533203125,0.31134033203125,-0.748809814453125,-0.244140625,0.0,-0.1220703125,0.444091796875,-0.803466796875,0.396240234375,-297.0,152.0,-150.0,101700.0,-3.123000144958496,0,0
1.0934961000020849,0.371490478515625,-0.45196533203125,0.31134033203125,-0.748809814453125,0.0,0.0,-0.1220703125,0.4456787109375,-0.8011474609375,0.39599609375,-297.0,152.0,-150.0,101700.0,-3.123000144958496,0,0
1.0935476000013296,0.371490478515625,-0.451995849609375,0.31134033203125,-0.748809814453125,0.1220703125,0.1220703125,0.0,0.446044921875,-0.8017578125,0.39599609375,-297.0,152.0,-150.0,101700.0,-3.123000144958496,0,0
1.093598599996767,0.371490478515625,-0.451995849609375,0.31134033203125,-0.748809814453125,0.1220703125,0.1220703125,0.0,0.446044921875,-0.8017578125,0.39599609375,-297.0,153.0,-151.0,101700.0,-3.121000051498413,0,0
1.0936502999975346,0.371490478515625,-0.451995849609375,0.31134033203125,-0.748809814453125,0.1220703125,0.1220703125,0.0,0.446044921875,-0.8017578125,0.39599609375,-297.0,153.0,-151.0,101700.0,-3.121000051498413,0,0
1.0937023000005865,0.37139892578125,-0.45196533203125,0.3114013671875,-0.74884033203125,0.244140625,-0.1220703125,0.1220703125,0.4459228515625,-0.800048828125,0.3944091796875,-297.0,153.0,-151.0,101700.0,-3.121000051498413,0,0
1.1729802999907406,0.37139892578125,-0.45196533203125,0.3114013671875,-0.74884033203125,-0.1220703125,-0.1220703125,0.06103515625,0.4443359375,-0.800048828125,0.395263671875,-297.0,153.0,-151.0,101700.0,-3.121000051498413,0,0
1.1730581000010716,0.37139892578125,-0.45196533203125,0.311431884765625,-0.74884033203125,0.0,-0.244140625,0.0,0.4442138671875,-0.802978515625,0.396728515625,-297.0,153.0,-151.0,101700.0,-3.121000051498413,0,0
1.1731251000019256,0.37139892578125,-0.45196533203125,0.311431884765625,-0.74884033203125,-0.1220703125,-0.1220703125,0.0,0.4443359375,-0.80126953125,0.3955078125,-297.0,153.0,-151.0,101700.0,-3.121000051498413,0,0
1.173183599996264,0.37139892578125,-0.45196533203125,0.311431884765625,-0.74884033203125,0.30517578125,0.18310546875,-0.18310546875,0.444580078125,-0.80078125,0.39501953125,-297.0,153.0,-151.0,101700.0,-3.121000051498413,0,0
1.1733273999998346,0.371368408203125,-0.45196533203125,0.3114013671875,-0.74884033203125,-0.06103515625,-0.30517578125,-0.06103515625,0.4471435546875,-0.7978515625,0.3953857421875,-297.0,153.0,-151.0,101700.0,-3.121000051498413,0,0
1.1734133999998448,0.371368408203125,-0.45196533203125,0.3114013671875,-0.74884033203125,0.0,0.0,-0.30517578125,0.446044921875,-0.800537109375,0.3961181640625,-297.0,153.0,-151.0,101700.0,-3.121000051498413,0,0
1.1736072999919998,0.371368408203125,-0.45196533203125,0.311431884765625,-0.74884033203125,0.18310546875,0.0,0.1220703125,0.4449462890625,-0.8011474609375,0.39599609375,-297.0,153.0,-151.0,101700.0,-3.121000051498413,0,0
1.1736698000022443,0.371368408203125,-0.45196533203125,0.311431884765625,-0.74884033203125,0.18310546875,0.0,0.1220703125,0.4449462890625,-0.8011474609375,0.39599609375,-297.0,153.0,-151.0,101700.0,-3.121000051498413,0,0
1.1737283999973442,0.371368408203125,-0.451995849609375,0.311431884765625,-0.74884033203125,0.1220703125,-0.06103515625,-0.1220703125,0.4454345703125,-0.8028564453125,0.3941650390625,-297.0,153.0,-151.0,101700.0,-3.121000051498413,0,0
1.1737887999915984,0.371368408203125,-0.451995849609375,0.311431884765625,-0.74884033203125,0.30517578125,-0.06103515625,-0.18310546875,0.44384765625,-0.8001708984375,0.3961181640625,-297.0,153.0,-151.0,101700.0,-3.121000051498413,0,0
1.1738467999966815,0.371368408203125,-0.451995849609375,0.311431884765625,-0.74884033203125,-0.244140625,-0.06103515625,0.0,0.4449462890625,-0.802734375,0.396484375,-297.0,153.0,-151.0,101700.0,-3.121000051498413,0,0
1.1739309999975376,0.371368408203125,-0.451995849609375,0.311431884765625,-0.74884033203125,0.244140625,0.18310546875,-0.06103515625,0.4456787109375,-0.801025390625,0.3973388671875,-297.0,153.0,-151.0,101700.0,-3.121000051498413,0,0
1.1739962999999989,0.371368408203125,-0.451995849609375,0.311431884765625,-0.74884033203125,-0.06103515625,0.0,-0.06103515625,0.44775390625,-0.8001708984375,0.394775390625,-297.0,153.0,-151.0,101700.0,-3.121000051498413,0,0
1.221010599998408,0.371368408203125,-0.451995849609375,0.311431884765625,-0.748809814453125,-0.244140625,0.0,-0.1220703125,0.443359375,-0.8018798828125,0.3968505859375,-297.0,153.0,-151.0,101700.0,-3.121000051498413,0,0
1.221087500001886,0.371368408203125,-0.451995849609375,0.31146240234375,-0.748809814453125,0.18310546875,-0.18310546875,-0.1220703125,0.4451904296875,-0.802001953125,0.3958740234375,-297.0,153.0,-151.0,101700.0,-3.121000051498413,0,0
1.2211512999929255,0.371368408203125,-0.451995849609375,0.31146240234375,-0.748809814453125,0.18310546875,-0.18310546875,-0.1220703125,0.4451904296875,-0.802001953125,0.3958740234375,-297.0,153.0,-151.0,101700.0,-3.121000051498413,0,0
1.2212105999933556,0.371368408203125,-0.451995849609375,0.31146240234375,-0.748809814453125,0.0,0.0,-0.18310546875,0.4453125,-0.8028564453125,0.3966064453125,-297.0,154.0,-151.0,101700.0,-3.121000051498413,0,0
1.2217144999885932,0.371368408203125,-0.451995849609375,0.31146240234375,-0.748809814453125,0.244140625,0.1220703125,-0.1220703125,0.44482421875,-0.8021240234375,0.394775390625,-297.0,154.0,-151.0,101700.0,-3.121000051498413,0,0
1.22178609999537,0.371368408203125,-0.451995849609375,0.31146240234375,-0.748809814453125,0.0,-0.06103515625,-0.18310546875,0.4437255859375,-0.802978515625,0.395263671875,-297.0,154.0,-151.0,101700.0,-3.121000051498413,0,0
1.2218600999913178,0.371368408203125,-0.4520263671875,0.31146240234375,-0.748809814453125,0.06103515625,0.06103515625,-0.06103515625,0.4456787109375,-0.8004150390625,0.3955078125,-297.0,154.0,-151.0,101700.0,-3.121000051498413,0,0
1.221919199990225,0.371368408203125,-0.4520263671875,0.31146240234375,-0.748809814453125,0.0,-0.1220703125,0.0,0.4471435546875,-0.80322265625,0.3948974609375,-297.0,154.0,-151.0,101700.0,-3.121000051498413,0,0
1.2219782999891322,0.371368408203125,-0.4520263671875,0.31146240234375,-0.748809814453125,-0.06103515625,0.06103515625,-0.18310546875,0.4453125,-0.8013916015625,0.39599609375,-297.0,154.0,-151.0,101700.0,-3.121000051498413,0,0
1.2220354000019142,0.371368408203125,-0.4520263671875,0.31146240234375,-0.748779296875,0.244140625,-0.1220703125,0.0,0.4462890625,-0.8016357421875,0.395751953125,-297.0,154.0,-151.0,101700.0,-3.121000051498413,0,0
1.2220953999931226,0.371368408203125,-0.4520263671875,0.31146240234375,-0.748779296875,0.18310546875,-0.244140625,-0.244140625,0.4453125,-0.8033447265625,0.3956298828125,-297.0,154.0,-151.0,101700.0,-3.121000051498413,0,0
1.2930288999923505,0.371337890625,-0.452056884765625,0.31146240234375,-0.748779296875,-0.30517578125,-0.30517578125,-0.18310546875,0.447021484375,-0.8016357421875,0.3956298828125,-297.0,154.0,-151.0,101700.0,-3.121000051498413,0,0
1.2930984999984503,0.371337890625,-0.452056884765625,0.31146240234375,-0.748779296875,-0.06103515625,-0.244140625,0.0,0.447265625,-0.8017578125,0.3970947265625,-297.0,154.0,-151.0,101700.0,-3.121000051498413,0,0
1.2931557999982033,0.371337890625,-0.452056884765625,0.31146240234375,-0.748779296875,0.0,-0.06103515625,0.06103515625,0.444580078125,-0.8004150390625,0.3978271484375,-297.0,154.0,-151.0,101700.0,-3.121000051498413,0,0
1.2932100999896647,0.371337890625,-0.452056884765625,0.31146240234375,-0.748779296875,-0.06103515625,0.0,-0.06103515625,0.4432373046875,-0.80224609375,0.396484375,-297.0,154.0,-151.0,101700.0,-3.121000051498413,0,0
1.293263499988825,0.371337890625,-0.452056884765625,0.31146240234375,-0.748779296875,0.1220703125,-0.06103515625,-0.1220703125,0.4437255859375,-0.801025390625,0.396728515625,-297.0,154.0,-151.0,101700.0,-3.121000051498413,0,0
1.2933766999922227,0.371337890625,-0.4520263671875,0.31146240234375,-0.748779296875,0.0,-0.06103515625,0.06103515625,0.44482421875,-0.8017578125,0.396728515625,-297.0,154.0,-151.0,101700.0,-3.121000051498413,0,0
1.293432499995106,0.371368408203125,-0.4520263671875,0.31146240234375,-0.748779296875,0.0,-0.3662109375,0.0,0.445068359375,-0.802001953125,0.3985595703125,-297.0,154.0,-151.0,101700.0,-3.121000051498413,0,0
1.2934843999973964,0.371368408203125,-0.4520263671875,0.31146240234375,-0.748779296875,0.06103515625,0.18310546875,0.06103515625,0.4447021484375,-0.7999267578125,0.3966064453125,-297.0,154.0,-151.0,101700.0,-3.121000051498413,0,0
1.2935375999950338,0.371368408203125,-0.4520263671875,0.31146240234375,-0.748779296875,0.06103515625,0.18310546875,0.06103515625,0.4447021484375,-0.7999267578125,0.3966064453125,-297.0,154.0,-151.0,101700.0,-3.121000051498413,0,0
1.2935910999949556,0.371368408203125,-0.4520263671875,0.31146240234375,-0.748779296875,-0.18310546875,0.0,0.0,0.4449462890625,-0.800537109375,0.398193359375,-297.0,154.0,-151.0,101700.0,-3.121000051498413,0,0
1.293642999997246,0.371337890625,-0.452056884765625,0.31146240234375,-0.748779296875,-0.18310546875,0.0,0.0,0.4449462890625,-0.800537109375,0.398193359375,-297.0,154.0,-152.0,101700.0,-3.121000051498413,0,0
1.355721200001426,0.371337890625,-0.4520263671875,0.31146240234375,-0.748779296875,0.244140625,0.0,-0.18310546875,0.44677734375,-0.7994384765625,0.3956298828125,-297.0,154.0,-152.0,101700.0,-3.121000051498413,0,0
1.3557880000007572,0.371337890625,-0.452056884765625,0.31146240234375,-0.748779296875,0.0,-0.18310546875,-0.18310546875,0.4451904296875,-0.8011474609375,0.396728515625,-297.0,154.0,-152.0,101700.0,-3.121000051498413,0,0
1.3558472000004258,0.371337890625,-0.452056884765625,0.31146240234375,-0.748779296875,0.1220703125,0.3662109375,-0.30517578125,0.4468994140625,-0.801025390625,0.395751953125,-297.0,154.0,-152.0,101700.0,-3.121000051498413,0,0
1.3559034999925643,0.371337890625,-0.452056884765625,0.31146240234375,-0.748779296875,0.18310546875,0.18310546875,0.1220703125,0.4449462890625,-0.8009033203125,0.3951416015625,-297.0,154.0,-152.0,101700.0,-3.121000051498413,0,0
1.3559589999931632,0.371337890625,-0.452056884765625,0.31146240234375,-0.748779296875,0.06103515625,0.0,-0.1220703125,0.445556640625,-0.8023681640625,0.3958740234375,-297.0,154.0,-152.0,101700.0,-3.121000051498413,0,0
1.356014699995285,0.371337890625,-0.452056884765625,0.31146240234375,-0.748779296875,0.06103515625,-0.1220703125,-0.06103515625,0.444091796875,-0.8016357421875,0.39599609375,-297.0,154.0,-152.0,101700.0,-3.121000051498413,0,0
1.356087199994363,0.371337890625,-0.452056884765625,0.31146240234375,-0.748779296875,0.06103515625,-0.1220703125,-0.06103515625,0.444091796875,-0.8016357421875,0.39599609375,-297.0,154.0,-152.0,101700.0,-3.121000051498413,0,0
1.3561399999889545,0.371337890625,-0.452056884765625,0.31146240234375,-0.748779296875,0.0,0.1220703125,-0.1220703125,0.4476318359375,-0.80029296875,0.39697265625,-297.0,154.0,-152.0,101700.0,-3.121000051498413,0,0
1.3561941999942064,0.371337890625,-0.452056884765625,0.31146240234375,-0.748779296875,-0.1220703125,-0.244140625,-0.1220703125,0.447509765625,-0.801513671875,0.3978271484375,-297.0,154.0,-152.0,101700.0,-3.121000051498413,0,0
1.3562488999887137,0.371337890625,-0.452056884765625,0.31146240234375,-0.748779296875,-0.1220703125,-0.244140625,-0.1220703125,0.447509765625,-0.801513671875,0.3978271484375,-297.0,154.0,-152.0,101700.0,-3.123000144958496,0,0
1.3563029999932041,0.371337890625,-0.452056884765625,0.31146240234375,-0.748779296875,0.0,0.06103515625,-0.06103515625,0.4456787109375,-0.80224609375,0.3956298828125,-297.0,154.0,-152.0,101700.0,-3.123000144958496,0,0
1.3563577000022633,0.371337890625,-0.452056884765625,0.31146240234375,-0.748779296875,0.1220703125,-0.18310546875,-0.244140625,0.44677734375,-0.801513671875,0.396728515625,-297.0,154.0,-152.0,101700.0,-3.123000144958496,0,0
1.3564114999899175,0.371337890625,-0.45208740234375,0.31146240234375,-0.748779296875,0.06103515625,-0.1220703125,-0.1220703125,0.44677734375,-0.8023681640625,0.396240234375,-297.0,154.0,-152.0,101700.0,-3.123000144958496,0,0
1.417138699995121,0.371337890625,-0.452056884765625,0.31146240234375,-0.748779296875,0.18310546875,-0.244140625,-0.18310546875,0.4437255859375,-0.8026123046875,0.3970947265625,-297.0,154.0,-152.0,101700.0,-3.123000144958496,0,0
1.4172035999945365,0.371337890625,-0.452056884765625,0.31146240234375,-0.748779296875,0.18310546875,-0.244140625,-0.18310546875,0.4437255859375,-0.8026123046875,0.3970947265625,-297.0,154.0,-152.0,101700.0,-3.123000144958496,0,0
1.4172639999887906,0.371337890625,-0.452056884765625,0.31146240234375,-0.748779296875,0.0,0.06103515625,-0.1220703125,0.4453125,-0.8028564453125,0.3983154296875,-297.0,154.0,-152.0,101700.0,-3.123000144958496,0,0
1.4173239999945508,0.371337890625,-0.452056884765625,0.31146240234375,-0.748779296875,-0.06103515625,0.0,0.06103515625,0.443115234375,-0.8016357421875,0.3961181640625,-297.0,154.0,-152.0,101700.0,-3.123000144958496,0,0
1.4173814999958267,0.371337890625,-0.452056884765625,0.31146240234375,-0.748779296875,0.1220703125,-0.42724609375,0.1220703125,0.447265625,-0.8021240234375,0.3975830078125,-297.0,154.0,-153.0,101700.0,-3.123000144958496,0,0
1.4201456000009784,0.371337890625,-0.452056884765625,0.31146240234375,-0.748779296875,-0.18310546875,-0.244140625,-0.18310546875,0.4473876953125,-0.8009033203125,0.3968505859375,-297.0,154.0,-153.0,101700.0,-3.123000144958496,0,0
1.4202153999940492,0.371337890625,-0.452056884765625,0.31146240234375,-0.748779296875,0.244140625,-0.06103515625,-0.244140625,0.446044921875,-0.8031005859375,0.3975830078125,-297.0,154.0,-153.0,101700.0,-3.123000144958496,0,0
1.420276599994395,0.371337890625,-0.452056884765625,0.31146240234375,-0.748779296875,0.1220703125,-0.18310546875,-0.06103515625,0.445556640625,-0.80224609375,0.3992919921875,-297.0,154.0,-153.0,101700.0,-3.123000144958496,0,0
1.4203367000009166,0.371337890625,-0.452056884765625,0.31146240234375,-0.748779296875,-0.1220703125,-0.18310546875,-0.06103515625,0.4461669921875,-0.8001708984375,0.3980712890625,-297.0,154.0,-153.0,101700.0,-3.123000144958496,0,0
1.4203935999976238,0.371337890625,-0.452056884765625,0.31146240234375,-0.748779296875,0.3662109375,0.1220703125,0.0,0.4443359375,-0.8016357421875,0.395751953125,-297.0,154.0,-153.0,101700.0,-3.123000144958496,0,0
1.4204510999988997,0.371337890625,-0.452056884765625,0.31146240234375,-0.748779296875,0.3662109375,0.1220703125,0.0,0.4443359375,-0.8016357421875,0.395751953125,-297.0,154.0,-153.0,101700.0,-3.123000144958496,0,0
1.4801138999901013,0.371337890625,-0.452056884765625,0.31146240234375,-0.748779296875,0.0,-0.18310546875,0.0,0.444580078125,-0.803466796875,0.398193359375,-297.0,154.0,-153.0,101700.0,-3.123000144958496,0,0
1.4801850999938324,0.371337890625,-0.452056884765625,0.31146240234375,-0.748779296875,0.0,-0.18310546875,0.0,0.444580078125,-0.803466796875,0.398193359375,-297.0,154.0,-153.0,101700.0,-3.121000051498413,0,0
1.480245400001877,0.371337890625,-0.452056884765625,0.31146240234375,-0.748779296875,0.06103515625,0.0,-0.18310546875,0.4456787109375,-0.80078125,0.396484375,-297.0,154.0,-153.0,101700.0,-3.121000051498413,0,0
1.4803053999930853,0.371337890625,-0.452056884765625,0.31146240234375,-0.748809814453125,0.18310546875,-0.06103515625,-0.1220703125,0.445556640625,-0.80029296875,0.3970947265625,-297.0,154.0,-153.0,101700.0,-3.121000051498413,0,0
1.4803626999928383,0.371337890625,-0.452056884765625,0.31146240234375,-0.748779296875,0.0,0.0,-0.18310546875,0.4437255859375,-0.80126953125,0.3970947265625,-297.0,154.0,-153.0,101700.0,-3.121000051498413,0,0
1.481923100000131,0.371337890625,-0.452056884765625,0.31146240234375,-0.748809814453125,-0.18310546875,-0.244140625,0.06103515625,0.4471435546875,-0.8004150390625,0.397216796875,-297.0,154.0,-153.0,101700.0,-3.121000051498413,0,0
1.4819895999971777,0.371337890625,-0.452056884765625,0.31146240234375,-0.748809814453125,0.1220703125,-0.1220703125,-0.18310546875,0.4437255859375,-0.7996826171875,0.3958740234375,-297.0,154.0,-153.0,101700.0,-3.121000051498413,0,0
1.482046299992362,0.371337890625,-0.452056884765625,0.31146240234375,-0.748809814453125,0.1220703125,-0.1220703125,-0.18310546875,0.4437255859375,-0.7996826171875,0.3958740234375,-297.0,154.0,-153.0,101700.0,-3.121000051498413,0,0
1.4821018999937223,0.371337890625,-0.452056884765625,0.311431884765625,-0.748809814453125,-0.244140625,-0.18310546875,-0.06103515625,0.4443359375,-0.7999267578125,0.3975830078125,-297.0,154.0,-153.0,101700.0,-3.121000051498413,0,0
1.4821593999949982,0.371337890625,-0.452056884765625,0.311431884765625,-0.748809814453125,0.0,-0.1220703125,0.0,0.4447021484375,-0.8023681640625,0.396484375,-297.0,154.0,-153.0,101700.0,-3.121000051498413,0,0
1.482213999988744,0.371337890625,-0.4520263671875,0.311431884765625,-0.748809814453125,0.06103515625,-0.06103515625,0.0,0.4447021484375,-0.8016357421875,0.39892578125,-297.0,154.0,-153.0,101700.0,-3.121000051498413,0,0
1.542977899996913,0.371337890625,-0.4520263671875,0.311431884765625,-0.748809814453125,-0.1220703125,-0.06103515625,0.0,0.446533203125,-0.801025390625,0.397216796875,-297.0,154.0,-153.0,101700.0,-3.121000051498413,0,0
1.543055899994215,0.371368408203125,-0.4520263671875,0.311431884765625,-0.748809814453125,0.244140625,0.0,-0.06103515625,0.44287109375,-0.8013916015625,0.3975830078125,-298.0,153.0,-152.0,101700.0,-3.121000051498413,0,0
1.5431183999899076,0.3714599609375,-0.452056884765625,0.311370849609375,-0.748748779296875,-0.18310546875,0.0,0.0,0.4444580078125,-0.7987060546875,0.396728515625,-298.0,153.0,-152.0,101700.0,-3.121000051498413,0,0
1.543177100000321,0.3714599609375,-0.452056884765625,0.311370849609375,-0.748748779296875,-0.06103515625,-0.06103515625,0.18310546875,0.444091796875,-0.8011474609375,0.3973388671875,-298.0,153.0,-152.0,101700.0,-3.121000051498413,0,0
1.5432349999900907,0.3714599609375,-0.452056884765625,0.311370849609375,-0.748748779296875,0.0,-0.06103515625,-0.06103515625,0.4456787109375,-0.80126953125,0.3973388671875,-298.0,153.0,-152.0,101700.0,-3.121000051498413,0,0
1.5432923999906052,0.3714599609375,-0.452056884765625,0.311370849609375,-0.748748779296875,0.0,-0.06103515625,-0.06103515625,0.4456787109375,-0.80126953125,0.3973388671875,-298.0,153.0,-152.0,101700.0,-3.121000051498413,0,0
1.5434405999985756,0.3714599609375,-0.452056884765625,0.311370849609375,-0.748748779296875,0.18310546875,-0.18310546875,-0.244140625,0.4451904296875,-0.8018798828125,0.3974609375,-298.0,153.0,-152.0,101700.0,-3.121000051498413,0,0
1.5435041000018828,0.3714599609375,-0.452056884765625,0.311370849609375,-0.748748779296875,-0.1220703125,-0.06103515625,-0.1220703125,0.444580078125,-0.800048828125,0.3988037109375,-298.0,153.0,-152.0,101700.0,-3.121000051498413,0,0
1.5435646999976598,0.3714599609375,-0.452056884765625,0.311370849609375,-0.748779296875,0.06103515625,-0.30517578125,0.06103515625,0.445556640625,-0.8001708984375,0.3974609375,-298.0,153.0,-152.0,101700.0,-3.121000051498413,0,0
1.5436199999967357,0.3714599609375,-0.452056884765625,0.311370849609375,-0.748779296875,-0.30517578125,-0.1220703125,0.1220703125,0.44482421875,-0.79931640625,0.3975830078125,-298.0,153.0,-152.0,101700.0,-3.121000051498413,0,0
1.5436763999896357,0.3714599609375,-0.452056884765625,0.311370849609375,-0.748779296875,-0.18310546875,-0.06103515625,0.0,0.4478759765625,-0.8013916015625,0.3974609375,-298.0,153.0,-152.0,101700.0,-3.121000051498413,0,0
1.5437354999885429,0.3714599609375,-0.452056884765625,0.311370849609375,-0.748779296875,0.1220703125,-0.42724609375,0.06103515625,0.4444580078125,-0.8017578125,0.3984375,-298.0,153.0,-152.0,101700.0,-3.122000217437744,0,0
1.5437918999959948,0.3714599609375,-0.452056884765625,0.311370849609375,-0.748779296875,0.18310546875,-0.06103515625,-0.1220703125,0.4459228515625,-0.8037109375,0.39697265625,-298.0,153.0,-152.0,101700.0,-3.122000217437744,0,0
1.6069005000026664,0.3714599609375,-0.4520263671875,0.31134033203125,-0.748779296875,0.1220703125,-0.1220703125,-0.06103515625,0.444580078125,-0.80224609375,0.3974609375,-298.0,153.0,-152.0,101700.0,-3.122000217437744,0,0
1.6069654000020819,0.3714599609375,-0.4520263671875,0.31134033203125,-0.748779296875,0.1220703125,-0.1220703125,-0.06103515625,0.444580078125,-0.80224609375,0.3974609375,-297.0,154.0,-153.0,101700.0,-3.122000217437744,0,0
1.607080899993889,0.3714599609375,-0.4520263671875,0.31134033203125,-0.748779296875,0.30517578125,-0.1220703125,-0.1220703125,0.4456787109375,-0.8011474609375,0.3983154296875,-297.0,154.0,-153.0,101700.0,-3.122000217437744,0,0
1.6071508999884827,0.371368408203125,-0.45196533203125,0.3114013671875,-0.74884033203125,0.48828125,-0.1220703125,0.1220703125,0.446044921875,-0.8038330078125,0.3994140625,-297.0,154.0,-153.0,101700.0,-3.122000217437744,0,0
1.6072156000009272,0.371368408203125,-0.45196533203125,0.3114013671875,-0.74884033203125,0.48828125,-0.1220703125,0.1220703125,0.446044921875,-0.8038330078125,0.3994140625,-297.0,154.0,-153.0,101700.0,-3.122000217437744,0,0
1.6072706999984803,0.371368408203125,-0.45196533203125,0.3114013671875,-0.74884033203125,0.0,-0.06103515625,0.06103515625,0.4442138671875,-0.801513671875,0.3990478515625,-297.0,154.0,-153.0,101700.0,-3.122000217437744,0,0
1.6729456999892136,0.371368408203125,-0.45196533203125,0.3114013671875,-0.748870849609375,-0.18310546875,-0.18310546875,-0.1220703125,0.44384765625,-0.8017578125,0.3975830078125,-297.0,154.0,-153.0,101700.0,-3.122000217437744,0,0
1.673014100000728,0.371368408203125,-0.45196533203125,0.311370849609375,-0.748870849609375,0.0,-0.1220703125,0.06103515625,0.4451904296875,-0.7989501953125,0.3974609375,-297.0,154.0,-153.0,101700.0,-3.122000217437744,0,0
1.673074699996505,0.371368408203125,-0.45196533203125,0.311370849609375,-0.748870849609375,-0.06103515625,0.06103515625,0.0,0.446044921875,-0.80126953125,0.4007568359375,-297.0,154.0,-153.0,101700.0,-3.122000217437744,0,0
1.6731329999893205,0.371368408203125,-0.45196533203125,0.311370849609375,-0.748870849609375,-0.06103515625,-0.1220703125,0.0,0.4443359375,-0.800537109375,0.3983154296875,-297.0,154.0,-153.0,101700.0,-3.122000217437744,0,0
1.6731922999897506,0.371368408203125,-0.45196533203125,0.311370849609375,-0.748870849609375,-0.06103515625,-0.18310546875,-0.1220703125,0.4473876953125,-0.800537109375,0.3970947265625,-297.0,154.0,-153.0,101700.0,-3.122000217437744,0,0
1.6732680999994045,0.371368408203125,-0.45196533203125,0.311370849609375,-0.748870849609375,-0.06103515625,-0.18310546875,-0.06103515625,0.4456787109375,-0.8009033203125,0.3988037109375,-297.0,154.0,-153.0,101700.0,-3.122000217437744,0,0
1.67332789998909,0.371368408203125,-0.45196533203125,0.311370849609375,-0.748870849609375,-0.06103515625,-0.18310546875,-0.06103515625,0.4456787109375,-0.8009033203125,0.3988037109375,-297.0,154.0,-153.0,101700.0,-3.122000217437744,0,0
1.673384099995019,0.371368408203125,-0.45196533203125,0.311370849609375,-0.748870849609375,0.3662109375,0.0,-0.1220703125,0.445556640625,-0.8004150390625,0.398193359375,-297.0,154.0,-153.0,101700.0,-3.122000217437744,0,0
1.6734408999909647,0.371368408203125,-0.451934814453125,0.311370849609375,-0.748870849609375,0.244140625,0.06103515625,-0.06103515625,0.44580078125,-0.8016357421875,0.40087890625,-297.0,154.0,-153.0,101700.0,-3.122000217437744,0,0
1.673498499993002,0.371368408203125,-0.451934814453125,0.31134033203125,-0.7489013671875,0.0,0.0,-0.06103515625,0.4464111328125,-0.8001708984375,0.3974609375,-297.0,154.0,-153.0,101700.0,-3.122000217437744,0,0
1.6735543999966467,0.371368408203125,-0.451934814453125,0.31134033203125,-0.7489013671875,-0.48828125,-0.1220703125,0.1220703125,0.4471435546875,-0.802734375,0.3980712890625,-297.0,154.0,-153.0,101700.0,-3.122000217437744,0,0
1.7311265999887837,0.371368408203125,-0.451934814453125,0.31134033203125,-0.7489013671875,-0.18310546875,0.06103515625,0.0,0.4456787109375,-0.8017578125,0.3966064453125,-297.0,154.0,-153.0,101700.0,-3.122000217437744,0,0
1.7311937999911606,0.371368408203125,-0.451934814453125,0.31134033203125,-0.7489013671875,0.18310546875,-0.1220703125,0.06103515625,0.445068359375,-0.8026123046875,0.400390625,-297.0,154.0,-153.0,101700.0,-3.122000217437744,0,0
1.731253399993875,0.371368408203125,-0.451934814453125,0.31134033203125,-0.7489013671875,-0.06103515625,0.0,0.06103515625,0.4432373046875,-0.8016357421875,0.398681640625,-297.0,154.0,-153.0,101700.0,-3.122000217437744,0,0
1.731312199990498,0.37139892578125,-0.451904296875,0.31134033203125,-0.7489013671875,0.1220703125,0.0,0.1220703125,0.4423828125,-0.801513671875,0.398681640625,-297.0,153.0,-151.0,101700.0,-3.122000217437744,0,0
1.731369299988728,0.37139892578125,-0.451904296875,0.31134033203125,-0.7489013671875,0.1220703125,0.0,0.1220703125,0.4423828125,-0.801513671875,0.398681640625,-297.0,153.0,-151.0,101700.0,-3.122000217437744,0,0
1.7314268999907654,0.37139892578125,-0.451904296875,0.31134033203125,-0.7489013671875,0.0,-0.244140625,0.0,0.4447021484375,-0.80029296875,0.399658203125,-297.0,153.0,-151.0,101700.0,-3.122000217437744,0,0
1.7314832999982173,0.37139892578125,-0.451904296875,0.31134033203125,-0.7489013671875,0.06103515625,-0.30517578125,-0.244140625,0.446044921875,-0.8023681640625,0.399169921875,-297.0,153.0,-151.0,101700.0,-3.122000217437744,0,0
1.7319892999948934,0.37139892578125,-0.451904296875,0.31134033203125,-0.7489013671875,0.30517578125,-0.06103515625,0.1220703125,0.44482421875,-0.8009033203125,0.3974609375,-297.0,153.0,-151.0,101700.0,-3.122000217437744,0,0
1.7321003999968525,0.37139892578125,-0.451904296875,0.31134033203125,-0.7489013671875,-0.1220703125,0.0,-0.06103515625,0.4449462890625,-0.8021240234375,0.3984375,-297.0,153.0,-151.0,101700.0,-3.122000217437744,0,0
1.7321601000003284,0.37139892578125,-0.451904296875,0.31134033203125,-0.7489013671875,0.244140625,-0.30517578125,0.06103515625,0.4468994140625,-0.802734375,0.3994140625,-297.0,153.0,-151.0,101700.0,-3.122000217437744,0,0
1.7322176000016043,0.37139892578125,-0.451873779296875,0.31134033203125,-0.7489013671875,0.06103515625,-0.06103515625,-0.18310546875,0.4425048828125,-0.8018798828125,0.398193359375,-297.0,153.0,-151.0,101700.0,-3.122000217437744,0,0
1.7322763999982271,0.37139892578125,-0.451873779296875,0.31134033203125,-0.7489013671875,-0.06103515625,-0.1220703125,0.0,0.4432373046875,-0.8009033203125,0.3974609375,-297.0,153.0,-151.0,101700.0,-3.122000217437744,0,0
1.732331899998826,0.37139892578125,-0.451873779296875,0.31134033203125,-0.7489013671875,0.0,-0.18310546875,0.06103515625,0.4466552734375,-0.8023681640625,0.3985595703125,-297.0,153.0,-151.0,101700.0,-3.122000217437744,0,0
1.8115938999981154,0.37139892578125,-0.451873779296875,0.311309814453125,-0.748931884765625,0.06103515625,-0.1220703125,-0.1220703125,0.446533203125,-0.8009033203125,0.39990234375,-297.0,153.0,-151.0,101700.0,-3.123000144958496,0,0
1.8116615999897476,0.37139892578125,-0.451873779296875,0.311309814453125,-0.748931884765625,0.1220703125,0.0,-0.1220703125,0.445068359375,-0.800048828125,0.3980712890625,-297.0,153.0,-151.0,101700.0,-3.123000144958496,0,0
1.8117216999962693,0.37139892578125,-0.451873779296875,0.311309814453125,-0.748931884765625,0.06103515625,0.06103515625,-0.1220703125,0.4439697265625,-0.80224609375,0.3984375,-297.0,153.0,-151.0,101700.0,-3.123000144958496,0,0
1.8117797000013525,0.37139892578125,-0.451873779296875,0.311309814453125,-0.748931884765625,-0.06103515625,0.1220703125,-0.1220703125,0.4444580078125,-0.8031005859375,0.399658203125,-297.0,153.0,-151.0,101700.0,-3.123000144958496,0,0
1.8118384999979753,0.37139892578125,-0.451873779296875,0.311309814453125,-0.748931884765625,-0.06103515625,-0.30517578125,0.18310546875,0.4473876953125,-0.803955078125,0.3992919921875,-297.0,153.0,-151.0,101700.0,-3.123000144958496,0,0
1.8119142999930773,0.37139892578125,-0.451873779296875,0.311309814453125,-0.748931884765625,0.18310546875,-0.1220703125,-0.18310546875,0.44482421875,-0.801513671875,0.3990478515625,-297.0,153.0,-151.0,101700.0,-3.123000144958496,0,0
1.8119717999943532,0.37139892578125,-0.45184326171875,0.311309814453125,-0.748931884765625,-0.1220703125,-0.06103515625,-0.18310546875,0.445556640625,-0.8021240234375,0.4005126953125,-297.0,153.0,-151.0,101700.0,-3.123000144958496,0,0
1.8120308999932604,0.371429443359375,-0.45184326171875,0.311309814453125,-0.748931884765625,-0.06103515625,0.1220703125,-0.06103515625,0.4442138671875,-0.8028564453125,0.401123046875,-297.0,153.0,-151.0,101700.0,-3.123000144958496,0,0
1.8120875000022352,0.371429443359375,-0.45184326171875,0.311309814453125,-0.748931884765625,-0.06103515625,0.1220703125,-0.06103515625,0.4442138671875,-0.8028564453125,0.401123046875,-297.0,153.0,-151.0,101700.0,-3.123000144958496,0,0
1.812144099996658,0.371429443359375,-0.45184326171875,0.311309814453125,-0.74896240234375,0.06103515625,-0.1220703125,-0.30517578125,0.446044921875,-0.801025390625,0.4014892578125,-297.0,152.0,-151.0,101700.0,-3.123000144958496,0,0
1.8122017999994569,0.371429443359375,-0.45184326171875,0.311309814453125,-0.74896240234375,0.0,-0.06103515625,0.06103515625,0.44482421875,-0.802001953125,0.3988037109375,-297.0,152.0,-151.0,101700.0,-3.123000144958496,0,0
1.858727099999669,0.371429443359375,-0.451812744140625,0.311309814453125,-0.74896240234375,0.06103515625,-0.1220703125,-0.244140625,0.4461669921875,-0.80224609375,0.4000244140625,-297.0,152.0,-151.0,101700.0,-3.123000144958496,0,0
1.8587892999930773,0.371429443359375,-0.451812744140625,0.311309814453125,-0.74896240234375,-0.06103515625,-0.06103515625,-0.1220703125,0.4437255859375,-0.80078125,0.39892578125,-297.0,152.0,-151.0,101700.0,-3.123000144958496,0,0
1.8588454999990063,0.371429443359375,-0.451812744140625,0.311279296875,-0.74896240234375,0.244140625,0.1220703125,0.1220703125,0.4454345703125,-0.802001953125,0.3984375,-297.0,152.0,-151.0,101700.0,-3.123000144958496,0,0
1.8589009999996051,0.371429443359375,-0.451812744140625,0.311279296875,-0.74896240234375,-0.244140625,0.18310546875,-0.18310546875,0.4473876953125,-0.8006591796875,0.398681640625,-297.0,152.0,-151.0,101700.0,-3.123000144958496,0,0
1.8589558999956353,0.371429443359375,-0.451812744140625,0.311279296875,-0.74896240234375,0.244140625,0.244140625,-0.244140625,0.445068359375,-0.8031005859375,0.3980712890625,-297.0,152.0,-151.0,101700.0,-3.123000144958496,0,0
1.8599108999915188,0.371429443359375,-0.451812744140625,0.311279296875,-0.74896240234375,0.244140625,0.244140625,-0.244140625,0.445068359375,-0.8031005859375,0.3980712890625,-297.0,152.0,-151.0,101700.0,-3.123000144958496,0,0
1.859969999990426,0.371429443359375,-0.451812744140625,0.311279296875,-0.74896240234375,0.1220703125,-0.1220703125,-0.06103515625,0.4434814453125,-0.8004150390625,0.4005126953125,-297.0,152.0,-151.0,101700.0,-3.122000217437744,0,0
1.8600238999933936,0.371429443359375,-0.451812744140625,0.311279296875,-0.74896240234375,0.0,-0.18310546875,0.0,0.4461669921875,-0.8018798828125,0.398681640625,-297.0,152.0,-151.0,101700.0,-3.122000217437744,0,0
1.8600766000017757,0.371429443359375,-0.4517822265625,0.311279296875,-0.74896240234375,-0.06103515625,-0.06103515625,-0.06103515625,0.4449462890625,-0.80322265625,0.397216796875,-297.0,152.0,-151.0,101700.0,-3.122000217437744,0,0
1.8601305999909528,0.371429443359375,-0.451812744140625,0.311309814453125,-0.74896240234375,0.06103515625,-0.1220703125,0.18310546875,0.445068359375,-0.8026123046875,0.3963623046875,-297.0,152.0,-151.0,101700.0,-3.122000217437744,0,0
1.8601826999947662,0.371429443359375,-0.4517822265625,0.311309814453125,-0.74896240234375,0.06103515625,0.06103515625,-0.1220703125,0.443359375,-0.80078125,0.3974609375,-297.0,152.0,-151.0,101700.0,-3.122000217437744,0,0
1.9246910999936517,0.371429443359375,-0.4517822265625,0.311309814453125,-0.74896240234375,0.0,0.0,0.0,0.4429931640625,-0.799560546875,0.3974609375,-297.0,152.0,-151.0,101700.0,-3.122000217437744,0,0
1.9247586999990745,0.371429443359375,-0.4517822265625,0.311279296875,-0.74896240234375,0.1220703125,0.06103515625,-0.18310546875,0.444580078125,-0.7994384765625,0.3983154296875,-297.0,152.0,-151.0,101700.0,-3.122000217437744,0,0
1.9253564999962691,0.371429443359375,-0.4517822265625,0.311279296875,-0.748992919921875,-0.1220703125,-0.1220703125,0.0,0.446044921875,-0.7994384765625,0.3992919921875,-297.0,152.0,-151.0,101700.0,-3.122000217437744,0,0
1.925432499992894,0.371429443359375,-0.4517822265625,0.311279296875,-0.748992919921875,-0.1220703125,-0.1220703125,0.0,0.446044921875,-0.7994384765625,0.3992919921875,-297.0,152.0,-151.0,101700.0,-3.122000217437744,0,0
1.9254911000025459,0.371429443359375,-0.4517822265625,0.311279296875,-0.748992919921875,0.18310546875,-0.06103515625,-0.18310546875,0.444580078125,-0.801513671875,0.399658203125,-297.0,152.0,-151.0,101700.0,-3.122000217437744,0,0
1.925543799996376,0.371429443359375,-0.4517822265625,0.311279296875,-0.748992919921875,-0.06103515625,-0.18310546875,-0.06103515625,0.4459228515625,-0.801025390625,0.3975830078125,-297.0,154.0,-151.0,101700.0,-3.122000217437744,0,0
1.9255960000009509,0.3714599609375,-0.4517822265625,0.311279296875,-0.748992919921875,0.0,0.06103515625,0.1220703125,0.443603515625,-0.8016357421875,0.3975830078125,-297.0,154.0,-151.0,101700.0,-3.122000217437744,0,0
1.9257012000016402,0.371429443359375,-0.4517822265625,0.311279296875,-0.748992919921875,-0.244140625,-0.06103515625,-0.244140625,0.4471435546875,-0.7996826171875,0.4000244140625,-297.0,154.0,-151.0,101700.0,-3.122000217437744,0,0
1.9257532999909017,0.3714599609375,-0.451751708984375,0.311279296875,-0.748992919921875,-0.1220703125,0.0,0.0,0.4459228515625,-0.801513671875,0.4002685546875,-297.0,154.0,-151.0,101700.0,-3.122000217437744,0,0
1.9258064000023296,0.3714599609375,-0.451751708984375,0.311248779296875,-0.748992919921875,0.1220703125,0.0,0.06103515625,0.4442138671875,-0.8009033203125,0.399658203125,-297.0,154.0,-151.0,101700.0,-3.122000217437744,0,0
1.9258949999930337,0.3714599609375,-0.451751708984375,0.311248779296875,-0.748992919921875,-0.06103515625,0.1220703125,0.1220703125,0.4459228515625,-0.80224609375,0.3990478515625,-297.0,154.0,-151.0,101700.0,-3.122000217437744,0,0
1.9259519999905024,0.3714599609375,-0.451751708984375,0.311248779296875,-0.748992919921875,-0.18310546875,0.06103515625,0.06103515625,0.447265625,-0.801513671875,0.397216796875,-297.0,154.0,-151.0,101700.0,-3.122000217437744,0,0
1.9260076999926241,0.3714599609375,-0.451751708984375,0.311248779296875,-0.748992919921875,0.1220703125,0.0,0.06103515625,0.4447021484375,-0.8011474609375,0.4002685546875,-297.0,154.0,-151.0,101700.0,-3.122000217437744,0,0
1.9904248999955598,0.3714599609375,-0.451751708984375,0.311248779296875,-0.7490234375,-0.1220703125,-0.244140625,0.0,0.4456787109375,-0.8035888671875,0.40087890625,-297.0,154.0,-151.0,101700.0,-3.123000144958496,0,0
1.9904909999895608,0.3714599609375,-0.451751708984375,0.311248779296875,-0.748992919921875,0.1220703125,0.1220703125,0.0,0.44482421875,-0.8037109375,0.3970947265625,-297.0,154.0,-151.0,101700.0,-3.123000144958496,0,0
1.9905472999962512,0.3714599609375,-0.451751708984375,0.311248779296875,-0.748992919921875,0.06103515625,0.0,0.244140625,0.4468994140625,-0.8006591796875,0.398193359375,-297.0,154.0,-151.0,101700.0,-3.123000144958496,0,0
1.9906039999914356,0.3714599609375,-0.451751708984375,0.311248779296875,-0.7490234375,0.0,0.06103515625,0.1220703125,0.444580078125,-0.8011474609375,0.3995361328125,-297.0,154.0,-151.0,101700.0,-3.123000144958496,0,0
1.9906592999905115,0.3714599609375,-0.451751708984375,0.311248779296875,-0.7490234375,-0.1220703125,0.0,0.0,0.4461669921875,-0.80029296875,0.401123046875,-297.0,154.0,-151.0,101700.0,-3.123000144958496,0,0
1.9907296000019414,0.3714599609375,-0.45172119140625,0.311248779296875,-0.7490234375,-0.244140625,-0.244140625,0.06103515625,0.445068359375,-0.80126953125,0.4013671875,-297.0,154.0,-151.0,101700.0,-3.123000144958496,0,0
1.990782599998056,0.3714599609375,-0.45172119140625,0.311248779296875,-0.7490234375,0.1220703125,0.18310546875,0.06103515625,0.443603515625,-0.8009033203125,0.3983154296875,-297.0,154.0,-151.0,101700.0,-3.123000144958496,0,0
1.9908367000025464,0.3714599609375,-0.45172119140625,0.311248779296875,-0.7490234375,0.1220703125,0.18310546875,0.06103515625,0.443603515625,-0.8009033203125,0.3983154296875,-297.0,154.0,-151.0,101700.0,-3.123000144958496,0,0
1.990888599990285,0.3714599609375,-0.45172119140625,0.311248779296875,-0.7490234375,0.06103515625,0.0,-0.06103515625,0.4439697265625,-0.801513671875,0.4005126953125,-297.0,154.0,-151.0,101700.0,-3.123000144958496,0,0
1.990940599993337,0.3714599609375,-0.45172119140625,0.311248779296875,-0.7490234375,0.06103515625,0.0,-0.06103515625,0.4439697265625,-0.801513671875,0.4005126953125,-297.0,154.0,-151.0,101700.0,-3.123000144958496,0,0
1.9909926999971503,0.3714599609375,-0.45172119140625,0.311248779296875,-0.7490234375,-0.1220703125,0.0,-0.244140625,0.4453125,-0.801513671875,0.3978271484375,-297.0,154.0,-151.0,101700.0,-3.123000144958496,0,0
2.0518935000000056,0.3714599609375,-0.45172119140625,0.311248779296875,-0.7490234375,-0.06103515625,-0.06103515625,0.1220703125,0.4451904296875,-0.802978515625,0.4002685546875,-297.0,154.0,-151.0,101700.0,-3.123000144958496,0,0
2.0519579999963753,0.3714599609375,-0.45172119140625,0.311248779296875,-0.7490234375,0.1220703125,-0.30517578125,0.06103515625,0.447998046875,-0.8043212890625,0.3988037109375,-297.0,154.0,-151.0,101700.0,-3.123000144958496,0,0
2.0520152999961283,0.3714599609375,-0.45172119140625,0.31121826171875,-0.7490234375,-0.244140625,-0.1220703125,0.1220703125,0.4451904296875,-0.80078125,0.4000244140625,-297.0,154.0,-151.0,101700.0,-3.123000144958496,0,0
2.05206809999072,0.3714599609375,-0.45172119140625,0.31121826171875,-0.7490234375,0.1220703125,-0.06103515625,-0.244140625,0.4447021484375,-0.80078125,0.4002685546875,-297.0,154.0,-151.0,101700.0,-3.123000144958496,0,0
2.052126099995803,0.3714599609375,-0.45172119140625,0.31121826171875,-0.7490234375,0.1220703125,-0.06103515625,-0.244140625,0.4447021484375,-0.80078125,0.4002685546875,-297.0,154.0,-151.0,101700.0,-3.123000144958496,0,0
2.0528524999972433,0.3714599609375,-0.451690673828125,0.31121826171875,-0.7490234375,0.06103515625,-0.1220703125,0.1220703125,0.4451904296875,-0.8018798828125,0.39990234375,-297.0,154.0,-151.0,101700.0,-3.123000144958496,0,0
2.052913499996066,0.3714599609375,-0.451690673828125,0.311248779296875,-0.7490234375,0.42724609375,0.06103515625,-0.244140625,0.4443359375,-0.8038330078125,0.3988037109375,-297.0,154.0,-151.0,101700.0,-3.123000144958496,0,0
2.052967700001318,0.3714599609375,-0.451690673828125,0.311248779296875,-0.7490234375,0.1220703125,0.0,0.06103515625,0.443603515625,-0.8021240234375,0.398193359375,-297.0,154.0,-151.0,101700.0,-3.123000144958496,0,0
2.0530213000020012,0.3714599609375,-0.451690673828125,0.31121826171875,-0.7490234375,0.06103515625,-0.30517578125,-0.18310546875,0.4471435546875,-0.8017578125,0.3995361328125,-297.0,154.0,-151.0,101700.0,-3.123000144958496,0,0
2.0530747000011615,0.371490478515625,-0.451690673828125,0.31121826171875,-0.7490234375,0.0,0.06103515625,-0.244140625,0.4442138671875,-0.8018798828125,0.3985595703125,-297.0,154.0,-151.0,101700.0,-3.123000144958496,0,0
2.053127499995753,0.371490478515625,-0.451690673828125,0.31121826171875,-0.749053955078125,0.3662109375,0.06103515625,-0.06103515625,0.443603515625,-0.8033447265625,0.400390625,-297.0,154.0,-151.0,101700.0,-3.123000144958496,0,0
2.1159640999976546,0.371490478515625,-0.45166015625,0.31121826171875,-0.749053955078125,0.06103515625,0.0,0.06103515625,0.4456787109375,-0.8017578125,0.4012451171875,-297.0,154.0,-151.0,101700.0,-3.123000144958496,0,0
2.1160268999956315,0.371490478515625,-0.45166015625,0.31121826171875,-0.749053955078125,0.18310546875,0.1220703125,-0.18310546875,0.4447021484375,-0.8018798828125,0.400634765625,-297.0,154.0,-151.0,101700.0,-3.123000144958496,0,0
2.1160837999923388,0.371490478515625,-0.45166015625,0.31121826171875,-0.749053955078125,0.18310546875,0.1220703125,-0.18310546875,0.4447021484375,-0.8018798828125,0.400634765625,-297.0,154.0,-151.0,101700.0,-3.123000144958496,0,0
2.1161386000021594,0.371490478515625,-0.45166015625,0.31121826171875,-0.749053955078125,-0.1220703125,-0.18310546875,-0.244140625,0.4442138671875,-0.80224609375,0.4002685546875,-297.0,154.0,-151.0,101700.0,-3.123000144958496,0,0
2.1161940000019968,0.371490478515625,-0.45166015625,0.31121826171875,-0.749053955078125,0.18310546875,-0.18310546875,-0.06103515625,0.4456787109375,-0.8023681640625,0.39892578125,-297.0,154.0,-151.0,101700.0,-3.123000144958496,0,0
2.11624689999735,0.371490478515625,-0.45166015625,0.31121826171875,-0.749053955078125,-0.18310546875,0.0,-0.3662109375,0.441162109375,-0.8009033203125,0.398681640625,-297.0,154.0,-151.0,101700.0,-3.123000144958496,0,0
2.1163005999987945,0.371490478515625,-0.45166015625,0.31121826171875,-0.749053955078125,0.1220703125,-0.06103515625,0.0,0.4461669921875,-0.8001708984375,0.400146484375,-297.0,154.0,-151.0,101700.0,-3.123000144958496,0,0
2.1165771999949357,0.37158203125,-0.451690673828125,0.3111572265625,-0.7490234375,0.0,0.06103515625,0.0,0.44677734375,-0.798095703125,0.39892578125,-297.0,155.0,-152.0,101700.0,-3.123000144958496,0,0
2.1166388999990886,0.37158203125,-0.451690673828125,0.3111572265625,-0.7490234375,-0.06103515625,0.06103515625,0.06103515625,0.4447021484375,-0.8038330078125,0.399169921875,-297.0,155.0,-152.0,101700.0,-3.123000144958496,0,0
2.1166946000012103,0.37158203125,-0.451690673828125,0.3111572265625,-0.7490234375,-0.06103515625,-0.18310546875,0.0,0.44580078125,-0.8018798828125,0.399169921875,-297.0,155.0,-152.0,101700.0,-3.123000144958496,0,0
2.116748699991149,0.37158203125,-0.451690673828125,0.3111572265625,-0.7490234375,0.0,0.0,0.0,0.4437255859375,-0.8026123046875,0.3975830078125,-297.0,155.0,-152.0,101700.0,-3.123000144958496,0,0
2.1168025999941165,0.37158203125,-0.451690673828125,0.3111572265625,-0.7490234375,0.1220703125,-0.06103515625,-0.30517578125,0.4468994140625,-0.802001953125,0.3995361328125,-297.0,155.0,-152.0,101700.0,-3.123000144958496,0,0
2.1168548999994528,0.37158203125,-0.451690673828125,0.3111572265625,-0.7490234375,0.1220703125,-0.06103515625,-0.30517578125,0.4468994140625,-0.802001953125,0.3995361328125,-297.0,155.0,-152.0,101700.0,-3.123000144958496,0,0
2.1880565999890678,0.371612548828125,-0.451690673828125,0.311126708984375,-0.7490234375,0.06103515625,-0.244140625,-0.06103515625,0.4462890625,-0.8028564453125,0.39892578125,-297.0,155.0,-152.0,101700.0,-3.123000144958496,0,0
2.1881181999924593,0.371612548828125,-0.451690673828125,0.311126708984375,-0.7490234375,0.06103515625,-0.244140625,-0.06103515625,0.4462890625,-0.8028564453125,0.39892578125,-297.0,155.0,-152.0,101700.0,-3.122000217437744,0,0
2.1881733999907738,0.371612548828125,-0.451690673828125,0.311126708984375,-0.7490234375,0.0,-0.1220703125,-0.1220703125,0.44580078125,-0.8017578125,0.3983154296875,-297.0,155.0,-152.0,101700.0,-3.122000217437744,0,0
2.1882284000021173,0.371612548828125,-0.451690673828125,0.3111572265625,-0.7490234375,0.18310546875,0.1220703125,-0.18310546875,0.44580078125,-0.80224609375,0.3984375,-297.0,155.0,-152.0,101700.0,-3.122000217437744,0,0
2.1882823999912944,0.371612548828125,-0.451690673828125,0.3111572265625,-0.7490234375,-0.18310546875,0.0,-0.1220703125,0.445068359375,-0.80126953125,0.39697265625,-297.0,155.0,-152.0,101700.0,-3.122000217437744,0,0
2.189847399989958,0.371612548828125,-0.451690673828125,0.3111572265625,-0.7490234375,-0.06103515625,-0.18310546875,-0.244140625,0.444580078125,-0.8011474609375,0.3990478515625,-297.0,155.0,-152.0,101700.0,-3.122000217437744,0,0
2.1899094999971567,0.371612548828125,-0.451690673828125,0.3111572265625,-0.7490234375,-0.06103515625,-0.18310546875,-0.244140625,0.444580078125,-0.8011474609375,0.3990478515625,-297.0,155.0,-152.0,101700.0,-3.122000217437744,0,0
2.190152199997101,0.371612548828125,-0.451690673828125,0.311126708984375,-0.7490234375,0.18310546875,-0.06103515625,0.0,0.4451904296875,-0.8004150390625,0.39892578125,-297.0,155.0,-152.0,101700.0,-3.122000217437744,0,0
2.190214799993555,0.371612548828125,-0.45166015625,0.311126708984375,-0.7490234375,0.0,-0.06103515625,0.0,0.4462890625,-0.8021240234375,0.39794921875,-297.0,155.0,-152.0,101700.0,-3.122000217437744,0,0
2.1902695999888238,0.371612548828125,-0.45166015625,0.311126708984375,-0.7490234375,0.1220703125,0.0,-0.06103515625,0.4444580078125,-0.802734375,0.4002685546875,-297.0,155.0,-152.0,101700.0,-3.122000217437744,0,0
2.19032339999103,0.371612548828125,-0.45166015625,0.311126708984375,-0.7490234375,0.0,-0.06103515625,-0.1220703125,0.446533203125,-0.801025390625,0.39990234375,-297.0,155.0,-152.0,101700.0,-3.122000217437744,0,0
2.2427223999984562,0.371612548828125,-0.45166015625,0.311126708984375,-0.7490234375,-0.1220703125,0.06103515625,-0.06103515625,0.4471435546875,-0.802734375,0.3985595703125,-296.0,154.0,-152.0,101700.0,-3.122000217437744,0,0
2.242782299988903,0.371612548828125,-0.45166015625,0.311126708984375,-0.7490234375,0.18310546875,0.18310546875,0.1220703125,0.447265625,-0.80078125,0.3995361328125,-296.0,154.0,-152.0,101700.0,-3.122000217437744,0,0
2.242836899997201,0.371612548828125,-0.45166015625,0.311126708984375,-0.7490234375,0.18310546875,0.18310546875,0.1220703125,0.447265625,-0.80078125,0.3995361328125,-296.0,154.0,-152.0,101700.0,-3.122000217437744,0,0
2.242889599991031,0.371612548828125,-0.45166015625,0.311126708984375,-0.7490234375,0.18310546875,0.18310546875,0.1220703125,0.447265625,-0.80078125,0.3995361328125,-296.0,154.0,-152.0,101700.0,-3.122000217437744,0,0
2.242941799995606,0.371612548828125,-0.45166015625,0.311126708984375,-0.7490234375,-0.1220703125,0.0,-0.06103515625,0.4459228515625,-0.80322265625,0.3980712890625,-296.0,154.0,-152.0,101700.0,-3.122000217437744,0,0
2.2431325999932596,0.371612548828125,-0.45166015625,0.311126708984375,-0.7490234375,-0.06103515625,-0.06103515625,-0.1220703125,0.445068359375,-0.8038330078125,0.3985595703125,-296.0,154.0,-152.0,101700.0,-3.122000217437744,0,0
2.2431924999982584,0.371612548828125,-0.45166015625,0.311126708984375,-0.7490234375,-0.06103515625,-0.06103515625,-0.1220703125,0.445068359375,-0.8038330078125,0.3985595703125,-296.0,154.0,-152.0,101700.0,-3.122000217437744,0,0
2.2432485000026645,0.371612548828125,-0.45166015625,0.311126708984375,-0.749053955078125,0.06103515625,-0.1220703125,0.06103515625,0.4444580078125,-0.8018798828125,0.399658203125,-296.0,154.0,-152.0,101700.0,-3.122000217437744,0,0
2.2433018000010634,0.371612548828125,-0.45166015625,0.311126708984375,-0.749053955078125,0.06103515625,-0.06103515625,-0.1220703125,0.4447021484375,-0.8011474609375,0.399658203125,-296.0,154.0,-152.0,101700.0,-3.121000051498413,0,0
2.2433546999964165,0.371612548828125,-0.45166015625,0.31109619140625,-0.749053955078125,-0.06103515625,0.06103515625,0.06103515625,0.447509765625,-0.80029296875,0.399658203125,-296.0,154.0,-152.0,101700.0,-3.121000051498413,0,0
2.2434082999970997,0.371612548828125,-0.45166015625,0.31109619140625,-0.749053955078125,-0.1220703125,0.0,0.06103515625,0.444091796875,-0.802001953125,0.39892578125,-296.0,154.0,-152.0,101700.0,-3.121000051498413,0,0
2.243460600002436,0.371612548828125,-0.45166015625,0.31109619140625,-0.749053955078125,-0.06103515625,-0.1220703125,0.06103515625,0.4471435546875,-0.80126953125,0.3984375,-296.0,154.0,-152.0,101700.0,-3.121000051498413,0,0
2.3111784999928204,0.371612548828125,-0.45166015625,0.31109619140625,-0.749053955078125,-0.06103515625,-0.1220703125,0.06103515625,0.4471435546875,-0.80126953125,0.3984375,-296.0,154.0,-152.0,101700.0,-3.121000051498413,0,0
2.3112419999961276,0.37158203125,-0.45166015625,0.31109619140625,-0.749053955078125,0.1220703125,-0.1220703125,-0.06103515625,0.4462890625,-0.7982177734375,0.397216796875,-296.0,154.0,-152.0,101700.0,-3.121000051498413,0,0
2.3112989999935962,0.371612548828125,-0.45166015625,0.31109619140625,-0.749053955078125,0.18310546875,-0.06103515625,-0.06103515625,0.444091796875,-0.8011474609375,0.3988037109375,-296.0,154.0,-152.0,101700.0,-3.121000051498413,0,0
2.3113545999949565,0.371612548828125,-0.45166015625,0.31109619140625,-0.749053955078125,0.1220703125,0.0,0.1220703125,0.445068359375,-0.802978515625,0.3966064453125,-296.0,154.0,-152.0,101700.0,-3.121000051498413,0,0
2.3114090000017313,0.371612548828125,-0.45166015625,0.31109619140625,-0.749053955078125,-0.06103515625,-0.1220703125,-0.1220703125,0.44384765625,-0.7998046875,0.3980712890625,-296.0,154.0,-152.0,101700.0,-3.121000051498413,0,0
2.311467099993024,0.371612548828125,-0.45166015625,0.31109619140625,-0.749053955078125,0.1220703125,-0.06103515625,0.0,0.44482421875,-0.80224609375,0.399169921875,-296.0,154.0,-152.0,101700.0,-3.121000051498413,0,0
2.311721899997792,0.371612548828125,-0.45166015625,0.31109619140625,-0.749053955078125,0.18310546875,-0.06103515625,-0.1220703125,0.4473876953125,-0.8009033203125,0.3983154296875,-296.0,154.0,-152.0,101700.0,-3.121000051498413,0,0
2.3117787999944994,0.37158203125,-0.45166015625,0.31109619140625,-0.749053955078125,0.18310546875,-0.06103515625,-0.06103515625,0.4456787109375,-0.8001708984375,0.3980712890625,-296.0,154.0,-152.0,101700.0,-3.121000051498413,0,0
2.311833799991291,0.371612548828125,-0.45166015625,0.31109619140625,-0.749053955078125,0.30517578125,-0.1220703125,0.06103515625,0.444580078125,-0.7999267578125,0.399169921875,-296.0,154.0,-152.0,101700.0,-3.121000051498413,0,0
2.3118889999896055,0.371612548828125,-0.45166015625,0.31109619140625,-0.749053955078125,-0.18310546875,-0.1220703125,-0.18310546875,0.447265625,-0.80126953125,0.4000244140625,-296.0,154.0,-152.0,101700.0,-3.121000051498413,0,0
2.3119425999902887,0.371612548828125,-0.45166015625,0.31109619140625,-0.749053955078125,-0.18310546875,-0.1220703125,-0.18310546875,0.447265625,-0.80126953125,0.4000244140625,-296.0,154.0,-152.0,101700.0,-3.121000051498413,0,0
2.3119980999908876,0.371612548828125,-0.45166015625,0.311065673828125,-0.749053955078125,0.06103515625,-0.1220703125,-0.18310546875,0.4464111328125,-0.8016357421875,0.3995361328125,-296.0,154.0,-152.0,101700.0,-3.121000051498413,0,0
2.3747079000022495,0.371612548828125,-0.45166015625,0.31109619140625,-0.749053955078125,0.06103515625,-0.18310546875,-0.06103515625,0.44580078125,-0.80224609375,0.3988037109375,-296.0,154.0,-152.0,101700.0,-3.121000051498413,0,0
2.374770800000988,0.371612548828125,-0.45166015625,0.31109619140625,-0.749053955078125,0.1220703125,-0.1220703125,-0.18310546875,0.4451904296875,-0.802001953125,0.3970947265625,-296.0,154.0,-152.0,101700.0,-3.121000051498413,0,0
2.3748266999900807,0.371612548828125,-0.45166015625,0.31109619140625,-0.749053955078125,0.1220703125,-0.30517578125,0.0,0.4454345703125,-0.8011474609375,0.39794921875,-296.0,154.0,-152.0,101700.0,-3.121000051498413,0,0
2.374880999996094,0.371612548828125,-0.45166015625,0.31109619140625,-0.749053955078125,0.0,-0.06103515625,0.06103515625,0.4461669921875,-0.8021240234375,0.398193359375,-296.0,154.0,-152.0,101700.0,-3.123000144958496,0,0
2.3749357999913627,0.371612548828125,-0.45166015625,0.31109619140625,-0.749053955078125,0.0,0.1220703125,0.1220703125,0.444580078125,-0.801513671875,0.3984375,-296.0,154.0,-152.0,101700.0,-3.123000144958496,0,0
2.3757623999990756,0.371612548828125,-0.45166015625,0.31109619140625,-0.749053955078125,0.0,0.1220703125,0.1220703125,0.444580078125,-0.801513671875,0.3984375,-296.0,154.0,-152.0,101700.0,-3.123000144958496,0,0
2.3758199000003515,0.37158203125,-0.45166015625,0.31109619140625,-0.749053955078125,0.06103515625,0.18310546875,-0.1220703125,0.447265625,-0.8001708984375,0.3973388671875,-296.0,154.0,-152.0,101700.0,-3.123000144958496,0,0
2.3758737000025576,0.37158203125,-0.45166015625,0.31109619140625,-0.749053955078125,0.3662109375,0.0,-0.18310546875,0.446533203125,-0.8017578125,0.3995361328125,-296.0,154.0,-152.0,101700.0,-3.123000144958496,0,0
2.375930599999265,0.37158203125,-0.45166015625,0.31109619140625,-0.749053955078125,0.0,-0.42724609375,-0.1220703125,0.4432373046875,-0.8009033203125,0.3983154296875,-296.0,154.0,-152.0,101700.0,-3.123000144958496,0,0
2.375983699996141,0.37158203125,-0.45166015625,0.31109619140625,-0.749053955078125,0.06103515625,-0.06103515625,0.1220703125,0.4466552734375,-0.8026123046875,0.397216796875,-296.0,154.0,-152.0,101700.0,-3.123000144958496,0,0
2.376036899993778,0.37158203125,-0.45166015625,0.31109619140625,-0.749053955078125,0.0,-0.1220703125,0.0,0.44677734375,-0.80224609375,0.399169921875,-296.0,154.0,-152.0,101700.0,-3.123000144958496,0,0
2.4378619999915827,0.37158203125,-0.45166015625,0.311065673828125,-0.749053955078125,0.3662109375,0.0,-0.06103515625,0.4461669921875,-0.8037109375,0.3992919921875,-296.0,154.0,-152.0,101700.0,-3.123000144958496,0,0
2.437932999993791,0.37158203125,-0.45166015625,0.311065673828125,-0.749053955078125,0.3662109375,0.0,-0.06103515625,0.4461669921875,-0.8037109375,0.3992919921875,-296.0,154.0,-152.0,101700.0,-3.123000144958496,0,0
2.4379897999897366,0.3717041015625,-0.451690673828125,0.311004638671875,-0.7490234375,0.0,0.06103515625,-0.06103515625,0.44580078125,-0.80322265625,0.400146484375,-297.0,152.0,-151.0,101700.0,-3.123000144958496,0,0
2.438042800000403,0.3717041015625,-0.451690673828125,0.311004638671875,-0.7490234375,0.244140625,-0.1220703125,0.0,0.443115234375,-0.7998046875,0.3990478515625,-297.0,152.0,-151.0,101700.0,-3.123000144958496,0,0
2.4380935999943176,0.3717041015625,-0.451690673828125,0.311004638671875,-0.7490234375,0.0,-0.06103515625,0.0,0.4456787109375,-0.80078125,0.398681640625,-297.0,152.0,-151.0,101700.0,-3.123000144958496,0,0
2.439220000000205,0.3717041015625,-0.451690673828125,0.311004638671875,-0.7490234375,0.30517578125,-0.1220703125,-0.30517578125,0.4447021484375,-0.7989501953125,0.399169921875,-297.0,152.0,-151.0,101700.0,-3.123000144958496,0,0
2.4392719000024954,0.3717041015625,-0.451690673828125,0.311004638671875,-0.7490234375,0.06103515625,0.1220703125,0.0,0.4451904296875,-0.80078125,0.4002685546875,-297.0,152.0,-151.0,101700.0,-3.123000144958496,0,0
2.4393258999916725,0.3717041015625,-0.451690673828125,0.311004638671875,-0.7490234375,0.1220703125,0.06103515625,-0.1220703125,0.4447021484375,-0.8006591796875,0.39892578125,-297.0,152.0,-151.0,101700.0,-3.123000144958496,0,0
2.439377799993963,0.3717041015625,-0.451690673828125,0.311004638671875,-0.7490234375,0.18310546875,-0.06103515625,-0.06103515625,0.44482421875,-0.8023681640625,0.3975830078125,-297.0,152.0,-151.0,101700.0,-3.123000144958496,0,0
2.439429099991685,0.3717041015625,-0.451690673828125,0.311004638671875,-0.7490234375,-0.1220703125,0.06103515625,-0.1220703125,0.4466552734375,-0.8033447265625,0.3983154296875,-297.0,152.0,-151.0,101700.0,-3.123000144958496,0,0
2.4394799000001512,0.3717041015625,-0.451690673828125,0.311004638671875,-0.7490234375,0.18310546875,-0.30517578125,0.1220703125,0.4461669921875,-0.8021240234375,0.399658203125,-297.0,152.0,-151.0,101700.0,-3.121000051498413,0,0
2.43953249999322,0.3717041015625,-0.451690673828125,0.311004638671875,-0.7490234375,0.18310546875,-0.30517578125,0.1220703125,0.4461669921875,-0.8021240234375,0.399658203125,-297.0,152.0,-151.0,101700.0,-3.121000051498413,0,0
2.5001459999912186,0.3717041015625,-0.451690673828125,0.311004638671875,-0.7490234375,0.06103515625,-0.18310546875,-0.06103515625,0.4462890625,-0.80078125,0.3975830078125,-297.0,152.0,-151.0,101700.0,-3.121000051498413,0,0
2.5002076999953715,0.371673583984375,-0.451690673828125,0.311004638671875,-0.7490234375,0.1220703125,0.0,-0.06103515625,0.4468994140625,-0.80029296875,0.3990478515625,-297.0,152.0,-151.0,101700.0,-3.121000051498413,0,0
2.5002639000013005,0.371673583984375,-0.451690673828125,0.311004638671875,-0.7490234375,0.1220703125,-0.06103515625,-0.06103515625,0.44580078125,-0.8016357421875,0.3978271484375,-297.0,152.0,-151.0,101700.0,-3.121000051498413,0,0
2.5004544999974314,0.3717041015625,-0.451690673828125,0.311004638671875,-0.7490234375,0.0,-0.06103515625,0.244140625,0.44482421875,-0.8023681640625,0.39990234375,-297.0,152.0,-151.0,101700.0,-3.121000051498413,0,0
2.5005166999908397,0.3717041015625,-0.451690673828125,0.311004638671875,-0.7490234375,-0.18310546875,-0.3662109375,-0.1220703125,0.4439697265625,-0.8033447265625,0.3980712890625,-297.0,152.0,-151.0,101700.0,-3.121000051498413,0,0
2.5005722999922,0.3717041015625,-0.451690673828125,0.311004638671875,-0.7490234375,0.18310546875,-0.18310546875,0.0,0.4439697265625,-0.8026123046875,0.39892578125,-297.0,152.0,-151.0,101700.0,-3.121000051498413,0,0
2.5006424999883166,0.3717041015625,-0.451690673828125,0.311004638671875,-0.7490234375,0.0,-0.18310546875,-0.244140625,0.4459228515625,-0.80078125,0.3988037109375,-297.0,152.0,-151.0,101700.0,-3.121000051498413,0,0
2.5006970999966143,0.3717041015625,-0.45166015625,0.311004638671875,-0.7490234375,-0.244140625,-0.18310546875,-0.18310546875,0.4437255859375,-0.8016357421875,0.399169921875,-297.0,152.0,-151.0,101700.0,-3.121000051498413,0,0
2.5007511000003433,0.3717041015625,-0.45166015625,0.311004638671875,-0.7490234375,-0.244140625,-0.18310546875,-0.18310546875,0.4437255859375,-0.8016357421875,0.399169921875,-297.0,152.0,-151.0,101700.0,-3.121000051498413,0,0
2.500804800001788,0.3717041015625,-0.45166015625,0.311004638671875,-0.7490234375,0.06103515625,0.0,0.0,0.4437255859375,-0.802001953125,0.397216796875,-296.0,151.0,-152.0,101700.0,-3.121000051498413,0,0
2.500857199993334,0.371612548828125,-0.451629638671875,0.311065673828125,-0.74908447265625,0.18310546875,0.0,0.1220703125,0.44482421875,-0.8013916015625,0.3992919921875,-296.0,151.0,-152.0,101700.0,-3.121000051498413,0,0
2.500911199997063,0.371612548828125,-0.451629638671875,0.311065673828125,-0.74908447265625,0.1220703125,-0.1220703125,-0.244140625,0.4459228515625,-0.8009033203125,0.3984375,-296.0,151.0,-152.0,101700.0,-3.121000051498413,0,0
2.5644810999947367,0.371612548828125,-0.451629638671875,0.311065673828125,-0.74908447265625,0.1220703125,0.18310546875,0.0,0.4459228515625,-0.80126953125,0.399169921875,-296.0,151.0,-152.0,101700.0,-3.121000051498413,0,0
2.564543100001174,0.371612548828125,-0.451629638671875,0.311065673828125,-0.74908447265625,0.06103515625,-0.06103515625,-0.1220703125,0.446044921875,-0.8017578125,0.3980712890625,-296.0,151.0,-152.0,101700.0,-3.121000051498413,0,0
2.5646760999952676,0.371612548828125,-0.451629638671875,0.311065673828125,-0.74908447265625,-0.06103515625,-0.244140625,-0.1220703125,0.4476318359375,-0.8013916015625,0.3990478515625,-296.0,151.0,-152.0,101700.0,-3.121000051498413,0,0
2.5647375999978976,0.371612548828125,-0.451629638671875,0.311065673828125,-0.74908447265625,-0.1220703125,-0.06103515625,-0.06103515625,0.444580078125,-0.8031005859375,0.399169921875,-296.0,151.0,-152.0,101700.0,-3.121000051498413,0,0
2.5671869999932824,0.371612548828125,-0.451629638671875,0.311065673828125,-0.74908447265625,-0.1220703125,-0.06103515625,-0.06103515625,0.444580078125,-0.8031005859375,0.399169921875,-296.0,151.0,-152.0,101700.0,-3.121000051498413,0,0
2.5674756999942474,0.371612548828125,-0.451629638671875,0.311065673828125,-0.74908447265625,0.06103515625,-0.1220703125,-0.18310546875,0.4459228515625,-0.80322265625,0.400390625,-296.0,151.0,-152.0,101700.0,-3.121000051498413,0,0
2.5675365999923088,0.371612548828125,-0.45159912109375,0.311065673828125,-0.74908447265625,-0.06103515625,0.06103515625,0.06103515625,0.4443359375,-0.8006591796875,0.3990478515625,-296.0,151.0,-152.0,101700.0,-3.121000051498413,0,0
2.5675909999990836,0.371612548828125,-0.45159912109375,0.311065673828125,-0.74908447265625,-0.06103515625,-0.244140625,0.1220703125,0.4443359375,-0.8026123046875,0.4000244140625,-296.0,151.0,-152.0,101700.0,-3.121000051498413,0,0
2.5676438999944367,0.371612548828125,-0.45159912109375,0.31103515625,-0.749114990234375,-0.06103515625,-0.18310546875,0.0,0.4468994140625,-0.80126953125,0.4007568359375,-296.0,151.0,-152.0,101700.0,-3.121000051498413,0,0
2.567695499994443,0.371612548828125,-0.45159912109375,0.31103515625,-0.749114990234375,0.0,-0.244140625,0.06103515625,0.4439697265625,-0.8035888671875,0.3995361328125,-296.0,151.0,-152.0,101700.0,-3.121000051498413,0,0
2.567748399989796,0.371612548828125,-0.45159912109375,0.31103515625,-0.749114990234375,0.06103515625,-0.06103515625,-0.06103515625,0.4468994140625,-0.8017578125,0.399169921875,-296.0,151.0,-152.0,101700.0,-3.121000051498413,0,0
2.567799999989802,0.371612548828125,-0.45159912109375,0.31103515625,-0.749114990234375,0.06103515625,0.0,-0.18310546875,0.4462890625,-0.801025390625,0.3995361328125,-296.0,151.0,-152.0,101700.0,-3.121000051498413,0,0
2.6249502999999095,0.371612548828125,-0.451568603515625,0.31103515625,-0.749114990234375,0.0,-0.18310546875,-0.1220703125,0.4447021484375,-0.8001708984375,0.40185546875,-296.0,151.0,-152.0,101700.0,-3.121000051498413,0,0
2.625023299988243,0.371612548828125,-0.451568603515625,0.31103515625,-0.749114990234375,-0.30517578125,0.0,-0.06103515625,0.4447021484375,-0.7999267578125,0.40185546875,-297.0,149.0,-151.0,101700.0,-3.123000144958496,0,0
2.625141700002132,0.371612548828125,-0.451568603515625,0.31103515625,-0.749114990234375,-0.18310546875,0.0,-0.1220703125,0.4453125,-0.80224609375,0.4000244140625,-297.0,149.0,-151.0,101700.0,-3.123000144958496,0,0
2.6252029000024777,0.371612548828125,-0.451568603515625,0.311004638671875,-0.749114990234375,0.06103515625,0.1220703125,0.18310546875,0.44677734375,-0.7991943359375,0.3985595703125,-297.0,149.0,-151.0,101700.0,-3.123000144958496,0,0
2.628990099998191,0.371612548828125,-0.451568603515625,0.311004638671875,-0.749114990234375,-0.18310546875,-0.18310546875,0.0,0.4468994140625,-0.80126953125,0.3992919921875,-297.0,149.0,-151.0,101700.0,-3.123000144958496,0,0
2.6290522999915993,0.371612548828125,-0.451568603515625,0.311004638671875,-0.7491455078125,0.244140625,-0.18310546875,-0.244140625,0.445556640625,-0.8017578125,0.3994140625,-297.0,149.0,-151.0,101700.0,-3.123000144958496,0,0
2.6291070000006584,0.371612548828125,-0.451568603515625,0.311004638671875,-0.7491455078125,0.06103515625,-0.244140625,-0.244140625,0.4456787109375,-0.802490234375,0.4002685546875,-297.0,149.0,-151.0,101700.0,-3.123000144958496,0,0
2.6291629999905126,0.371612548828125,-0.451568603515625,0.311004638671875,-0.7491455078125,-0.244140625,-0.06103515625,-0.06103515625,0.445068359375,-0.8026123046875,0.3983154296875,-297.0,149.0,-151.0,101700.0,-3.123000144958496,0,0
2.6292193999979645,0.371612548828125,-0.451568603515625,0.311004638671875,-0.7491455078125,-0.244140625,0.30517578125,0.06103515625,0.446044921875,-0.800048828125,0.4027099609375,-297.0,149.0,-151.0,101700.0,-3.123000144958496,0,0
2.6292739999917103,0.371612548828125,-0.451568603515625,0.311004638671875,-0.7491455078125,-0.244140625,0.30517578125,0.06103515625,0.446044921875,-0.800048828125,0.4027099609375,-297.0,149.0,-151.0,101700.0,-3.123000144958496,0,0
2.6293289000022924,0.371612548828125,-0.451568603515625,0.311004638671875,-0.7491455078125,0.244140625,0.1220703125,0.06103515625,0.44677734375,-0.8031005859375,0.4005126953125,-297.0,149.0,-151.0,101700.0,-3.123000144958496,0,0
2.69986149999022,0.371612548828125,-0.4515380859375,0.311004638671875,-0.7491455078125,0.18310546875,-0.06103515625,-0.06103515625,0.445556640625,-0.8021240234375,0.400146484375,-297.0,149.0,-151.0,101700.0,-3.123000144958496,0,0
2.699929099995643,0.371612548828125,-0.4515380859375,0.311004638671875,-0.7491455078125,0.1220703125,-0.1220703125,-0.3662109375,0.443603515625,-0.801513671875,0.401123046875,-297.0,149.0,-151.0,101700.0,-3.123000144958496,0,0
2.6999862999946345,0.37164306640625,-0.4515380859375,0.311004638671875,-0.7491455078125,-0.1220703125,-0.1220703125,0.0,0.445556640625,-0.8031005859375,0.4007568359375,-297.0,149.0,-151.0,101700.0,-3.123000144958496,0,0
2.700511999995797,0.37164306640625,-0.4515380859375,0.311004638671875,-0.7491455078125,0.06103515625,0.18310546875,-0.1220703125,0.4454345703125,-0.8026123046875,0.398193359375,-297.0,149.0,-151.0,101700.0,-3.123000144958496,0,0
2.7005766999936895,0.37164306640625,-0.4515380859375,0.311004638671875,-0.7491455078125,-0.06103515625,-0.06103515625,-0.06103515625,0.44287109375,-0.8017578125,0.39892578125,-297.0,149.0,-151.0,101700.0,-3.123000144958496,0,0
2.7006346999987727,0.37164306640625,-0.4515380859375,0.311004638671875,-0.7491455078125,0.30517578125,-0.06103515625,0.0,0.4451904296875,-0.800537109375,0.4002685546875,-297.0,149.0,-151.0,101700.0,-3.123000144958496,0,0
2.7125947999884374,0.37164306640625,-0.4515380859375,0.311004638671875,-0.7491455078125,0.1220703125,-0.06103515625,0.18310546875,0.445068359375,-0.80224609375,0.399658203125,-297.0,149.0,-151.0,101700.0,-3.123000144958496,0,0
2.7126594000001205,0.37164306640625,-0.4515380859375,0.311004638671875,-0.7491455078125,0.1220703125,-0.06103515625,0.18310546875,0.445068359375,-0.80224609375,0.399658203125,-297.0,149.0,-151.0,101700.0,-3.123000144958496,0,0
2.712716399997589,0.37164306640625,-0.451507568359375,0.31097412109375,-0.749176025390625,0.42724609375,-0.06103515625,0.1220703125,0.4462890625,-0.802978515625,0.39990234375,-297.0,149.0,-151.0,101700.0,-3.123000144958496,0,0
2.7131245999917155,0.37164306640625,-0.4515380859375,0.31097412109375,-0.749176025390625,-0.06103515625,0.0,0.06103515625,0.447021484375,-0.8009033203125,0.39892578125,-297.0,149.0,-151.0,101700.0,-3.123000144958496,0,0
2.713190399997984,0.37164306640625,-0.451507568359375,0.31097412109375,-0.749176025390625,-0.06103515625,0.06103515625,0.0,0.4449462890625,-0.80078125,0.400390625,-297.0,149.0,-151.0,101700.0,-3.123000144958496,0,0
2.7132484999892768,0.37164306640625,-0.451507568359375,0.31097412109375,-0.749176025390625,0.18310546875,-0.244140625,-0.18310546875,0.4447021484375,-0.7999267578125,0.3997802734375,-296.0,150.0,-152.0,101700.0,-3.122000217437744,0,0
2.7133024999930058,0.37164306640625,-0.451507568359375,0.31097412109375,-0.749176025390625,0.42724609375,-0.18310546875,0.0,0.445068359375,-0.8011474609375,0.4002685546875,-296.0,150.0,-152.0,101700.0,-3.122000217437744,0,0
2.755270699999528,0.37164306640625,-0.451507568359375,0.31097412109375,-0.749176025390625,-0.06103515625,0.0,-0.06103515625,0.4468994140625,-0.8018798828125,0.4000244140625,-296.0,150.0,-152.0,101700.0,-3.122000217437744,0,0
2.7553403999918373,0.37164306640625,-0.451507568359375,0.31097412109375,-0.749176025390625,-0.06103515625,0.0,-0.06103515625,0.4451904296875,-0.8013916015625,0.3978271484375,-296.0,150.0,-152.0,101700.0,-3.122000217437744,0,0
2.7553978999931132,0.37164306640625,-0.451507568359375,0.31097412109375,-0.749176025390625,-0.06103515625,0.0,-0.06103515625,0.4451904296875,-0.8013916015625,0.3978271484375,-296.0,150.0,-152.0,101700.0,-3.122000217437744,0,0
2.7554538999975193,0.37164306640625,-0.451507568359375,0.31097412109375,-0.749176025390625,0.244140625,0.0,0.1220703125,0.447265625,-0.801513671875,0.400146484375,-296.0,150.0,-152.0,101700.0,-3.122000217437744,0,0
2.7565348999924026,0.37164306640625,-0.451507568359375,0.31097412109375,-0.749176025390625,0.0,-0.18310546875,-0.1220703125,0.4461669921875,-0.8011474609375,0.400634765625,-296.0,150.0,-152.0,101700.0,-3.122000217437744,0,0
2.7565974999888567,0.37164306640625,-0.451507568359375,0.31097412109375,-0.749176025390625,-0.18310546875,0.06103515625,0.0,0.44482421875,-0.8006591796875,0.39990234375,-296.0,150.0,-152.0,101700.0,-3.122000217437744,0,0
2.7566518999956315,0.37164306640625,-0.451507568359375,0.31097412109375,-0.749176025390625,0.48828125,0.06103515625,0.0,0.4471435546875,-0.8017578125,0.398193359375,-296.0,150.0,-152.0,101700.0,-3.122000217437744,0,0
2.7567047999909846,0.37164306640625,-0.451507568359375,0.31097412109375,-0.749176025390625,0.30517578125,0.06103515625,-0.1220703125,0.446533203125,-0.8031005859375,0.39892578125,-296.0,150.0,-152.0,101700.0,-3.122000217437744,0,0
2.7567591999977594,0.37164306640625,-0.451507568359375,0.31097412109375,-0.749176025390625,0.30517578125,0.0,0.06103515625,0.4451904296875,-0.802001953125,0.40087890625,-296.0,150.0,-152.0,101700.0,-3.122000217437744,0,0
2.7568118999915896,0.37164306640625,-0.451507568359375,0.31097412109375,-0.749176025390625,0.0,0.1220703125,-0.1220703125,0.4466552734375,-0.801513671875,0.399658203125,-296.0,150.0,-152.0,101700.0,-3.122000217437744,0,0
2.756862199996249,0.37164306640625,-0.451507568359375,0.31097412109375,-0.749176025390625,0.06103515625,-0.18310546875,-0.30517578125,0.4466552734375,-0.8038330078125,0.4005126953125,-296.0,150.0,-152.0,101700.0,-3.122000217437744,0,0
2.822126400002162,0.37164306640625,-0.45147705078125,0.31097412109375,-0.749176025390625,0.244140625,0.0,0.1220703125,0.443115234375,-0.8023681640625,0.4000244140625,-296.0,150.0,-152.0,101700.0,-3.122000217437744,0,0
2.822188799997093,0.37164306640625,-0.45147705078125,0.310943603515625,-0.749176025390625,-0.30517578125,0.06103515625,-0.06103515625,0.4456787109375,-0.8016357421875,0.4002685546875,-296.0,150.0,-152.0,101700.0,-3.122000217437744,0,0
2.822243899994646,0.37164306640625,-0.45147705078125,0.310943603515625,-0.749176025390625,0.0,-0.1220703125,-0.244140625,0.44580078125,-0.801025390625,0.3992919921875,-296.0,150.0,-152.0,101700.0,-3.122000217437744,0,0
2.822296699989238,0.37164306640625,-0.45147705078125,0.310943603515625,-0.749176025390625,0.0,-0.1220703125,-0.244140625,0.44580078125,-0.801025390625,0.3992919921875,-296.0,151.0,-151.0,101700.0,-3.125000238418579,0,0
2.8223501999891596,0.37164306640625,-0.45147705078125,0.310943603515625,-0.74920654296875,0.06103515625,0.18310546875,0.0,0.4442138671875,-0.7999267578125,0.400146484375,-296.0,151.0,-151.0,101700.0,-3.125000238418579,0,0
2.8230385999922873,0.371551513671875,-0.451446533203125,0.311004638671875,-0.749237060546875,0.1220703125,-0.18310546875,-0.1220703125,0.4462890625,-0.8017578125,0.398193359375,-296.0,151.0,-151.0,101700.0,-3.125000238418579,0,0
2.8230923999944935,0.371551513671875,-0.451446533203125,0.311004638671875,-0.749237060546875,0.0,0.0,-0.06103515625,0.4473876953125,-0.8006591796875,0.398193359375,-296.0,151.0,-151.0,101700.0,-3.125000238418579,0,0
2.823146499998984,0.371551513671875,-0.451446533203125,0.311004638671875,-0.749237060546875,-0.244140625,-0.06103515625,0.0,0.4453125,-0.8016357421875,0.3997802734375,-296.0,151.0,-151.0,101700.0,-3.125000238418579,0,0
2.82320030000119,0.371551513671875,-0.451446533203125,0.311004638671875,-0.749237060546875,-0.244140625,-0.06103515625,0.0,0.4453125,-0.8016357421875,0.3997802734375,-296.0,151.0,-151.0,101700.0,-3.125000238418579,0,0
2.8232527999934973,0.371551513671875,-0.451446533203125,0.311004638671875,-0.749237060546875,-0.3662109375,-0.18310546875,0.06103515625,0.446533203125,-0.8037109375,0.4000244140625,-296.0,151.0,-151.0,101700.0,-3.125000238418579,0,0
2.8247185999935027,0.371551513671875,-0.451446533203125,0.311004638671875,-0.749237060546875,-0.06103515625,-0.30517578125,-0.1220703125,0.4456787109375,-0.80224609375,0.3983154296875,-296.0,151.0,-151.0,101700.0,-3.125000238418579,0,0
2.884680199989816,0.371551513671875,-0.451446533203125,0.311004638671875,-0.749237060546875,0.18310546875,0.0,-0.42724609375,0.44580078125,-0.8001708984375,0.4012451171875,-296.0,151.0,-151.0,101700.0,-3.125000238418579,0,0
2.8872827000013785,0.371551513671875,-0.451446533203125,0.311004638671875,-0.749267578125,0.06103515625,-0.244140625,-0.244140625,0.445556640625,-0.8017578125,0.3995361328125,-296.0,151.0,-151.0,101700.0,-3.125000238418579,0,0
2.8873629000008805,0.371551513671875,-0.451446533203125,0.311004638671875,-0.749267578125,-0.06103515625,0.0,-0.1220703125,0.4466552734375,-0.7999267578125,0.3984375,-296.0,151.0,-151.0,101700.0,-3.125000238418579,0,0
2.887421899999026,0.371551513671875,-0.451446533203125,0.31097412109375,-0.749267578125,0.1220703125,-0.18310546875,-0.1220703125,0.44970703125,-0.8001708984375,0.400146484375,-296.0,151.0,-151.0,101700.0,-3.125000238418579,0,0
2.887476699994295,0.37152099609375,-0.451446533203125,0.31097412109375,-0.749267578125,-0.18310546875,-0.18310546875,-0.06103515625,0.4449462890625,-0.7998046875,0.396728515625,-296.0,151.0,-151.0,101700.0,-3.125000238418579,0,0
2.8875313000025926,0.371551513671875,-0.451446533203125,0.311004638671875,-0.749267578125,0.06103515625,-0.1220703125,-0.06103515625,0.444580078125,-0.8031005859375,0.3995361328125,-296.0,151.0,-151.0,101700.0,-3.125000238418579,0,0
2.887610899997526,0.371551513671875,-0.451446533203125,0.311004638671875,-0.749267578125,0.06103515625,-0.1220703125,-0.06103515625,0.444580078125,-0.8031005859375,0.3995361328125,-296.0,151.0,-151.0,101700.0,-3.125000238418579,0,0
2.8876636999921175,0.37152099609375,-0.451446533203125,0.311004638671875,-0.749237060546875,-0.18310546875,-0.1220703125,-0.06103515625,0.4461669921875,-0.8011474609375,0.3973388671875,-296.0,151.0,-151.0,101700.0,-3.125000238418579,0,0
2.887717599995085,0.371551513671875,-0.451446533203125,0.311004638671875,-0.749237060546875,0.1220703125,-0.06103515625,0.06103515625,0.4449462890625,-0.8026123046875,0.3975830078125,-296.0,151.0,-151.0,101700.0,-3.125000238418579,0,0
2.887770699991961,0.37152099609375,-0.451446533203125,0.311004638671875,-0.749237060546875,-0.06103515625,0.06103515625,0.06103515625,0.446044921875,-0.79931640625,0.3970947265625,-296.0,151.0,-151.0,101700.0,-3.125000238418579,0,0
2.8878243999934057,0.37152099609375,-0.451446533203125,0.311004638671875,-0.749237060546875,0.18310546875,0.06103515625,0.06103515625,0.4454345703125,-0.8023681640625,0.3990478515625,-296.0,151.0,-151.0,101700.0,-3.125000238418579,0,0
2.8878778999933274,0.37152099609375,-0.451446533203125,0.311004638671875,-0.749237060546875,-0.06103515625,-0.06103515625,0.1220703125,0.4461669921875,-0.802734375,0.4000244140625,-296.0,151.0,-151.0,101700.0,-3.125000238418579,0,0
2.8879326000023866,0.371551513671875,-0.451446533203125,0.311004638671875,-0.749237060546875,0.1220703125,0.0,0.0,0.443359375,-0.802734375,0.39892578125,-296.0,151.0,-151.0,101700.0,-3.124000072479248,0,0
2.948191699993913,0.371551513671875,-0.451446533203125,0.311004638671875,-0.749237060546875,0.06103515625,0.1220703125,-0.06103515625,0.444580078125,-0.802734375,0.39794921875,-296.0,150.0,-151.0,101700.0,-3.124000072479248,0,0
2.9482539000018733,0.371551513671875,-0.451446533203125,0.311004638671875,-0.749237060546875,0.06103515625,0.1220703125,-0.06103515625,0.444580078125,-0.802734375,0.39794921875,-296.0,150.0,-151.0,101700.0,-3.124000072479248,0,0
2.948308899998665,0.371551513671875,-0.451446533203125,0.311004638671875,-0.749237060546875,0.0,0.0,0.0,0.4453125,-0.80322265625,0.398681640625,-296.0,150.0,-151.0,101700.0,-3.124000072479248,0,0
2.948362499999348,0.37152099609375,-0.45147705078125,0.311004638671875,-0.749237060546875,0.0,0.0,0.1220703125,0.4461669921875,-0.8004150390625,0.3983154296875,-296.0,150.0,-151.0,101700.0,-3.124000072479248,0,0
