Time stamp(sec),adc1,adc2,roll_angular_rate,pitch_angular_rate,yaw_angular_rate,acc_X,acc_Y,acc_Z,mag_X,mag_Y,mag_Z,pressure,altitude
0.02780219999840483,0.36920166015625,-0.450592041015625,0.312347412109375,-0.7503662109375,0.1220703125,-0.18310546875,0.0,0.447021484375,-0.8018798828125,0.39990234375,-295.0,153.0,-152.0,101701.0,-3.125000238418579,0,0
0.027871400001458824,0.36920166015625,-0.4505615234375,0.312347412109375,-0.7503662109375,-0.1220703125,-0.18310546875,-0.1220703125,0.444091796875,-0.8028564453125,0.39990234375,-295.0,153.0,-152.0,101701.0,-3.125000238418579,0,0
0.027929400006541982,0.36920166015625,-0.4505615234375,0.312347412109375,-0.7503662109375,-0.06103515625,-0.06103515625,-0.18310546875,0.4462890625,-0.8017578125,0.3990478515625,-295.0,153.0,-152.0,101701.0,-3.125000238418579,0,0
0.027982500003417954,0.36920166015625,-0.4505615234375,0.312347412109375,-0.7503662109375,-0.244140625,0.0,-0.244140625,0.4451904296875,-0.8018798828125,0.3990478515625,-295.0,153.0,-152.0,101701.0,-3.125000238418579,0,0
0.028039800003170967,0.36920166015625,-0.4505615234375,0.312347412109375,-0.7503662109375,-0.244140625,0.0,-0.244140625,0.4451904296875,-0.8018798828125,0.3990478515625,-295.0,153.0,-152.0,101701.0,-3.125000238418579,0,0
0.02809259999776259,0.36920166015625,-0.4505615234375,0.312347412109375,-0.7503662109375,0.06103515625,-0.18310546875,-0.06103515625,0.4444580078125,-0.8013916015625,0.3970947265625,-295.0,153.0,-152.0,101701.0,-3.125000238418579,0,0
0.028145499993115664,0.36920166015625,-0.4505615234375,0.312347412109375,-0.7503662109375,0.18310546875,-0.06103515625,-0.1220703125,0.4464111328125,-0.80322265625,0.3990478515625,-295.0,153.0,-152.0,101701.0,-3.125000238418579,0,0
0.02825499999744352,0.36920166015625,-0.4505615234375,0.312347412109375,-0.7503662109375,0.3662109375,0.06103515625,-0.1220703125,0.4468994140625,-0.80224609375,0.3984375,-295.0,153.0,-152.0,101701.0,-3.125000238418579,0,0
0.028308599998126738,0.36920166015625,-0.4505615234375,0.312347412109375,-0.7503662109375,0.06103515625,-0.244140625,-0.1220703125,0.4451904296875,-0.8013916015625,0.3990478515625,-295.0,153.0,-152.0,101701.0,-3.125000238418579,0,0
0.028362199998809956,0.36920166015625,-0.4505615234375,0.312347412109375,-0.7503662109375,0.18310546875,-0.06103515625,-0.18310546875,0.4451904296875,-0.800537109375,0.3983154296875,-294.0,154.0,-151.0,101701.0,-3.125000238418579,0,0
0.02841630000330042,0.36920166015625,-0.4505615234375,0.312347412109375,-0.7503662109375,-0.1220703125,-0.1220703125,-0.244140625,0.4437255859375,-0.8016357421875,0.3995361328125,-294.0,154.0,-151.0,101701.0,-3.125000238418579,0,0
0.028469500000937842,0.369293212890625,-0.45062255859375,0.312286376953125,-0.750335693359375,0.1220703125,0.06103515625,0.06103515625,0.447265625,-0.8009033203125,0.3988037109375,-294.0,154.0,-151.0,101701.0,-3.125000238418579,0,0
0.028522499997052364,0.369293212890625,-0.45062255859375,0.312286376953125,-0.750335693359375,0.1220703125,-0.30517578125,-0.244140625,0.44677734375,-0.80029296875,0.3985595703125,-294.0,154.0,-151.0,101701.0,-3.125000238418579,0,0
0.09520100000372622,0.369293212890625,-0.45062255859375,0.312286376953125,-0.750335693359375,-0.1220703125,0.0,-0.06103515625,0.446044921875,-0.8001708984375,0.3968505859375,-294.0,154.0,-151.0,101701.0,-3.125000238418579,0,0
0.0952677000022959,0.369293212890625,-0.45062255859375,0.312255859375,-0.750335693359375,0.1220703125,0.0,0.06103515625,0.4462890625,-0.801513671875,0.3984375,-294.0,154.0,-151.0,101701.0,-3.125000238418579,0,0
0.09532550000585616,0.369293212890625,-0.45062255859375,0.312255859375,-0.750335693359375,-0.1220703125,-0.06103515625,0.06103515625,0.447998046875,-0.8033447265625,0.3994140625,-294.0,154.0,-151.0,101701.0,-3.125000238418579,0,0
0.09538260000408627,0.369293212890625,-0.45062255859375,0.312286376953125,-0.750335693359375,0.18310546875,-0.06103515625,-0.06103515625,0.446044921875,-0.802001953125,0.398681640625,-294.0,154.0,-151.0,101701.0,-3.125000238418579,0,0
0.09543800000392366,0.369293212890625,-0.45062255859375,0.312286376953125,-0.750335693359375,0.1220703125,0.18310546875,-0.06103515625,0.4432373046875,-0.8031005859375,0.3997802734375,-294.0,154.0,-151.0,101701.0,-3.125000238418579,0,0
0.09551590000046417,0.369293212890625,-0.45062255859375,0.312286376953125,-0.750335693359375,0.06103515625,-0.18310546875,0.1220703125,0.446044921875,-0.801025390625,0.3990478515625,-294.0,154.0,-151.0,101701.0,-3.125000238418579,0,0
0.09557010000571609,0.369293212890625,-0.45062255859375,0.312286376953125,-0.750335693359375,0.18310546875,-0.1220703125,0.0,0.447265625,-0.8031005859375,0.3994140625,-294.0,154.0,-151.0,101701.0,-3.125000238418579,0,0
0.09562429999641608,0.369293212890625,-0.45062255859375,0.312286376953125,-0.750335693359375,-0.18310546875,-0.3662109375,-0.1220703125,0.4454345703125,-0.8016357421875,0.400390625,-294.0,154.0,-151.0,101701.0,-3.125000238418579,0,0
0.09567759999481495,0.369293212890625,-0.45062255859375,0.312286376953125,-0.750335693359375,-0.18310546875,-0.3662109375,-0.1220703125,0.4454345703125,-0.8016357421875,0.400390625,-294.0,154.0,-151.0,101701.0,-3.125000238418579,0,0
0.0957332999969367,0.369293212890625,-0.45062255859375,0.312286376953125,-0.750335693359375,0.1220703125,-0.06103515625,0.06103515625,0.4451904296875,-0.8021240234375,0.399658203125,-294.0,154.0,-151.0,101701.0,-3.125000238418579,0,0
0.09578629999305122,0.369293212890625,-0.45062255859375,0.312286376953125,-0.750335693359375,-0.18310546875,-0.244140625,-0.1220703125,0.4447021484375,-0.802001953125,0.4000244140625,-294.0,154.0,-151.0,101701.0,-3.125000238418579,0,0
0.1543686999939382,0.369293212890625,-0.45062255859375,0.312286376953125,-0.750335693359375,0.18310546875,0.0,-0.1220703125,0.4464111328125,-0.7999267578125,0.3975830078125,-294.0,154.0,-151.0,101701.0,-3.125000238418579,0,0
0.1544335999933537,0.369293212890625,-0.45062255859375,0.312255859375,-0.750335693359375,-0.1220703125,0.1220703125,-0.06103515625,0.4483642578125,-0.8016357421875,0.3995361328125,-294.0,154.0,-151.0,101701.0,-3.126000165939331,0,0
0.15449030000308994,0.369293212890625,-0.45062255859375,0.312255859375,-0.750335693359375,0.244140625,-0.1220703125,0.0,0.4473876953125,-0.80078125,0.398193359375,-295.0,153.0,-151.0,101701.0,-3.126000165939331,0,0
0.15454410000529606,0.369293212890625,-0.45062255859375,0.312255859375,-0.750335693359375,0.0,-0.06103515625,0.0,0.447265625,-0.802490234375,0.3980712890625,-295.0,153.0,-151.0,101701.0,-3.126000165939331,0,0
0.15459849999751896,0.369293212890625,-0.45062255859375,0.312255859375,-0.750335693359375,0.0,-0.06103515625,0.0,0.447265625,-0.802490234375,0.3980712890625,-295.0,153.0,-151.0,101701.0,-3.126000165939331,0,0
0.15512120000494178,0.3692626953125,-0.450653076171875,0.312255859375,-0.750335693359375,-0.244140625,-0.06103515625,-0.244140625,0.445556640625,-0.8021240234375,0.396484375,-295.0,153.0,-151.0,101701.0,-3.126000165939331,0,0
0.1551807999931043,0.3692626953125,-0.450653076171875,0.312255859375,-0.750335693359375,0.06103515625,-0.06103515625,-0.18310546875,0.4451904296875,-0.80029296875,0.3990478515625,-295.0,153.0,-151.0,101701.0,-3.126000165939331,0,0
0.16488399999798276,0.3692626953125,-0.450653076171875,0.312255859375,-0.750335693359375,0.18310546875,0.06103515625,-0.1220703125,0.446533203125,-0.8009033203125,0.39892578125,-295.0,153.0,-151.0,101701.0,-3.126000165939331,0,0
0.16495859999849927,0.3692626953125,-0.450653076171875,0.312255859375,-0.750335693359375,-0.06103515625,-0.18310546875,-0.06103515625,0.4454345703125,-0.801513671875,0.3983154296875,-295.0,153.0,-151.0,101701.0,-3.126000165939331,0,0
0.16501680000510532,0.3692626953125,-0.450653076171875,0.312255859375,-0.750335693359375,-0.18310546875,-0.30517578125,-0.18310546875,0.4454345703125,-0.8028564453125,0.3997802734375,-295.0,153.0,-151.0,101701.0,-3.126000165939331,0,0
0.16858399999910034,0.3692626953125,-0.450653076171875,0.312255859375,-0.750335693359375,0.244140625,0.06103515625,-0.18310546875,0.44482421875,-0.7998046875,0.39892578125,-295.0,153.0,-151.0,101701.0,-3.126000165939331,0,0
0.2186156999960076,0.369293212890625,-0.45062255859375,0.312255859375,-0.750335693359375,0.06103515625,-0.06103515625,-0.1220703125,0.4427490234375,-0.801513671875,0.399169921875,-295.0,153.0,-151.0,101701.0,-3.126000165939331,0,0
0.21868320000066888,0.369293212890625,-0.45062255859375,0.312286376953125,-0.750335693359375,0.0,-0.1220703125,-0.1220703125,0.4443359375,-0.8018798828125,0.3975830078125,-295.0,153.0,-151.0,101701.0,-3.126000165939331,0,0
0.2187405000004219,0.369293212890625,-0.45062255859375,0.312286376953125,-0.750335693359375,0.3662109375,-0.1220703125,-0.1220703125,0.44482421875,-0.80126953125,0.3988037109375,-295.0,153.0,-151.0,101701.0,-3.126000165939331,0,0
0.21879549999721348,0.369293212890625,-0.45062255859375,0.312286376953125,-0.750335693359375,0.3662109375,-0.1220703125,-0.1220703125,0.44482421875,-0.80126953125,0.3988037109375,-295.0,153.0,-151.0,101701.0,-3.126000165939331,0,0
0.21885049999400508,0.369293212890625,-0.45062255859375,0.312286376953125,-0.750335693359375,0.0,-0.3662109375,0.18310546875,0.44580078125,-0.8050537109375,0.3995361328125,-295.0,153.0,-151.0,101701.0,-3.126000165939331,0,0
0.21890520000306424,0.369293212890625,-0.45062255859375,0.312255859375,-0.750335693359375,-0.1220703125,0.0,-0.18310546875,0.4444580078125,-0.8001708984375,0.3997802734375,-295.0,153.0,-151.0,101701.0,-3.126000165939331,0,0
0.21896070000366308,0.369293212890625,-0.45062255859375,0.312286376953125,-0.750335693359375,0.18310546875,0.06103515625,-0.1220703125,0.4449462890625,-0.8018798828125,0.399658203125,-295.0,153.0,-151.0,101701.0,-3.126000165939331,0,0
0.2196057999972254,0.369293212890625,-0.45062255859375,0.312286376953125,-0.750335693359375,0.244140625,-0.06103515625,0.0,0.4439697265625,-0.8016357421875,0.397216796875,-295.0,153.0,-151.0,101701.0,-3.126000165939331,0,0
0.21966610000526998,0.369293212890625,-0.45062255859375,0.312286376953125,-0.750335693359375,0.0,-0.1220703125,-0.1220703125,0.4456787109375,-0.800537109375,0.3994140625,-295.0,153.0,-151.0,101701.0,-3.126000165939331,0,0
0.21972530000493862,0.369293212890625,-0.45062255859375,0.312286376953125,-0.750335693359375,0.30517578125,-0.18310546875,0.18310546875,0.447021484375,-0.802734375,0.4012451171875,-295.0,153.0,-151.0,101701.0,-3.126000165939331,0,0
0.2197788000048604,0.369293212890625,-0.45062255859375,0.312255859375,-0.750335693359375,-0.244140625,-0.30517578125,-0.1220703125,0.44580078125,-0.7994384765625,0.3995361328125,-295.0,153.0,-151.0,101701.0,-3.126000165939331,0,0
0.21983210000325926,0.369293212890625,-0.45062255859375,0.312255859375,-0.750335693359375,-0.244140625,-0.30517578125,-0.1220703125,0.44580078125,-0.7994384765625,0.3995361328125,-294.0,152.0,-150.0,101701.0,-3.126000165939331,0,0
0.21988570000394247,0.369293212890625,-0.45062255859375,0.312255859375,-0.750335693359375,-0.244140625,-0.30517578125,-0.1220703125,0.44580078125,-0.7994384765625,0.3995361328125,-294.0,152.0,-150.0,101701.0,-3.126000165939331,0,0
0.2922668999963207,0.369384765625,-0.450653076171875,0.31219482421875,-0.750274658203125,-0.06103515625,-0.244140625,-0.1220703125,0.444091796875,-0.8018798828125,0.4005126953125,-294.0,152.0,-150.0,101701.0,-3.126000165939331,0,0
0.29233310000563506,0.369384765625,-0.450653076171875,0.31219482421875,-0.750274658203125,-0.06103515625,-0.30517578125,-0.48828125,0.443359375,-0.7991943359375,0.4007568359375,-294.0,152.0,-150.0,101701.0,-3.126000165939331,0,0
0.2923902000038652,0.369384765625,-0.450653076171875,0.31219482421875,-0.75030517578125,-0.06103515625,-0.30517578125,-0.48828125,0.443359375,-0.7991943359375,0.4007568359375,-294.0,152.0,-150.0,101701.0,-3.126000165939331,0,0
0.29244639999524225,0.369415283203125,-0.450653076171875,0.31219482421875,-0.75030517578125,-0.18310546875,-0.06103515625,-0.3662109375,0.443115234375,-0.80078125,0.4000244140625,-294.0,152.0,-150.0,101701.0,-3.126000165939331,0,0
0.2925037999957567,0.369415283203125,-0.450653076171875,0.31219482421875,-0.75030517578125,0.244140625,-0.06103515625,-0.244140625,0.443603515625,-0.798583984375,0.3963623046875,-294.0,152.0,-150.0,101701.0,-3.126000165939331,0,0
0.29530509999312926,0.369415283203125,-0.450653076171875,0.31219482421875,-0.75030517578125,0.0,-0.3662109375,-0.54931640625,0.445068359375,-0.7982177734375,0.3984375,-294.0,152.0,-150.0,101701.0,-3.126000165939331,0,0
0.2953683999949135,0.369415283203125,-0.45062255859375,0.31219482421875,-0.75030517578125,0.06103515625,-0.18310546875,-0.18310546875,0.44384765625,-0.799560546875,0.3995361328125,-294.0,152.0,-150.0,101701.0,-3.126000165939331,0,0
0.2954247000016039,0.369415283203125,-0.45062255859375,0.31219482421875,-0.75030517578125,0.06103515625,-0.18310546875,-0.18310546875,0.44384765625,-0.799560546875,0.3995361328125,-294.0,152.0,-150.0,101701.0,-3.126000165939331,0,0
0.29548070000601,0.369415283203125,-0.45062255859375,0.31219482421875,-0.75030517578125,0.06103515625,0.0,0.3662109375,0.4471435546875,-0.802490234375,0.400146484375,-294.0,152.0,-150.0,101701.0,-3.126000165939331,0,0
0.2955373000004329,0.369415283203125,-0.45062255859375,0.31219482421875,-0.75030517578125,0.06103515625,0.18310546875,0.6103515625,0.4449462890625,-0.8013916015625,0.40087890625,-294.0,152.0,-150.0,101701.0,-3.126000165939331,0,0
0.29559120000340044,0.369415283203125,-0.45062255859375,0.31219482421875,-0.75030517578125,0.06103515625,0.244140625,0.30517578125,0.4459228515625,-0.8026123046875,0.4005126953125,-294.0,152.0,-150.0,101701.0,-3.126000165939331,0,0
0.34612709999782965,0.369415283203125,-0.45062255859375,0.31219482421875,-0.75030517578125,-0.1220703125,-0.18310546875,0.0,0.4442138671875,-0.8052978515625,0.3992919921875,-294.0,152.0,-150.0,101701.0,-3.126000165939331,0,0
0.3461892000050284,0.369415283203125,-0.45062255859375,0.31219482421875,-0.75030517578125,0.0,-0.244140625,-0.18310546875,0.445556640625,-0.80322265625,0.3975830078125,-294.0,152.0,-150.0,101701.0,-3.126000165939331,0,0
0.3462456999986898,0.369415283203125,-0.45062255859375,0.31219482421875,-0.75030517578125,0.42724609375,-0.30517578125,-0.42724609375,0.4459228515625,-0.80419921875,0.3970947265625,-294.0,152.0,-150.0,101701.0,-3.126000165939331,0,0
0.3463103999965824,0.369415283203125,-0.45062255859375,0.31219482421875,-0.75030517578125,0.42724609375,-0.30517578125,-0.42724609375,0.4459228515625,-0.80419921875,0.3970947265625,-294.0,152.0,-150.0,101701.0,-3.126000165939331,0,0
0.3463687000039499,0.369598388671875,-0.450714111328125,0.31207275390625,-0.75018310546875,0.06103515625,-0.30517578125,-0.18310546875,0.4456787109375,-0.801513671875,0.400146484375,-294.0,152.0,-149.0,101700.0,-3.125000238418579,0,0
0.3479201000009198,0.369598388671875,-0.450714111328125,0.31207275390625,-0.750213623046875,0.244140625,0.1220703125,-0.30517578125,0.44775390625,-0.8017578125,0.3997802734375,-294.0,152.0,-149.0,101700.0,-3.125000238418579,0,0
0.3479780000052415,0.369598388671875,-0.450714111328125,0.31207275390625,-0.750213623046875,0.06103515625,-0.1220703125,-0.244140625,0.449951171875,-0.8038330078125,0.4022216796875,-294.0,152.0,-149.0,101700.0,-3.125000238418579,0,0
0.34803209999518003,0.369598388671875,-0.450714111328125,0.31207275390625,-0.750213623046875,-0.244140625,-0.244140625,-0.1220703125,0.447021484375,-0.7987060546875,0.3990478515625,-294.0,152.0,-149.0,101700.0,-3.125000238418579,0,0
0.3480870000057621,0.369598388671875,-0.450714111328125,0.31207275390625,-0.750213623046875,-0.18310546875,0.0,-0.30517578125,0.4442138671875,-0.8001708984375,0.39892578125,-294.0,152.0,-149.0,101700.0,-3.125000238418579,0,0
0.3481415999995079,0.369598388671875,-0.450714111328125,0.31207275390625,-0.750213623046875,0.0,-0.244140625,-0.1220703125,0.4439697265625,-0.799560546875,0.3966064453125,-294.0,152.0,-149.0,101700.0,-3.125000238418579,0,0
0.3481949999986682,0.369598388671875,-0.450714111328125,0.31207275390625,-0.750213623046875,-0.18310546875,-0.06103515625,-0.1220703125,0.4447021484375,-0.7979736328125,0.394775390625,-294.0,152.0,-149.0,101700.0,-3.125000238418579,0,0
0.411739100003615,0.369598388671875,-0.45074462890625,0.312042236328125,-0.750213623046875,0.30517578125,-0.18310546875,-0.06103515625,0.4473876953125,-0.7991943359375,0.3978271484375,-294.0,152.0,-149.0,101700.0,-3.125000238418579,0,0
0.4118092999997316,0.369598388671875,-0.45074462890625,0.31207275390625,-0.750213623046875,-0.1220703125,-0.06103515625,0.06103515625,0.4444580078125,-0.800048828125,0.3975830078125,-294.0,152.0,-149.0,101700.0,-3.125000238418579,0,0
0.41186690000176895,0.369598388671875,-0.45074462890625,0.31207275390625,-0.750213623046875,-0.1220703125,-0.06103515625,0.06103515625,0.4444580078125,-0.800048828125,0.3975830078125,-294.0,152.0,-149.0,101700.0,-3.125000238418579,0,0
0.41192230000160635,0.369598388671875,-0.45074462890625,0.312042236328125,-0.750213623046875,0.1220703125,-0.18310546875,0.18310546875,0.448486328125,-0.8004150390625,0.39892578125,-294.0,152.0,-149.0,101700.0,-3.125000238418579,0,0
0.4119771999976365,0.369598388671875,-0.450714111328125,0.312042236328125,-0.750213623046875,0.0,-0.06103515625,0.1220703125,0.4462890625,-0.8018798828125,0.4017333984375,-294.0,152.0,-149.0,101700.0,-3.125000238418579,0,0
0.4120309999998426,0.369598388671875,-0.450714111328125,0.312042236328125,-0.750213623046875,-0.30517578125,0.0,0.42724609375,0.4439697265625,-0.8028564453125,0.4019775390625,-294.0,152.0,-149.0,101700.0,-3.125000238418579,0,0
0.4120849000028102,0.369598388671875,-0.450714111328125,0.31207275390625,-0.750213623046875,-0.244140625,-0.06103515625,0.18310546875,0.44189453125,-0.80078125,0.3994140625,-294.0,152.0,-149.0,101700.0,-3.125000238418579,0,0
0.41237120000005234,0.369598388671875,-0.450714111328125,0.31207275390625,-0.750213623046875,-0.1220703125,-0.1220703125,-0.18310546875,0.44091796875,-0.80224609375,0.3978271484375,-294.0,152.0,-149.0,101700.0,-3.125000238418579,0,0
0.41242540000530425,0.369598388671875,-0.450714111328125,0.31207275390625,-0.750213623046875,0.1220703125,-0.1220703125,-0.244140625,0.445068359375,-0.8016357421875,0.3973388671875,-294.0,152.0,-149.0,101700.0,-3.125000238418579,0,0
0.4124785000021802,0.369598388671875,-0.450714111328125,0.31207275390625,-0.750213623046875,0.1220703125,-0.244140625,-0.1220703125,0.4453125,-0.7999267578125,0.39990234375,-294.0,152.0,-149.0,101700.0,-3.125000238418579,0,0
0.41253230000438634,0.369598388671875,-0.450714111328125,0.31207275390625,-0.750213623046875,-0.18310546875,-0.1220703125,0.06103515625,0.4443359375,-0.7998046875,0.3966064453125,-294.0,152.0,-149.0,101700.0,-3.125000238418579,0,0
0.4125851999997394,0.369598388671875,-0.450714111328125,0.31207275390625,-0.750213623046875,-0.18310546875,-0.1220703125,0.06103515625,0.4443359375,-0.7998046875,0.3966064453125,-294.0,152.0,-149.0,101700.0,-3.125000238418579,0,0
0.41263779999280814,0.369598388671875,-0.450714111328125,0.31207275390625,-0.750213623046875,0.18310546875,-0.06103515625,0.06103515625,0.44482421875,-0.7991943359375,0.399169921875,-294.0,152.0,-149.0,101701.0,-3.126000165939331,0,0
0.4784439999930328,0.36981201171875,-0.4508056640625,0.311920166015625,-0.7501220703125,0.0,-0.06103515625,0.1220703125,0.4462890625,-0.80224609375,0.3997802734375,-292.0,152.0,-149.0,101701.0,-3.126000165939331,0,0
0.4785064000025159,0.36981201171875,-0.4508056640625,0.311920166015625,-0.7501220703125,0.30517578125,0.1220703125,0.1220703125,0.4449462890625,-0.80126953125,0.400634765625,-292.0,152.0,-149.0,101701.0,-3.126000165939331,0,0
0.4785630999977002,0.36981201171875,-0.450775146484375,0.311920166015625,-0.7501220703125,0.0,-0.1220703125,-0.06103515625,0.4451904296875,-0.800537109375,0.3992919921875,-292.0,152.0,-149.0,101701.0,-3.126000165939331,0,0
0.478617500004475,0.36981201171875,-0.450775146484375,0.311920166015625,-0.7501220703125,-0.18310546875,0.244140625,-0.06103515625,0.4451904296875,-0.80322265625,0.397216796875,-292.0,152.0,-149.0,101701.0,-3.126000165939331,0,0
0.47867450000194367,0.36981201171875,-0.450775146484375,0.311920166015625,-0.7501220703125,0.18310546875,-0.18310546875,-0.06103515625,0.4468994140625,-0.8011474609375,0.39892578125,-292.0,152.0,-149.0,101701.0,-3.126000165939331,0,0
0.47874120000051335,0.36981201171875,-0.450775146484375,0.311920166015625,-0.7501220703125,0.1220703125,-0.30517578125,-0.06103515625,0.4456787109375,-0.8038330078125,0.4005126953125,-292.0,152.0,-149.0,101701.0,-3.126000165939331,0,0
0.4787953000050038,0.36981201171875,-0.450775146484375,0.311920166015625,-0.7501220703125,0.1220703125,-0.30517578125,-0.06103515625,0.4456787109375,-0.8038330078125,0.4005126953125,-292.0,152.0,-149.0,101701.0,-3.126000165939331,0,0
0.47884890000568703,0.36981201171875,-0.450775146484375,0.311920166015625,-0.7501220703125,0.18310546875,-0.06103515625,-0.42724609375,0.446044921875,-0.8001708984375,0.3985595703125,-292.0,152.0,-149.0,101701.0,-3.126000165939331,0,0
0.4789024000056088,0.36981201171875,-0.450775146484375,0.311920166015625,-0.7501220703125,0.06103515625,-0.18310546875,-0.244140625,0.444580078125,-0.7998046875,0.399658203125,-292.0,152.0,-149.0,101701.0,-3.126000165939331,0,0
0.47895550000248477,0.36981201171875,-0.450775146484375,0.311920166015625,-0.7501220703125,-0.18310546875,-0.06103515625,-0.48828125,0.445068359375,-0.7996826171875,0.3983154296875,-292.0,152.0,-149.0,101701.0,-3.126000165939331,0,0
0.47900819999631494,0.36981201171875,-0.450775146484375,0.311920166015625,-0.7501220703125,0.1220703125,-0.06103515625,-0.1220703125,0.44677734375,-0.8006591796875,0.3995361328125,-292.0,152.0,-149.0,101701.0,-3.126000165939331,0,0
0.5368308000033721,0.36981201171875,-0.450775146484375,0.311920166015625,-0.7501220703125,0.1220703125,-0.1220703125,0.244140625,0.4468994140625,-0.8006591796875,0.399169921875,-292.0,152.0,-149.0,101701.0,-3.126000165939331,0,0
0.536892899996019,0.36981201171875,-0.450775146484375,0.311920166015625,-0.7501220703125,-0.18310546875,-0.18310546875,0.30517578125,0.4447021484375,-0.802978515625,0.4005126953125,-292.0,152.0,-149.0,101701.0,-3.126000165939331,0,0
0.5369512000033865,0.36981201171875,-0.450775146484375,0.311920166015625,-0.7501220703125,-0.18310546875,-0.18310546875,0.30517578125,0.4447021484375,-0.802978515625,0.4005126953125,-292.0,152.0,-149.0,101701.0,-3.126000165939331,0,0
0.5370066000032239,0.36981201171875,-0.450775146484375,0.311920166015625,-0.7501220703125,-0.3662109375,0.0,-0.1220703125,0.446044921875,-0.801025390625,0.39892578125,-292.0,152.0,-149.0,101701.0,-3.126000165939331,0,0
0.5370644000067841,0.36981201171875,-0.450775146484375,0.311920166015625,-0.7501220703125,0.18310546875,-0.1220703125,0.06103515625,0.447021484375,-0.802734375,0.39990234375,-292.0,152.0,-149.0,101701.0,-3.126000165939331,0,0
0.5383733000053326,0.36981201171875,-0.450775146484375,0.311920166015625,-0.7501220703125,-0.48828125,-0.42724609375,-0.3662109375,0.4444580078125,-0.8021240234375,0.4010009765625,-292.0,152.0,-149.0,101701.0,-3.126000165939331,0,0
0.5384338000003481,0.369903564453125,-0.4508056640625,0.311859130859375,-0.750091552734375,-0.48828125,-0.42724609375,-0.3662109375,0.4444580078125,-0.8021240234375,0.4010009765625,-293.0,151.0,-150.0,101701.0,-3.126000165939331,0,0
0.5384864999941783,0.36993408203125,-0.4508056640625,0.311859130859375,-0.750091552734375,-0.18310546875,-0.1220703125,-0.30517578125,0.4481201171875,-0.80029296875,0.399658203125,-293.0,151.0,-150.0,101701.0,-3.126000165939331,0,0
0.538538900000276,0.36993408203125,-0.4508056640625,0.31182861328125,-0.750091552734375,0.06103515625,-0.18310546875,-0.3662109375,0.44677734375,-0.8018798828125,0.4010009765625,-293.0,151.0,-150.0,101701.0,-3.126000165939331,0,0
0.5385926000017207,0.36993408203125,-0.4508056640625,0.311859130859375,-0.750091552734375,0.244140625,-0.06103515625,-0.1220703125,0.4453125,-0.802978515625,0.3983154296875,-293.0,151.0,-150.0,101701.0,-3.126000165939331,0,0
0.5386447000055341,0.36993408203125,-0.4508056640625,0.311859130859375,-0.750091552734375,0.18310546875,-0.1220703125,0.06103515625,0.44677734375,-0.801513671875,0.39892578125,-293.0,151.0,-150.0,101701.0,-3.126000165939331,0,0
0.5386985999939498,0.369903564453125,-0.4508056640625,0.31182861328125,-0.750091552734375,-0.3662109375,-0.18310546875,-0.06103515625,0.446533203125,-0.80078125,0.3992919921875,-293.0,151.0,-150.0,101701.0,-3.126000165939331,0,0
0.6043091000028653,0.369903564453125,-0.4508056640625,0.31182861328125,-0.750091552734375,-0.3662109375,-0.18310546875,-0.06103515625,0.446533203125,-0.80078125,0.3992919921875,-293.0,151.0,-150.0,101701.0,-3.126000165939331,0,0
0.6043809999973746,0.369903564453125,-0.4508056640625,0.31182861328125,-0.750091552734375,-0.06103515625,0.06103515625,-0.18310546875,0.446533203125,-0.802001953125,0.39892578125,-293.0,151.0,-150.0,101701.0,-3.126000165939331,0,0
0.6044422999984818,0.369903564453125,-0.4508056640625,0.31182861328125,-0.750091552734375,0.06103515625,-0.06103515625,0.06103515625,0.4459228515625,-0.799072265625,0.3997802734375,-293.0,151.0,-150.0,101701.0,-3.126000165939331,0,0
0.6045037000003504,0.369903564453125,-0.4508056640625,0.31182861328125,-0.750091552734375,0.06103515625,-0.06103515625,0.06103515625,0.4459228515625,-0.799072265625,0.3997802734375,-293.0,151.0,-150.0,101701.0,-3.126000165939331,0,0
0.6045655000052648,0.369903564453125,-0.4508056640625,0.31182861328125,-0.750091552734375,0.1220703125,-0.1220703125,-0.06103515625,0.444580078125,-0.7999267578125,0.3978271484375,-293.0,151.0,-150.0,101701.0,-3.126000165939331,0,0
0.6046236999973189,0.369903564453125,-0.4508056640625,0.31182861328125,-0.750091552734375,-0.06103515625,-0.30517578125,-0.06103515625,0.44580078125,-0.802001953125,0.3985595703125,-293.0,151.0,-150.0,101701.0,-3.126000165939331,0,0
0.6046977999940282,0.369903564453125,-0.4508056640625,0.31182861328125,-0.750091552734375,-0.244140625,-0.30517578125,0.1220703125,0.44384765625,-0.8013916015625,0.3990478515625,-293.0,151.0,-150.0,101701.0,-3.126000165939331,0,0
0.6047569999936968,0.369903564453125,-0.4508056640625,0.31182861328125,-0.750091552734375,0.18310546875,-0.18310546875,-0.18310546875,0.445556640625,-0.8001708984375,0.4000244140625,-293.0,151.0,-150.0,101701.0,-3.126000165939331,0,0
0.6048158000048716,0.369903564453125,-0.4508056640625,0.31182861328125,-0.750091552734375,0.0,-0.3662109375,-0.06103515625,0.4453125,-0.8006591796875,0.39990234375,-293.0,151.0,-150.0,101701.0,-3.126000165939331,0,0
0.6048750000045402,0.369903564453125,-0.4508056640625,0.31182861328125,-0.750091552734375,0.0,-0.3662109375,-0.06103515625,0.4453125,-0.8006591796875,0.39990234375,-293.0,151.0,-150.0,101701.0,-3.126000165939331,0,0
0.6049351999972714,0.36993408203125,-0.4508056640625,0.31182861328125,-0.750091552734375,0.244140625,-0.30517578125,-0.244140625,0.4459228515625,-0.801025390625,0.4007568359375,-293.0,151.0,-150.0,101701.0,-3.126000165939331,0,0
0.6049927999993088,0.36993408203125,-0.4508056640625,0.31182861328125,-0.750091552734375,0.30517578125,-0.1220703125,0.0,0.44482421875,-0.800537109375,0.399169921875,-293.0,151.0,-150.0,101701.0,-3.126000165939331,0,0
0.6715078999986872,0.36993408203125,-0.4508056640625,0.31182861328125,-0.750091552734375,0.1220703125,-0.244140625,-0.18310546875,0.445068359375,-0.80078125,0.3997802734375,-292.0,151.0,-150.0,101700.0,-3.125000238418579,0,0
0.6715847000014037,0.370025634765625,-0.450836181640625,0.311767578125,-0.75006103515625,-0.18310546875,-0.1220703125,-0.42724609375,0.4443359375,-0.800537109375,0.4005126953125,-292.0,151.0,-150.0,101700.0,-3.125000238418579,0,0
0.6716449999948964,0.370025634765625,-0.450836181640625,0.311767578125,-0.75006103515625,0.18310546875,-0.06103515625,-0.244140625,0.4456787109375,-0.8023681640625,0.39990234375,-292.0,151.0,-150.0,101700.0,-3.125000238418579,0,0
0.6717048999998951,0.370025634765625,-0.450836181640625,0.311767578125,-0.75006103515625,0.1220703125,-0.1220703125,-0.06103515625,0.4444580078125,-0.8017578125,0.3990478515625,-292.0,151.0,-150.0,101700.0,-3.125000238418579,0,0
0.6717629000049783,0.370025634765625,-0.450836181640625,0.311767578125,-0.75006103515625,0.18310546875,-0.18310546875,0.06103515625,0.44580078125,-0.80224609375,0.39990234375,-292.0,151.0,-150.0,101700.0,-3.125000238418579,0,0
0.6727159000001848,0.370025634765625,-0.450836181640625,0.311767578125,-0.75006103515625,0.18310546875,-0.18310546875,0.06103515625,0.44580078125,-0.80224609375,0.39990234375,-292.0,151.0,-150.0,101700.0,-3.125000238418579,0,0
0.6727800999942701,0.370025634765625,-0.450836181640625,0.311767578125,-0.75006103515625,-0.06103515625,0.06103515625,0.06103515625,0.44482421875,-0.803466796875,0.39892578125,-292.0,151.0,-150.0,101700.0,-3.125000238418579,0,0
0.6728390000062063,0.370025634765625,-0.450836181640625,0.311767578125,-0.75006103515625,0.30517578125,0.0,0.0,0.447265625,-0.802001953125,0.3994140625,-292.0,151.0,-150.0,101700.0,-3.125000238418579,0,0
0.6728966999944532,0.370025634765625,-0.450836181640625,0.311767578125,-0.75006103515625,0.1220703125,-0.06103515625,0.06103515625,0.4453125,-0.8011474609375,0.39990234375,-292.0,151.0,-150.0,101700.0,-3.125000238418579,0,0
0.6729550000018207,0.370025634765625,-0.450836181640625,0.311767578125,-0.75006103515625,-0.06103515625,-0.06103515625,0.0,0.44580078125,-0.8006591796875,0.3974609375,-292.0,151.0,-150.0,101700.0,-3.125000238418579,0,0
0.6730615999986185,0.370025634765625,-0.450836181640625,0.311767578125,-0.75006103515625,0.06103515625,-0.30517578125,-0.06103515625,0.4443359375,-0.800537109375,0.399169921875,-292.0,151.0,-150.0,101700.0,-3.125000238418579,0,0
0.6731181000068318,0.370025634765625,-0.450836181640625,0.311767578125,-0.75006103515625,-0.06103515625,0.0,-0.06103515625,0.4444580078125,-0.8006591796875,0.3985595703125,-292.0,151.0,-150.0,101700.0,-3.125000238418579,0,0
0.7302612000057707,0.370025634765625,-0.450836181640625,0.311767578125,-0.75006103515625,0.0,0.18310546875,-0.18310546875,0.445068359375,-0.8026123046875,0.3990478515625,-292.0,151.0,-150.0,101700.0,-3.125000238418579,0,0
0.7303260000044247,0.370025634765625,-0.4508056640625,0.311767578125,-0.75006103515625,0.18310546875,0.1220703125,-0.06103515625,0.4444580078125,-0.8013916015625,0.399169921875,-292.0,151.0,-150.0,101700.0,-3.125000238418579,0,0
0.7304067999939434,0.37005615234375,-0.4508056640625,0.311767578125,-0.75006103515625,0.1220703125,0.18310546875,-0.18310546875,0.4442138671875,-0.802490234375,0.4000244140625,-292.0,151.0,-150.0,101700.0,-3.125000238418579,0,0
0.7304977000021609,0.37005615234375,-0.4508056640625,0.311767578125,-0.75006103515625,0.1220703125,0.06103515625,0.06103515625,0.445556640625,-0.804443359375,0.3995361328125,-292.0,151.0,-150.0,101700.0,-3.125000238418579,0,0
0.731059900004766,0.37005615234375,-0.4508056640625,0.311767578125,-0.75006103515625,-0.06103515625,-0.18310546875,0.06103515625,0.447265625,-0.80224609375,0.3997802734375,-292.0,151.0,-150.0,101700.0,-3.125000238418579,0,0
0.7311258999980055,0.37005615234375,-0.4508056640625,0.311767578125,-0.75006103515625,0.1220703125,-0.1220703125,0.18310546875,0.44580078125,-0.7998046875,0.400146484375,-292.0,151.0,-150.0,101700.0,-3.125000238418579,0,0
0.7311857000022428,0.370025634765625,-0.4508056640625,0.311767578125,-0.75006103515625,0.1220703125,-0.1220703125,0.18310546875,0.44580078125,-0.7998046875,0.400146484375,-291.0,150.0,-150.0,101701.0,-3.126000165939331,0,0
0.7312938999966718,0.370025634765625,-0.4508056640625,0.311767578125,-0.75006103515625,0.0,-0.244140625,0.1220703125,0.4456787109375,-0.8004150390625,0.4000244140625,-291.0,150.0,-150.0,101701.0,-3.126000165939331,0,0
0.7313517000002321,0.370025634765625,-0.4508056640625,0.311767578125,-0.75006103515625,-0.06103515625,-0.244140625,-0.244140625,0.4454345703125,-0.80078125,0.3984375,-291.0,150.0,-150.0,101701.0,-3.126000165939331,0,0
0.7314073000015924,0.370025634765625,-0.4508056640625,0.311767578125,-0.75006103515625,-0.06103515625,-0.1220703125,0.1220703125,0.4443359375,-0.8017578125,0.3988037109375,-291.0,150.0,-150.0,101701.0,-3.126000165939331,0,0
0.7314629000029527,0.370025634765625,-0.4508056640625,0.311767578125,-0.75006103515625,-0.06103515625,-0.1220703125,0.1220703125,0.4443359375,-0.8017578125,0.3988037109375,-291.0,150.0,-150.0,101701.0,-3.126000165939331,0,0
0.7962176000000909,0.37005615234375,-0.4508056640625,0.311767578125,-0.75006103515625,0.18310546875,-0.244140625,0.1220703125,0.444580078125,-0.8018798828125,0.3994140625,-291.0,150.0,-150.0,101701.0,-3.126000165939331,0,0
0.7962901999999303,0.370025634765625,-0.4508056640625,0.311767578125,-0.75006103515625,0.244140625,0.18310546875,-0.06103515625,0.4454345703125,-0.800537109375,0.399169921875,-291.0,150.0,-150.0,101701.0,-3.126000165939331,0,0
0.7963512999995146,0.37005615234375,-0.4508056640625,0.311798095703125,-0.750030517578125,-0.1220703125,-0.1220703125,-0.1220703125,0.4471435546875,-0.802734375,0.3988037109375,-291.0,150.0,-150.0,101701.0,-3.126000165939331,0,0
0.7964093000045978,0.37005615234375,-0.4508056640625,0.311798095703125,-0.750030517578125,-0.1220703125,0.0,0.0,0.4454345703125,-0.802734375,0.398193359375,-291.0,150.0,-150.0,101701.0,-3.126000165939331,0,0
0.7964657999982592,0.37005615234375,-0.4508056640625,0.311798095703125,-0.750030517578125,0.0,-0.06103515625,-0.06103515625,0.4437255859375,-0.802490234375,0.39990234375,-291.0,150.0,-150.0,101701.0,-3.126000165939331,0,0
0.7965187999943737,0.37005615234375,-0.4508056640625,0.311798095703125,-0.750030517578125,0.1220703125,-0.06103515625,0.18310546875,0.4453125,-0.801025390625,0.40087890625,-291.0,150.0,-150.0,101701.0,-3.126000165939331,0,0
0.7973660999996355,0.37005615234375,-0.4508056640625,0.311798095703125,-0.750030517578125,0.1220703125,0.06103515625,0.0,0.446533203125,-0.8023681640625,0.3992919921875,-291.0,150.0,-150.0,101701.0,-3.126000165939331,0,0
0.7974279000045499,0.370025634765625,-0.450836181640625,0.311798095703125,-0.750030517578125,0.06103515625,0.0,0.1220703125,0.446044921875,-0.80029296875,0.3990478515625,-291.0,150.0,-150.0,101701.0,-3.126000165939331,0,0
0.7975404000026174,0.370025634765625,-0.450836181640625,0.311798095703125,-0.750030517578125,0.06103515625,0.0,0.1220703125,0.446044921875,-0.80029296875,0.3990478515625,-291.0,150.0,-150.0,101701.0,-3.126000165939331,0,0
0.7976503999962006,0.370025634765625,-0.450836181640625,0.311798095703125,-0.750030517578125,-0.06103515625,-0.06103515625,-0.06103515625,0.444580078125,-0.802001953125,0.3985595703125,-291.0,150.0,-150.0,101701.0,-3.126000165939331,0,0
0.797710900005768,0.370025634765625,-0.450836181640625,0.311798095703125,-0.750030517578125,0.06103515625,-0.1220703125,0.0,0.4444580078125,-0.7998046875,0.399169921875,-291.0,150.0,-150.0,101701.0,-3.126000165939331,0,0
0.7977643000049284,0.37005615234375,-0.4508056640625,0.311798095703125,-0.750030517578125,0.06103515625,0.06103515625,0.06103515625,0.4453125,-0.8009033203125,0.39794921875,-291.0,150.0,-150.0,101701.0,-3.126000165939331,0,0
0.8579727000033017,0.37005615234375,-0.4508056640625,0.311798095703125,-0.75006103515625,0.0,-0.30517578125,0.0,0.4449462890625,-0.8016357421875,0.400146484375,-291.0,150.0,-150.0,101701.0,-3.126000165939331,0,0
0.8580397000041557,0.37005615234375,-0.4508056640625,0.311798095703125,-0.75006103515625,0.18310546875,0.06103515625,-0.06103515625,0.4447021484375,-0.802490234375,0.3988037109375,-291.0,150.0,-150.0,101700.0,-3.124000072479248,0,0
0.858141999997315,0.37005615234375,-0.4508056640625,0.311798095703125,-0.75006103515625,0.0,0.06103515625,-0.06103515625,0.4453125,-0.8038330078125,0.399658203125,-291.0,150.0,-150.0,101700.0,-3.124000072479248,0,0
0.8581994999985909,0.37005615234375,-0.4508056640625,0.311798095703125,-0.75006103515625,-0.3662109375,-0.30517578125,0.06103515625,0.4464111328125,-0.8017578125,0.3995361328125,-291.0,150.0,-150.0,101700.0,-3.124000072479248,0,0
0.8582546999969054,0.37005615234375,-0.4508056640625,0.311798095703125,-0.75006103515625,-0.3662109375,-0.30517578125,0.06103515625,0.4464111328125,-0.8017578125,0.3995361328125,-291.0,150.0,-150.0,101700.0,-3.124000072479248,0,0
0.8583337000018219,0.37005615234375,-0.4508056640625,0.311798095703125,-0.750030517578125,-0.06103515625,-0.30517578125,-0.30517578125,0.447265625,-0.8018798828125,0.398681640625,-291.0,150.0,-150.0,101700.0,-3.124000072479248,0,0
0.8583864999964135,0.37005615234375,-0.4508056640625,0.311767578125,-0.75006103515625,0.18310546875,0.0,-0.06103515625,0.4464111328125,-0.7998046875,0.3985595703125,-291.0,150.0,-150.0,101700.0,-3.124000072479248,0,0
0.8584392000047956,0.37005615234375,-0.4508056640625,0.311798095703125,-0.750030517578125,-0.1220703125,-0.06103515625,0.06103515625,0.4442138671875,-0.80224609375,0.398681640625,-291.0,150.0,-150.0,101700.0,-3.124000072479248,0,0
0.8584913999948185,0.37005615234375,-0.4508056640625,0.311798095703125,-0.750030517578125,-0.06103515625,-0.18310546875,-0.1220703125,0.44482421875,-0.8040771484375,0.3984375,-291.0,150.0,-150.0,101700.0,-3.124000072479248,0,0
0.8585427999933017,0.37005615234375,-0.4508056640625,0.311798095703125,-0.750030517578125,0.244140625,-0.1220703125,-0.06103515625,0.4471435546875,-0.801025390625,0.399658203125,-291.0,150.0,-150.0,101700.0,-3.124000072479248,0,0
0.8585958000039682,0.37005615234375,-0.4508056640625,0.311798095703125,-0.750030517578125,-0.3662109375,-0.18310546875,-0.1220703125,0.4451904296875,-0.802490234375,0.3992919921875,-291.0,150.0,-150.0,101700.0,-3.124000072479248,0,0
0.8586480999947526,0.37005615234375,-0.4508056640625,0.311798095703125,-0.750030517578125,-0.3662109375,-0.18310546875,-0.1220703125,0.4451904296875,-0.802490234375,0.3992919921875,-291.0,150.0,-150.0,101700.0,-3.124000072479248,0,0
0.9287467999965884,0.37005615234375,-0.4508056640625,0.311798095703125,-0.750030517578125,0.06103515625,0.18310546875,-0.06103515625,0.4462890625,-0.80224609375,0.3984375,-291.0,150.0,-150.0,101700.0,-3.124000072479248,0,0
0.9288106000021799,0.37005615234375,-0.4508056640625,0.311798095703125,-0.750030517578125,0.244140625,-0.06103515625,0.0,0.44677734375,-0.7994384765625,0.39990234375,-291.0,150.0,-150.0,101700.0,-3.124000072479248,0,0
0.9288681000034558,0.37005615234375,-0.4508056640625,0.311798095703125,-0.750030517578125,0.0,-0.06103515625,0.0,0.4451904296875,-0.8006591796875,0.3975830078125,-291.0,150.0,-150.0,101700.0,-3.124000072479248,0,0
0.9289239999925485,0.37005615234375,-0.4508056640625,0.311798095703125,-0.750030517578125,0.18310546875,0.0,0.06103515625,0.4459228515625,-0.8006591796875,0.398681640625,-291.0,150.0,-150.0,101700.0,-3.124000072479248,0,0
0.9289951999962796,0.37005615234375,-0.4508056640625,0.311798095703125,-0.750030517578125,0.1220703125,-0.244140625,0.1220703125,0.4437255859375,-0.7996826171875,0.3980712890625,-291.0,150.0,-150.0,101700.0,-3.124000072479248,0,0
0.92904930000077,0.37005615234375,-0.4508056640625,0.311798095703125,-0.750030517578125,0.18310546875,-0.06103515625,0.0,0.4459228515625,-0.802001953125,0.4002685546875,-291.0,150.0,-150.0,101700.0,-3.124000072479248,0,0
0.9291043999983231,0.37005615234375,-0.4508056640625,0.311798095703125,-0.750030517578125,0.18310546875,-0.1220703125,-0.18310546875,0.4464111328125,-0.7996826171875,0.3983154296875,-291.0,150.0,-150.0,101700.0,-3.124000072479248,0,0
0.9291633999964688,0.370025634765625,-0.450836181640625,0.311798095703125,-0.750030517578125,-0.06103515625,-0.1220703125,-0.244140625,0.4459228515625,-0.8016357421875,0.3980712890625,-291.0,150.0,-150.0,101700.0,-3.124000072479248,0,0
0.9292180000047665,0.370025634765625,-0.450836181640625,0.311798095703125,-0.750030517578125,-0.06103515625,-0.1220703125,-0.244140625,0.4459228515625,-0.8016357421875,0.3980712890625,-291.0,150.0,-150.0,101700.0,-3.124000072479248,0,0
0.9292711000016425,0.370147705078125,-0.45086669921875,0.31170654296875,-0.75,-0.06103515625,0.1220703125,0.0,0.447021484375,-0.8016357421875,0.3994140625,-291.0,150.0,-149.0,101700.0,-3.124000072479248,0,0
0.9293247000023257,0.370147705078125,-0.45086669921875,0.311737060546875,-0.75,0.0,-0.06103515625,-0.06103515625,0.445556640625,-0.8018798828125,0.39990234375,-291.0,150.0,-149.0,101700.0,-3.124000072479248,0,0
0.9869682999997167,0.370147705078125,-0.45086669921875,0.311737060546875,-0.75,0.244140625,0.0,0.1220703125,0.446044921875,-0.8013916015625,0.3983154296875,-291.0,150.0,-149.0,101700.0,-3.124000072479248,0,0
0.9870287999947323,0.370147705078125,-0.45086669921875,0.311737060546875,-0.749969482421875,0.06103515625,-0.244140625,-0.06103515625,0.4464111328125,-0.8001708984375,0.3970947265625,-291.0,150.0,-149.0,101700.0,-3.124000072479248,0,0
0.987085400003707,0.370147705078125,-0.45086669921875,0.311737060546875,-0.749969482421875,-0.06103515625,-0.244140625,0.06103515625,0.445068359375,-0.8011474609375,0.3992919921875,-291.0,150.0,-149.0,101700.0,-3.124000072479248,0,0
0.9871425000019372,0.370147705078125,-0.45086669921875,0.311737060546875,-0.749969482421875,-0.06103515625,-0.244140625,0.06103515625,0.445068359375,-0.8011474609375,0.3992919921875,-291.0,150.0,-149.0,101700.0,-3.124000072479248,0,0
0.9878249000030337,0.370147705078125,-0.45086669921875,0.311737060546875,-0.75,0.1220703125,-0.18310546875,-0.06103515625,0.4456787109375,-0.8026123046875,0.39697265625,-291.0,150.0,-149.0,101700.0,-3.124000072479248,0,0
0.9878829999943264,0.370147705078125,-0.45086669921875,0.311737060546875,-0.75,0.1220703125,-0.18310546875,-0.06103515625,0.4456787109375,-0.8026123046875,0.39697265625,-291.0,150.0,-149.0,101700.0,-3.124000072479248,0,0
0.9879381000064313,0.370147705078125,-0.45086669921875,0.311737060546875,-0.75,0.06103515625,0.06103515625,-0.06103515625,0.445556640625,-0.802001953125,0.4005126953125,-291.0,150.0,-149.0,101700.0,-3.124000072479248,0,0
0.9880254000017885,0.370147705078125,-0.45086669921875,0.311737060546875,-0.75,-0.06103515625,0.0,0.0,0.447998046875,-0.8023681640625,0.39892578125,-291.0,150.0,-149.0,101700.0,-3.124000072479248,0,0
0.9880776999925729,0.370147705078125,-0.45086669921875,0.311737060546875,-0.75,-0.06103515625,-0.1220703125,-0.06103515625,0.4468994140625,-0.80126953125,0.3988037109375,-291.0,150.0,-149.0,101700.0,-3.124000072479248,0,0
0.9881334999954561,0.370147705078125,-0.45086669921875,0.311737060546875,-0.749969482421875,0.0,-0.18310546875,-0.1220703125,0.44677734375,-0.8009033203125,0.3980712890625,-291.0,150.0,-149.0,101700.0,-3.124000072479248,0,0
0.9881863000045996,0.370147705078125,-0.45086669921875,0.311737060546875,-0.749969482421875,-0.06103515625,-0.244140625,-0.244140625,0.443603515625,-0.7999267578125,0.3970947265625,-291.0,150.0,-149.0,101700.0,-3.124000072479248,0,0
1.0516593000065768,0.370147705078125,-0.45086669921875,0.311737060546875,-0.749969482421875,0.06103515625,-0.1220703125,-0.244140625,0.445068359375,-0.8016357421875,0.3985595703125,-291.0,150.0,-149.0,101700.0,-3.124000072479248,0,0
1.0517245999944862,0.370147705078125,-0.45086669921875,0.311737060546875,-0.749969482421875,0.06103515625,-0.1220703125,-0.244140625,0.445068359375,-0.8016357421875,0.3985595703125,-291.0,150.0,-149.0,101700.0,-3.124000072479248,0,0
1.0517798999935621,0.370147705078125,-0.45086669921875,0.311737060546875,-0.749969482421875,-0.06103515625,-0.1220703125,-0.18310546875,0.4447021484375,-0.80224609375,0.39990234375,-291.0,150.0,-149.0,101700.0,-3.122000217437744,0,0
1.0518336999957683,0.370147705078125,-0.45086669921875,0.311737060546875,-0.749969482421875,0.1220703125,-0.18310546875,0.0,0.446044921875,-0.8004150390625,0.3994140625,-292.0,150.0,-149.0,101700.0,-3.122000217437744,0,0
1.0519029999995837,0.370147705078125,-0.45086669921875,0.311737060546875,-0.749969482421875,-0.06103515625,-0.1220703125,0.0,0.4459228515625,-0.802001953125,0.4007568359375,-292.0,150.0,-149.0,101700.0,-3.122000217437744,0,0
1.0519570000033127,0.370147705078125,-0.45086669921875,0.311737060546875,-0.749969482421875,-0.18310546875,0.0,0.18310546875,0.44580078125,-0.8017578125,0.39892578125,-292.0,150.0,-149.0,101700.0,-3.122000217437744,0,0
1.0520098999986658,0.370147705078125,-0.45086669921875,0.311737060546875,-0.749969482421875,-0.06103515625,0.18310546875,-0.06103515625,0.4453125,-0.8037109375,0.4000244140625,-292.0,150.0,-149.0,101700.0,-3.122000217437744,0,0
1.0520628999947803,0.370147705078125,-0.45086669921875,0.311737060546875,-0.749969482421875,0.06103515625,-0.18310546875,-0.18310546875,0.4451904296875,-0.8017578125,0.3985595703125,-292.0,150.0,-149.0,101700.0,-3.122000217437744,0,0
1.0521172000007937,0.370147705078125,-0.45086669921875,0.311737060546875,-0.749969482421875,0.06103515625,0.06103515625,-0.1220703125,0.446044921875,-0.801513671875,0.3992919921875,-292.0,150.0,-149.0,101700.0,-3.122000217437744,0,0
1.0521698999946238,0.370147705078125,-0.45086669921875,0.311737060546875,-0.749969482421875,0.18310546875,-0.06103515625,-0.1220703125,0.44677734375,-0.80224609375,0.40087890625,-292.0,150.0,-149.0,101700.0,-3.122000217437744,0,0
1.0522232999937842,0.370147705078125,-0.45086669921875,0.311737060546875,-0.749969482421875,0.18310546875,-0.06103515625,0.06103515625,0.444580078125,-0.802001953125,0.3975830078125,-292.0,150.0,-149.0,101700.0,-3.122000217437744,0,0
1.1157096999959322,0.370147705078125,-0.45086669921875,0.311737060546875,-0.749969482421875,-0.06103515625,-0.06103515625,-0.06103515625,0.4454345703125,-0.8017578125,0.399658203125,-292.0,150.0,-149.0,101700.0,-3.122000217437744,0,0
1.1157818999927258,0.370147705078125,-0.45086669921875,0.311737060546875,-0.749969482421875,0.244140625,0.0,-0.30517578125,0.444580078125,-0.8023681640625,0.3994140625,-292.0,150.0,-149.0,101700.0,-3.122000217437744,0,0
1.1158393999940017,0.370147705078125,-0.45086669921875,0.311737060546875,-0.749969482421875,-0.1220703125,-0.18310546875,-0.06103515625,0.445068359375,-0.8006591796875,0.3975830078125,-292.0,150.0,-149.0,101700.0,-3.122000217437744,0,0
1.1158943000045838,0.370147705078125,-0.45086669921875,0.311737060546875,-0.75,0.18310546875,-0.244140625,-0.06103515625,0.445068359375,-0.80078125,0.399658203125,-292.0,150.0,-149.0,101700.0,-3.122000217437744,0,0
1.1160143000015523,0.370147705078125,-0.45086669921875,0.311737060546875,-0.749969482421875,0.06103515625,0.18310546875,0.1220703125,0.443359375,-0.8028564453125,0.3985595703125,-292.0,150.0,-149.0,101700.0,-3.122000217437744,0,0
1.1167830000049435,0.370147705078125,-0.45086669921875,0.311737060546875,-0.749969482421875,0.06103515625,0.0,-0.244140625,0.4453125,-0.8013916015625,0.396240234375,-292.0,150.0,-149.0,101700.0,-3.122000217437744,0,0
1.1168441000045277,0.370147705078125,-0.45086669921875,0.311737060546875,-0.749969482421875,0.18310546875,0.0,0.0,0.445556640625,-0.801025390625,0.398681640625,-292.0,150.0,-149.0,101700.0,-3.122000217437744,0,0
1.116936499995063,0.370147705078125,-0.45086669921875,0.311737060546875,-0.749969482421875,0.18310546875,0.0,0.0,0.445556640625,-0.801025390625,0.398681640625,-292.0,150.0,-149.0,101700.0,-3.122000217437744,0,0
1.1169896999927005,0.370147705078125,-0.450836181640625,0.311737060546875,-0.749969482421875,0.244140625,-0.30517578125,0.0,0.44384765625,-0.7996826171875,0.40283203125,-292.0,150.0,-149.0,101700.0,-3.122000217437744,0,0
1.1170432999933837,0.370147705078125,-0.450836181640625,0.311737060546875,-0.75,0.18310546875,-0.06103515625,0.1220703125,0.44580078125,-0.802001953125,0.39990234375,-292.0,150.0,-149.0,101700.0,-3.122000217437744,0,0
1.11709559999872,0.370147705078125,-0.45086669921875,0.311737060546875,-0.749969482421875,0.18310546875,-0.06103515625,0.1220703125,0.44580078125,-0.802001953125,0.39990234375,-292.0,149.0,-149.0,101700.0,-3.125000238418579,0,0
1.1770437999948626,0.370147705078125,-0.45086669921875,0.311737060546875,-0.749969482421875,0.1220703125,0.0,-0.1220703125,0.4456787109375,-0.803466796875,0.3985595703125,-292.0,149.0,-149.0,101700.0,-3.125000238418579,0,0
1.1771196000045165,0.370147705078125,-0.45086669921875,0.311737060546875,-0.749969482421875,0.06103515625,-0.1220703125,-0.30517578125,0.445556640625,-0.8018798828125,0.39892578125,-292.0,149.0,-149.0,101700.0,-3.125000238418579,0,0
1.1771826000040164,0.370147705078125,-0.45086669921875,0.311737060546875,-0.749969482421875,0.06103515625,0.244140625,-0.18310546875,0.447021484375,-0.80224609375,0.39892578125,-292.0,149.0,-149.0,101700.0,-3.125000238418579,0,0
1.1772434000013163,0.370147705078125,-0.45086669921875,0.311767578125,-0.749969482421875,0.0,-0.30517578125,-0.06103515625,0.44482421875,-0.8023681640625,0.39794921875,-292.0,149.0,-149.0,101700.0,-3.125000238418579,0,0
1.1773064000008162,0.370147705078125,-0.45086669921875,0.311767578125,-0.749969482421875,-0.06103515625,-0.18310546875,0.06103515625,0.445068359375,-0.8028564453125,0.3988037109375,-292.0,149.0,-149.0,101700.0,-3.125000238418579,0,0
1.1773668999958318,0.370147705078125,-0.45086669921875,0.311767578125,-0.749969482421875,0.1220703125,0.0,-0.06103515625,0.4476318359375,-0.8026123046875,0.39990234375,-292.0,149.0,-149.0,101700.0,-3.125000238418579,0,0
1.1778307000058703,0.370147705078125,-0.45086669921875,0.311767578125,-0.749969482421875,0.1220703125,0.0,-0.06103515625,0.4476318359375,-0.8026123046875,0.39990234375,-292.0,149.0,-149.0,101700.0,-3.125000238418579,0,0
1.1779886000003899,0.370147705078125,-0.450836181640625,0.311737060546875,-0.749969482421875,-0.06103515625,-0.30517578125,0.06103515625,0.4447021484375,-0.80078125,0.3997802734375,-292.0,149.0,-149.0,101700.0,-3.125000238418579,0,0
1.1780537000013283,0.370147705078125,-0.450836181640625,0.311737060546875,-0.749969482421875,0.18310546875,0.06103515625,0.18310546875,0.4454345703125,-0.7994384765625,0.400390625,-292.0,149.0,-149.0,101700.0,-3.125000238418579,0,0
1.1781141999963438,0.370147705078125,-0.450836181640625,0.311737060546875,-0.749969482421875,-0.06103515625,-0.18310546875,-0.18310546875,0.443359375,-0.8013916015625,0.400390625,-292.0,149.0,-149.0,101700.0,-3.125000238418579,0,0
1.178174200002104,0.370147705078125,-0.450836181640625,0.311737060546875,-0.749969482421875,0.1220703125,0.06103515625,-0.18310546875,0.4466552734375,-0.80078125,0.398193359375,-292.0,149.0,-149.0,101700.0,-3.125000238418579,0,0
1.1782344999955967,0.370147705078125,-0.450836181640625,0.311737060546875,-0.749969482421875,0.244140625,-0.06103515625,-0.06103515625,0.4454345703125,-0.802490234375,0.399658203125,-292.0,149.0,-149.0,101700.0,-3.125000238418579,0,0
1.1782937999960268,0.370147705078125,-0.450836181640625,0.311737060546875,-0.749969482421875,-0.06103515625,0.06103515625,0.06103515625,0.4442138671875,-0.8011474609375,0.3992919921875,-292.0,149.0,-149.0,101700.0,-3.125000238418579,0,0
1.2507329999934882,0.370147705078125,-0.450836181640625,0.311737060546875,-0.749969482421875,0.06103515625,0.0,-0.1220703125,0.4459228515625,-0.8021240234375,0.3983154296875,-292.0,149.0,-149.0,101700.0,-3.125000238418579,0,0
1.250801500005764,0.370147705078125,-0.45086669921875,0.311737060546875,-0.749969482421875,0.06103515625,0.0,0.1220703125,0.4456787109375,-0.7989501953125,0.3988037109375,-292.0,149.0,-149.0,101700.0,-3.125000238418579,0,0
1.2508650999952806,0.370147705078125,-0.450836181640625,0.311737060546875,-0.75,-0.1220703125,-0.06103515625,-0.18310546875,0.4453125,-0.800537109375,0.400390625,-292.0,149.0,-149.0,101700.0,-3.125000238418579,0,0
1.250927999994019,0.370147705078125,-0.45086669921875,0.311737060546875,-0.75,0.06103515625,0.0,-0.06103515625,0.4466552734375,-0.800537109375,0.3980712890625,-292.0,149.0,-149.0,101700.0,-3.125000238418579,0,0
1.2509921000018949,0.370147705078125,-0.45086669921875,0.311737060546875,-0.75,-0.3662109375,-0.1220703125,0.1220703125,0.4478759765625,-0.7998046875,0.398681640625,-292.0,149.0,-149.0,101700.0,-3.125000238418579,0,0
1.251071699996828,0.370147705078125,-0.45086669921875,0.311737060546875,-0.75,-0.1220703125,-0.244140625,0.0,0.4454345703125,-0.8004150390625,0.398681640625,-293.0,150.0,-150.0,101700.0,-3.125000238418579,0,0
1.2511295000003884,0.370147705078125,-0.45086669921875,0.311737060546875,-0.75,0.244140625,-0.244140625,0.0,0.447265625,-0.80126953125,0.3992919921875,-293.0,150.0,-150.0,101700.0,-3.125000238418579,0,0
1.2511888000008184,0.370147705078125,-0.45086669921875,0.311737060546875,-0.75,-0.06103515625,-0.244140625,0.06103515625,0.4464111328125,-0.800537109375,0.398193359375,-293.0,150.0,-150.0,101700.0,-3.125000238418579,0,0
1.2512493999965955,0.370147705078125,-0.45086669921875,0.311737060546875,-0.75,-0.06103515625,-0.18310546875,-0.1220703125,0.4471435546875,-0.80322265625,0.39892578125,-293.0,150.0,-150.0,101700.0,-3.125000238418579,0,0
1.2516584999975748,0.370147705078125,-0.45086669921875,0.311737060546875,-0.75,0.1220703125,-0.18310546875,0.06103515625,0.4473876953125,-0.802001953125,0.3985595703125,-293.0,150.0,-150.0,101700.0,-3.125000238418579,0,0
1.251743400003761,0.370147705078125,-0.45086669921875,0.311737060546875,-0.75,0.1220703125,-0.18310546875,0.06103515625,0.4473876953125,-0.802001953125,0.3985595703125,-293.0,150.0,-150.0,101700.0,-3.125000238418579,0,0
1.304635699998471,0.370147705078125,-0.45086669921875,0.311737060546875,-0.749969482421875,-0.18310546875,-0.06103515625,-0.244140625,0.4481201171875,-0.802490234375,0.3985595703125,-293.0,150.0,-150.0,101700.0,-3.125000238418579,0,0
1.304697400002624,0.370147705078125,-0.45086669921875,0.311737060546875,-0.749969482421875,0.18310546875,0.06103515625,-0.244140625,0.44775390625,-0.80224609375,0.3975830078125,-293.0,150.0,-150.0,101700.0,-3.124000072479248,0,0
1.304753399992478,0.370147705078125,-0.45086669921875,0.311737060546875,-0.749969482421875,0.0,-0.06103515625,0.0,0.447021484375,-0.80126953125,0.3984375,-293.0,150.0,-150.0,101700.0,-3.124000072479248,0,0
1.3048061000008602,0.370147705078125,-0.45086669921875,0.311737060546875,-0.749969482421875,-0.30517578125,-0.18310546875,0.0,0.4454345703125,-0.8006591796875,0.3975830078125,-293.0,150.0,-150.0,101700.0,-3.124000072479248,0,0
1.3048601000045892,0.3701171875,-0.450897216796875,0.311737060546875,-0.749969482421875,0.0,-0.06103515625,-0.06103515625,0.4471435546875,-0.80126953125,0.3975830078125,-293.0,150.0,-150.0,101700.0,-3.124000072479248,0,0
1.3054258000047412,0.3701171875,-0.450897216796875,0.311737060546875,-0.749969482421875,-0.244140625,0.06103515625,-0.18310546875,0.44384765625,-0.802001953125,0.3992919921875,-293.0,150.0,-150.0,101700.0,-3.124000072479248,0,0
1.3054853999929037,0.3701171875,-0.450897216796875,0.311737060546875,-0.749969482421875,-0.244140625,0.06103515625,-0.18310546875,0.44384765625,-0.802001953125,0.3992919921875,-293.0,150.0,-150.0,101700.0,-3.124000072479248,0,0
1.3055390999943484,0.3701171875,-0.450897216796875,0.311737060546875,-0.749969482421875,0.0,-0.06103515625,-0.1220703125,0.4478759765625,-0.801025390625,0.398193359375,-293.0,150.0,-150.0,101700.0,-3.124000072479248,0,0
1.305591500000446,0.3701171875,-0.450897216796875,0.311737060546875,-0.749969482421875,0.1220703125,0.1220703125,-0.244140625,0.44775390625,-0.799560546875,0.3997802734375,-293.0,150.0,-150.0,101700.0,-3.124000072479248,0,0
1.3056444999965606,0.3701171875,-0.450897216796875,0.311737060546875,-0.749969482421875,0.0,0.0,-0.1220703125,0.445556640625,-0.800537109375,0.39697265625,-293.0,150.0,-150.0,101700.0,-3.124000072479248,0,0
1.3056969000026584,0.3701171875,-0.450897216796875,0.311737060546875,-0.749969482421875,0.0,-0.244140625,-0.06103515625,0.4423828125,-0.8013916015625,0.39794921875,-293.0,150.0,-150.0,101700.0,-3.124000072479248,0,0
1.368338100000983,0.3701171875,-0.450897216796875,0.311737060546875,-0.749969482421875,0.0,-0.244140625,-0.06103515625,0.4423828125,-0.8013916015625,0.39794921875,-293.0,150.0,-150.0,101700.0,-3.124000072479248,0,0
1.3684154999937164,0.3701171875,-0.450897216796875,0.311737060546875,-0.749969482421875,0.18310546875,0.0,0.0,0.445068359375,-0.802001953125,0.3988037109375,-293.0,149.0,-150.0,101700.0,-3.124000072479248,0,0
1.3684792999993078,0.3701171875,-0.450897216796875,0.311737060546875,-0.749969482421875,-0.244140625,-0.18310546875,0.0,0.44482421875,-0.8028564453125,0.3983154296875,-293.0,149.0,-150.0,101700.0,-3.124000072479248,0,0
1.3685394000058295,0.3701171875,-0.450897216796875,0.311737060546875,-0.749969482421875,-0.1220703125,0.0,-0.18310546875,0.4454345703125,-0.8028564453125,0.3985595703125,-293.0,149.0,-150.0,101700.0,-3.124000072479248,0,0
1.3686002000031294,0.3701171875,-0.450897216796875,0.311737060546875,-0.749969482421875,0.18310546875,-0.06103515625,0.1220703125,0.445556640625,-0.802001953125,0.398193359375,-293.0,149.0,-150.0,101700.0,-3.124000072479248,0,0
1.368657600003644,0.3701171875,-0.450897216796875,0.311737060546875,-0.749969482421875,0.18310546875,-0.06103515625,0.1220703125,0.445556640625,-0.802001953125,0.398193359375,-293.0,149.0,-150.0,101700.0,-3.124000072479248,0,0
1.368752800000948,0.3701171875,-0.450897216796875,0.311737060546875,-0.749969482421875,0.30517578125,0.0,0.06103515625,0.445068359375,-0.80224609375,0.398681640625,-293.0,149.0,-150.0,101700.0,-3.124000072479248,0,0
1.3699113000038778,0.3701171875,-0.450897216796875,0.311737060546875,-0.749969482421875,-0.06103515625,-0.06103515625,-0.06103515625,0.4459228515625,-0.802001953125,0.39794921875,-293.0,149.0,-150.0,101700.0,-3.124000072479248,0,0
1.3699723000027006,0.3701171875,-0.450897216796875,0.311767578125,-0.749969482421875,0.30517578125,-0.06103515625,0.0,0.4471435546875,-0.8018798828125,0.3973388671875,-293.0,149.0,-150.0,101700.0,-3.124000072479248,0,0
1.370366200004355,0.3701171875,-0.450897216796875,0.311737060546875,-0.749969482421875,0.18310546875,-0.18310546875,-0.06103515625,0.44580078125,-0.8017578125,0.3975830078125,-293.0,149.0,-150.0,101700.0,-3.124000072479248,0,0
1.3704386000026716,0.3701171875,-0.450897216796875,0.311767578125,-0.749969482421875,0.06103515625,0.1220703125,-0.18310546875,0.446533203125,-0.8016357421875,0.398193359375,-293.0,149.0,-150.0,101700.0,-3.124000072479248,0,0
1.37049929999921,0.3701171875,-0.450897216796875,0.311737060546875,-0.749969482421875,0.0,-0.1220703125,-0.1220703125,0.4453125,-0.8023681640625,0.3975830078125,-293.0,149.0,-150.0,101700.0,-3.124000072479248,0,0
1.3705583999981172,0.3701171875,-0.450897216796875,0.311737060546875,-0.749969482421875,-0.30517578125,-0.18310546875,-0.18310546875,0.4461669921875,-0.7994384765625,0.400146484375,-293.0,149.0,-150.0,101700.0,-3.124000072479248,0,0
1.436842199997045,0.3701171875,-0.450927734375,0.311737060546875,-0.749969482421875,-0.1220703125,-0.1220703125,0.1220703125,0.4432373046875,-0.7999267578125,0.39892578125,-293.0,149.0,-150.0,101700.0,-3.124000072479248,0,0
1.436910499993246,0.3701171875,-0.450927734375,0.311737060546875,-0.749969482421875,0.1220703125,-0.244140625,-0.1220703125,0.44580078125,-0.8006591796875,0.3975830078125,-293.0,149.0,-150.0,101700.0,-3.124000072479248,0,0
1.4369727000012062,0.3701171875,-0.450927734375,0.311737060546875,-0.749969482421875,-0.18310546875,-0.06103515625,-0.1220703125,0.44580078125,-0.802490234375,0.3984375,-293.0,149.0,-150.0,101700.0,-3.124000072479248,0,0
1.437032600006205,0.3701171875,-0.450927734375,0.311737060546875,-0.749969482421875,0.244140625,0.1220703125,0.0,0.447265625,-0.7999267578125,0.3988037109375,-293.0,149.0,-150.0,101700.0,-3.124000072479248,0,0
1.4370947999996133,0.3701171875,-0.450927734375,0.311737060546875,-0.749969482421875,0.1220703125,0.0,-0.06103515625,0.446044921875,-0.800048828125,0.3973388671875,-293.0,149.0,-150.0,101700.0,-3.124000072479248,0,0
1.437721700000111,0.3701171875,-0.450927734375,0.311737060546875,-0.749969482421875,0.0,-0.18310546875,-0.244140625,0.4462890625,-0.7991943359375,0.3988037109375,-293.0,149.0,-150.0,101700.0,-3.124000072479248,0,0
1.437786700000288,0.3701171875,-0.450927734375,0.311737060546875,-0.749969482421875,0.0,0.0,0.0,0.4464111328125,-0.8026123046875,0.39892578125,-294.0,151.0,-150.0,101700.0,-3.124000072479248,0,0
1.4378479000006337,0.3701171875,-0.450927734375,0.311737060546875,-0.749969482421875,-0.18310546875,-0.30517578125,0.0,0.44482421875,-0.801025390625,0.3985595703125,-294.0,151.0,-150.0,101700.0,-3.124000072479248,0,0
1.4379059000057168,0.3701171875,-0.450927734375,0.311737060546875,-0.749969482421875,0.0,-0.06103515625,0.0,0.4451904296875,-0.800537109375,0.3975830078125,-294.0,151.0,-150.0,101700.0,-3.124000072479248,0,0
1.4379644000000553,0.3701171875,-0.450927734375,0.311737060546875,-0.749969482421875,0.0,-0.06103515625,0.0,0.4451904296875,-0.800537109375,0.3975830078125,-294.0,151.0,-150.0,101700.0,-3.124000072479248,0,0
1.438022300004377,0.3701171875,-0.450927734375,0.311737060546875,-0.749969482421875,-0.18310546875,-0.244140625,0.0,0.4459228515625,-0.800048828125,0.3992919921875,-294.0,151.0,-150.0,101700.0,-3.124000072479248,0,0
1.4968393000017386,0.3701171875,-0.450927734375,0.311737060546875,-0.749969482421875,0.0,0.0,-0.18310546875,0.4439697265625,-0.8021240234375,0.3985595703125,-294.0,151.0,-150.0,101700.0,-3.124000072479248,0,0
1.4969100000016624,0.3701171875,-0.450927734375,0.311737060546875,-0.749969482421875,0.06103515625,-0.06103515625,-0.06103515625,0.4454345703125,-0.8018798828125,0.3970947265625,-294.0,151.0,-150.0,101700.0,-3.124000072479248,0,0
1.496968499996001,0.3701171875,-0.450927734375,0.311737060546875,-0.749969482421875,-0.1220703125,-0.06103515625,-0.1220703125,0.4451904296875,-0.8001708984375,0.3978271484375,-294.0,151.0,-150.0,101700.0,-3.125000238418579,0,0
1.4970240999973612,0.3701171875,-0.450927734375,0.311767578125,-0.74993896484375,-0.1220703125,-0.30517578125,-0.06103515625,0.447265625,-0.8021240234375,0.3994140625,-294.0,151.0,-150.0,101700.0,-3.125000238418579,0,0
1.4970804000040516,0.3701171875,-0.450927734375,0.311767578125,-0.74993896484375,0.1220703125,-0.1220703125,0.0,0.4447021484375,-0.80078125,0.3990478515625,-294.0,151.0,-150.0,101700.0,-3.125000238418579,0,0
1.4986004999955185,0.3701171875,-0.450927734375,0.311767578125,-0.74993896484375,0.1220703125,-0.1220703125,0.0,0.4447021484375,-0.80078125,0.3990478515625,-294.0,151.0,-150.0,101700.0,-3.125000238418579,0,0
1.4986613999935798,0.3701171875,-0.450927734375,0.311737060546875,-0.74993896484375,0.1220703125,0.06103515625,0.06103515625,0.4468994140625,-0.80078125,0.3983154296875,-294.0,151.0,-150.0,101700.0,-3.125000238418579,0,0
1.4987186999933328,0.3701171875,-0.450927734375,0.311767578125,-0.74993896484375,0.0,-0.06103515625,-0.06103515625,0.446044921875,-0.802490234375,0.39892578125,-294.0,151.0,-150.0,101700.0,-3.125000238418579,0,0
1.4987751000007847,0.3701171875,-0.450958251953125,0.311767578125,-0.74993896484375,0.06103515625,-0.244140625,0.0,0.4468994140625,-0.8026123046875,0.3975830078125,-294.0,151.0,-150.0,101700.0,-3.125000238418579,0,0
1.4988296999945305,0.3701171875,-0.450958251953125,0.311767578125,-0.74993896484375,0.1220703125,0.0,-0.06103515625,0.4456787109375,-0.8018798828125,0.398193359375,-294.0,151.0,-150.0,101700.0,-3.125000238418579,0,0
1.4988824000029126,0.3701171875,-0.450958251953125,0.311767578125,-0.74993896484375,-0.244140625,-0.18310546875,0.06103515625,0.4449462890625,-0.8001708984375,0.3975830078125,-294.0,151.0,-150.0,101700.0,-3.125000238418579,0,0
1.5593261000030907,0.3701171875,-0.450927734375,0.311767578125,-0.74993896484375,0.06103515625,-0.18310546875,0.06103515625,0.4444580078125,-0.80224609375,0.398681640625,-294.0,151.0,-150.0,101700.0,-3.125000238418579,0,0
1.5593915000063134,0.3701171875,-0.450927734375,0.311767578125,-0.74993896484375,0.244140625,-0.18310546875,0.0,0.44482421875,-0.8013916015625,0.3990478515625,-294.0,151.0,-150.0,101700.0,-3.125000238418579,0,0
1.5594473999954062,0.3701171875,-0.450958251953125,0.311767578125,-0.74993896484375,0.244140625,-0.18310546875,0.0,0.44482421875,-0.8013916015625,0.3990478515625,-294.0,150.0,-149.0,101700.0,-3.125000238418579,0,0
1.559502699994482,0.3701171875,-0.450958251953125,0.311767578125,-0.74993896484375,0.18310546875,-0.1220703125,-0.3662109375,0.447265625,-0.801025390625,0.3978271484375,-294.0,150.0,-149.0,101700.0,-3.125000238418579,0,0
1.5595602999965195,0.3701171875,-0.450958251953125,0.311767578125,-0.74993896484375,0.18310546875,-0.1220703125,-0.3662109375,0.447265625,-0.801025390625,0.3978271484375,-294.0,150.0,-149.0,101700.0,-3.125000238418579,0,0
1.5596139999979641,0.3701171875,-0.450958251953125,0.311767578125,-0.74993896484375,0.0,-0.18310546875,-0.1220703125,0.4464111328125,-0.8001708984375,0.3978271484375,-294.0,150.0,-149.0,101700.0,-3.125000238418579,0,0
1.55966709999484,0.3701171875,-0.450958251953125,0.311767578125,-0.74993896484375,0.0,0.06103515625,-0.1220703125,0.4456787109375,-0.80126953125,0.3983154296875,-294.0,150.0,-149.0,101700.0,-3.125000238418579,0,0
1.5603192999988096,0.370086669921875,-0.450958251953125,0.311767578125,-0.74993896484375,0.0,-0.06103515625,0.06103515625,0.4461669921875,-0.8018798828125,0.39892578125,-294.0,150.0,-149.0,101700.0,-3.125000238418579,0,0
1.5603784999984782,0.3701171875,-0.450958251953125,0.311767578125,-0.74993896484375,0.18310546875,-0.244140625,-0.06103515625,0.4442138671875,-0.800048828125,0.39794921875,-294.0,150.0,-149.0,101700.0,-3.125000238418579,0,0
1.5605786999949487,0.3701171875,-0.450958251953125,0.311767578125,-0.74993896484375,-0.1220703125,-0.1220703125,0.06103515625,0.446044921875,-0.8006591796875,0.3984375,-294.0,150.0,-149.0,101700.0,-3.125000238418579,0,0
1.5606597000005422,0.3701171875,-0.450958251953125,0.311767578125,-0.74993896484375,-0.06103515625,-0.06103515625,-0.06103515625,0.44482421875,-0.8017578125,0.3974609375,-294.0,150.0,-149.0,101700.0,-3.125000238418579,0,0
1.5607363000017358,0.3701171875,-0.450958251953125,0.311767578125,-0.74993896484375,0.0,-0.1220703125,-0.244140625,0.446533203125,-0.8009033203125,0.3985595703125,-294.0,150.0,-149.0,101700.0,-3.125000238418579,0,0
1.5607920000038575,0.3701171875,-0.450958251953125,0.311767578125,-0.74993896484375,0.0,-0.1220703125,-0.244140625,0.446533203125,-0.8009033203125,0.3985595703125,-294.0,150.0,-149.0,101700.0,-3.124000072479248,0,0
1.6280969999934314,0.370086669921875,-0.450958251953125,0.311767578125,-0.74993896484375,0.30517578125,0.06103515625,-0.18310546875,0.4493408203125,-0.79833984375,0.39892578125,-294.0,150.0,-149.0,101700.0,-3.124000072479248,0,0
1.628158000006806,0.370086669921875,-0.450958251953125,0.311767578125,-0.74993896484375,-0.06103515625,-0.18310546875,-0.1220703125,0.446533203125,-0.79931640625,0.3990478515625,-294.0,150.0,-149.0,101700.0,-3.124000072479248,0,0
1.6282134000066435,0.370086669921875,-0.450958251953125,0.311767578125,-0.74993896484375,0.06103515625,-0.1220703125,-0.1220703125,0.445556640625,-0.8017578125,0.3988037109375,-294.0,150.0,-149.0,101700.0,-3.124000072479248,0,0
1.6282680000003893,0.370086669921875,-0.450958251953125,0.311767578125,-0.74993896484375,0.0,-0.1220703125,0.06103515625,0.445556640625,-0.8018798828125,0.3994140625,-294.0,150.0,-149.0,101700.0,-3.124000072479248,0,0
1.628321500000311,0.370086669921875,-0.450958251953125,0.311767578125,-0.74993896484375,0.42724609375,-0.30517578125,0.0,0.4464111328125,-0.8013916015625,0.399169921875,-294.0,150.0,-149.0,101700.0,-3.124000072479248,0,0
1.6286313000018708,0.370086669921875,-0.450958251953125,0.311737060546875,-0.74993896484375,-0.30517578125,-0.1220703125,-0.18310546875,0.4462890625,-0.801513671875,0.397216796875,-294.0,150.0,-149.0,101700.0,-3.124000072479248,0,0
1.6286952999944333,0.370086669921875,-0.45098876953125,0.311767578125,-0.74993896484375,0.30517578125,0.0,0.0,0.4466552734375,-0.801025390625,0.3974609375,-294.0,150.0,-149.0,101700.0,-3.124000072479248,0,0
1.6287508999957936,0.370086669921875,-0.45098876953125,0.311767578125,-0.74993896484375,0.1220703125,-0.244140625,-0.1220703125,0.445556640625,-0.8016357421875,0.3963623046875,-295.0,149.0,-149.0,101700.0,-3.124000072479248,0,0
1.6288039999926696,0.370086669921875,-0.45098876953125,0.311767578125,-0.74993896484375,0.1220703125,-0.244140625,-0.1220703125,0.445556640625,-0.8016357421875,0.3963623046875,-295.0,149.0,-149.0,101700.0,-3.124000072479248,0,0
1.6288583999994444,0.370086669921875,-0.450958251953125,0.311767578125,-0.74993896484375,0.1220703125,-0.06103515625,-0.244140625,0.4447021484375,-0.8009033203125,0.4005126953125,-295.0,149.0,-149.0,101700.0,-3.124000072479248,0,0
1.6289136999985203,0.370086669921875,-0.450958251953125,0.311767578125,-0.74993896484375,0.0,0.0,-0.06103515625,0.445068359375,-0.8004150390625,0.398681640625,-295.0,149.0,-149.0,101700.0,-3.124000072479248,0,0
1.6863974000007147,0.370086669921875,-0.450958251953125,0.311767578125,-0.74993896484375,0.30517578125,0.0,-0.06103515625,0.443115234375,-0.80078125,0.3974609375,-295.0,149.0,-149.0,101700.0,-3.124000072479248,0,0
1.6864600999979302,0.3701171875,-0.450958251953125,0.311767578125,-0.74993896484375,0.06103515625,-0.06103515625,-0.06103515625,0.4439697265625,-0.802001953125,0.3980712890625,-295.0,149.0,-149.0,101700.0,-3.124000072479248,0,0
1.6865151999954833,0.3701171875,-0.450958251953125,0.311798095703125,-0.74993896484375,-0.1220703125,-0.30517578125,0.0,0.4447021484375,-0.8021240234375,0.3975830078125,-295.0,149.0,-149.0,101700.0,-3.124000072479248,0,0
1.686567600001581,0.370086669921875,-0.450958251953125,0.311798095703125,-0.749908447265625,0.1220703125,-0.30517578125,0.06103515625,0.4464111328125,-0.801513671875,0.398193359375,-295.0,149.0,-149.0,101700.0,-3.124000072479248,0,0
1.6866220999945654,0.370086669921875,-0.450958251953125,0.311798095703125,-0.749908447265625,0.1220703125,-0.30517578125,0.06103515625,0.4464111328125,-0.801513671875,0.398193359375,-295.0,149.0,-149.0,101700.0,-3.124000072479248,0,0
1.7005640999996103,0.370086669921875,-0.450958251953125,0.311767578125,-0.74993896484375,-0.18310546875,0.06103515625,0.0,0.447509765625,-0.7999267578125,0.3985595703125,-295.0,149.0,-149.0,101701.0,-3.127000093460083,0,0
1.7006302999943728,0.370086669921875,-0.450958251953125,0.311767578125,-0.74993896484375,0.18310546875,0.0,-0.06103515625,0.4468994140625,-0.80029296875,0.399169921875,-295.0,149.0,-149.0,101701.0,-3.127000093460083,0,0
1.7006874999933643,0.370086669921875,-0.450958251953125,0.311767578125,-0.74993896484375,0.1220703125,-0.30517578125,-0.18310546875,0.445068359375,-0.80029296875,0.3997802734375,-295.0,149.0,-149.0,101701.0,-3.127000093460083,0,0
1.7007425000047078,0.3701171875,-0.450958251953125,0.311767578125,-0.74993896484375,0.1220703125,-0.06103515625,0.0,0.445556640625,-0.8011474609375,0.39794921875,-295.0,149.0,-149.0,101701.0,-3.127000093460083,0,0
1.700797400000738,0.3701171875,-0.450958251953125,0.311767578125,-0.74993896484375,0.1220703125,-0.06103515625,0.1220703125,0.445068359375,-0.8046875,0.3990478515625,-295.0,149.0,-149.0,101701.0,-3.127000093460083,0,0
1.700850499997614,0.370086669921875,-0.450958251953125,0.311767578125,-0.74993896484375,0.0,-0.06103515625,-0.06103515625,0.447021484375,-0.8021240234375,0.3973388671875,-295.0,149.0,-149.0,101701.0,-3.127000093460083,0,0
1.7499083000002429,0.370086669921875,-0.450958251953125,0.311798095703125,-0.749908447265625,-0.06103515625,0.0,-0.1220703125,0.4454345703125,-0.80322265625,0.3968505859375,-295.0,149.0,-149.0,101701.0,-3.127000093460083,0,0
1.7499724999943282,0.370086669921875,-0.450958251953125,0.311798095703125,-0.749908447265625,0.1220703125,-0.1220703125,-0.18310546875,0.4454345703125,-0.8018798828125,0.3978271484375,-295.0,149.0,-149.0,101701.0,-3.127000093460083,0,0
1.7500270000018645,0.370086669921875,-0.45098876953125,0.311798095703125,-0.749908447265625,0.18310546875,0.06103515625,-0.06103515625,0.4461669921875,-0.8026123046875,0.398681640625,-295.0,149.0,-149.0,101701.0,-3.127000093460083,0,0
1.7500795999949332,0.370086669921875,-0.45098876953125,0.311798095703125,-0.749908447265625,0.18310546875,0.06103515625,-0.06103515625,0.4461669921875,-0.8026123046875,0.398681640625,-295.0,149.0,-149.0,101701.0,-3.127000093460083,0,0
1.7501325000048382,0.370086669921875,-0.45098876953125,0.311798095703125,-0.749908447265625,0.1220703125,0.06103515625,0.0,0.447509765625,-0.8011474609375,0.3963623046875,-295.0,150.0,-150.0,101701.0,-3.127000093460083,0,0
1.7501851999986684,0.370086669921875,-0.45098876953125,0.311798095703125,-0.749908447265625,0.0,0.06103515625,-0.1220703125,0.44580078125,-0.8037109375,0.39794921875,-295.0,150.0,-150.0,101701.0,-3.127000093460083,0,0
1.7502387999993516,0.370086669921875,-0.45098876953125,0.311798095703125,-0.749908447265625,-0.06103515625,-0.06103515625,0.1220703125,0.44384765625,-0.804443359375,0.3990478515625,-295.0,150.0,-150.0,101701.0,-3.127000093460083,0,0
1.7513978000060888,0.370086669921875,-0.45098876953125,0.311798095703125,-0.749908447265625,0.0,0.0,0.06103515625,0.4462890625,-0.8021240234375,0.3988037109375,-295.0,150.0,-150.0,101701.0,-3.127000093460083,0,0
1.7514595999964513,0.370086669921875,-0.45098876953125,0.311798095703125,-0.749908447265625,0.30517578125,-0.06103515625,-0.18310546875,0.44482421875,-0.80224609375,0.399658203125,-295.0,150.0,-150.0,101701.0,-3.127000093460083,0,0
1.7515151999978116,0.370086669921875,-0.45098876953125,0.311798095703125,-0.749908447265625,0.18310546875,0.1220703125,-0.18310546875,0.4471435546875,-0.8037109375,0.39794921875,-295.0,150.0,-150.0,101701.0,-3.127000093460083,0,0
1.7515696000045864,0.370086669921875,-0.45098876953125,0.311798095703125,-0.749908447265625,0.1220703125,-0.06103515625,0.244140625,0.4462890625,-0.8006591796875,0.3973388671875,-295.0,150.0,-150.0,101701.0,-3.127000093460083,0,0
1.7516230000037467,0.370086669921875,-0.45098876953125,0.311798095703125,-0.749908447265625,-0.244140625,-0.18310546875,-0.1220703125,0.44384765625,-0.8011474609375,0.39892578125,-295.0,150.0,-150.0,101701.0,-3.127000093460083,0,0
1.7516758999990998,0.370086669921875,-0.45098876953125,0.311798095703125,-0.749908447265625,-0.244140625,-0.18310546875,-0.1220703125,0.44384765625,-0.8011474609375,0.39892578125,-295.0,150.0,-150.0,101701.0,-3.127000093460083,0,0
1.818451200000709,0.370086669921875,-0.45098876953125,0.311798095703125,-0.749908447265625,0.244140625,-0.1220703125,-0.18310546875,0.4453125,-0.80029296875,0.3992919921875,-295.0,150.0,-150.0,101701.0,-3.125000238418579,0,0
1.81851579999784,0.370086669921875,-0.45098876953125,0.311798095703125,-0.749908447265625,0.1220703125,0.0,0.06103515625,0.4459228515625,-0.8021240234375,0.3980712890625,-295.0,150.0,-150.0,101701.0,-3.125000238418579,0,0
1.8185761000058847,0.370086669921875,-0.45098876953125,0.311798095703125,-0.749908447265625,-0.1220703125,-0.30517578125,0.0,0.4466552734375,-0.802734375,0.3966064453125,-295.0,150.0,-150.0,101701.0,-3.125000238418579,0,0
1.8186453999951482,0.370086669921875,-0.45098876953125,0.31182861328125,-0.749908447265625,-0.06103515625,-0.06103515625,-0.18310546875,0.4451904296875,-0.80126953125,0.3997802734375,-295.0,150.0,-150.0,101701.0,-3.125000238418579,0,0
1.8187021000048844,0.370086669921875,-0.45098876953125,0.311798095703125,-0.749908447265625,0.18310546875,-0.244140625,-0.1220703125,0.4439697265625,-0.802490234375,0.400146484375,-295.0,150.0,-150.0,101701.0,-3.125000238418579,0,0
1.8189240999927279,0.370086669921875,-0.45098876953125,0.311798095703125,-0.749908447265625,-0.1220703125,0.06103515625,-0.06103515625,0.44677734375,-0.8006591796875,0.3974609375,-295.0,150.0,-150.0,101701.0,-3.125000238418579,0,0
1.8190001000039047,0.370086669921875,-0.45098876953125,0.311798095703125,-0.749908447265625,0.244140625,-0.1220703125,-0.06103515625,0.44580078125,-0.8023681640625,0.39892578125,-295.0,150.0,-150.0,101701.0,-3.125000238418579,0,0
1.8191095999936806,0.370086669921875,-0.45098876953125,0.311798095703125,-0.749908447265625,0.244140625,-0.1220703125,-0.06103515625,0.44580078125,-0.8023681640625,0.39892578125,-295.0,150.0,-150.0,101701.0,-3.125000238418579,0,0
1.8191640000004554,0.370086669921875,-0.45098876953125,0.311798095703125,-0.749908447265625,0.0,0.0,0.0,0.4476318359375,-0.802734375,0.3966064453125,-295.0,150.0,-150.0,101701.0,-3.125000238418579,0,0
1.8192165999935241,0.370086669921875,-0.45098876953125,0.311798095703125,-0.749908447265625,-0.06103515625,-0.1220703125,0.1220703125,0.44580078125,-0.801513671875,0.3994140625,-295.0,150.0,-150.0,101701.0,-3.125000238418579,0,0
1.819271000000299,0.370086669921875,-0.45098876953125,0.311798095703125,-0.749908447265625,0.1220703125,-0.1220703125,0.1220703125,0.44482421875,-0.802490234375,0.3995361328125,-295.0,149.0,-151.0,101701.0,-3.125000238418579,0,0
1.882215699995868,0.3699951171875,-0.450958251953125,0.3118896484375,-0.74993896484375,-0.1220703125,-0.244140625,-0.06103515625,0.4454345703125,-0.8017578125,0.3980712890625,-295.0,149.0,-151.0,101701.0,-3.125000238418579,0,0
1.8822832000005292,0.3699951171875,-0.450958251953125,0.3118896484375,-0.74993896484375,-0.06103515625,-0.06103515625,-0.18310546875,0.4466552734375,-0.802734375,0.3984375,-295.0,149.0,-151.0,101701.0,-3.125000238418579,0,0
1.8823402999987593,0.3699951171875,-0.450958251953125,0.3118896484375,-0.74993896484375,-0.06103515625,-0.06103515625,0.1220703125,0.4442138671875,-0.80126953125,0.3992919921875,-295.0,149.0,-151.0,101701.0,-3.125000238418579,0,0
1.8823978000000352,0.3699951171875,-0.450958251953125,0.3118896484375,-0.74993896484375,-0.06103515625,-0.06103515625,0.1220703125,0.4442138671875,-0.80126953125,0.3992919921875,-295.0,149.0,-151.0,101701.0,-3.125000238418579,0,0
1.8824556000035955,0.3699951171875,-0.450958251953125,0.3118896484375,-0.74993896484375,0.0,-0.18310546875,-0.1220703125,0.4453125,-0.8026123046875,0.399658203125,-295.0,149.0,-151.0,101701.0,-3.125000238418579,0,0
1.8829184000060195,0.3699951171875,-0.450958251953125,0.3118896484375,-0.74993896484375,0.244140625,0.1220703125,0.0,0.445556640625,-0.802978515625,0.3980712890625,-295.0,149.0,-151.0,101701.0,-3.125000238418579,0,0
1.8829793000040809,0.3699951171875,-0.450958251953125,0.3118896484375,-0.74993896484375,0.06103515625,0.244140625,-0.18310546875,0.4461669921875,-0.8001708984375,0.3988037109375,-295.0,149.0,-151.0,101701.0,-3.125000238418579,0,0
1.8830346000031568,0.3699951171875,-0.450958251953125,0.3118896484375,-0.74993896484375,0.0,-0.30517578125,-0.244140625,0.4464111328125,-0.8013916015625,0.3990478515625,-295.0,149.0,-151.0,101701.0,-3.126000165939331,0,0
1.8830880000023171,0.3699951171875,-0.450958251953125,0.3118896484375,-0.74993896484375,-0.06103515625,-0.18310546875,0.1220703125,0.44482421875,-0.8013916015625,0.3980712890625,-295.0,149.0,-151.0,101701.0,-3.126000165939331,0,0
1.8831408999976702,0.3699951171875,-0.450958251953125,0.3118896484375,-0.74993896484375,0.18310546875,0.06103515625,-0.18310546875,0.447509765625,-0.8028564453125,0.3983154296875,-295.0,149.0,-151.0,101701.0,-3.126000165939331,0,0
1.8831930000014836,0.3699951171875,-0.450958251953125,0.311859130859375,-0.74993896484375,0.0,-0.18310546875,-0.06103515625,0.4459228515625,-0.8028564453125,0.3992919921875,-295.0,149.0,-151.0,101701.0,-3.126000165939331,0,0
1.9451055999961682,0.3699951171875,-0.450958251953125,0.311859130859375,-0.74993896484375,0.18310546875,0.0,0.1220703125,0.4447021484375,-0.800048828125,0.3992919921875,-295.0,149.0,-151.0,101701.0,-3.126000165939331,0,0
1.9451716000039596,0.3699951171875,-0.450958251953125,0.3118896484375,-0.74993896484375,0.1220703125,-0.1220703125,0.1220703125,0.443359375,-0.80419921875,0.398681640625,-295.0,149.0,-151.0,101701.0,-3.126000165939331,0,0
1.9452271000045585,0.3699951171875,-0.450958251953125,0.3118896484375,-0.74993896484375,0.1220703125,-0.1220703125,0.1220703125,0.443359375,-0.80419921875,0.398681640625,-295.0,149.0,-151.0,101701.0,-3.126000165939331,0,0
1.94528139999602,0.3699951171875,-0.450958251953125,0.3118896484375,-0.74993896484375,0.0,-0.06103515625,-0.06103515625,0.447021484375,-0.80078125,0.398681640625,-295.0,149.0,-151.0,101701.0,-3.126000165939331,0,0
1.9453349999967031,0.3699951171875,-0.450958251953125,0.3118896484375,-0.74993896484375,-0.244140625,-0.244140625,0.06103515625,0.4466552734375,-0.800537109375,0.3984375,-295.0,149.0,-151.0,101701.0,-3.126000165939331,0,0
1.945387900006608,0.3699951171875,-0.450958251953125,0.3118896484375,-0.74993896484375,0.1220703125,0.06103515625,-0.244140625,0.4468994140625,-0.8031005859375,0.3988037109375,-295.0,149.0,-151.0,101701.0,-3.126000165939331,0,0
1.9454401999973925,0.3699951171875,-0.450958251953125,0.3118896484375,-0.74993896484375,0.1220703125,0.06103515625,-0.244140625,0.4468994140625,-0.8031005859375,0.3988037109375,-295.0,150.0,-151.0,101701.0,-3.126000165939331,0,0
1.9458878000004916,0.3699951171875,-0.450958251953125,0.3118896484375,-0.74993896484375,-0.1220703125,-0.244140625,0.1220703125,0.4453125,-0.801513671875,0.3983154296875,-295.0,150.0,-151.0,101701.0,-3.126000165939331,0,0
1.9459443999949144,0.3699951171875,-0.45098876953125,0.3118896484375,-0.74993896484375,0.06103515625,0.06103515625,-0.1220703125,0.44677734375,-0.802001953125,0.396484375,-295.0,150.0,-151.0,101701.0,-3.126000165939331,0,0
1.945998099996359,0.3699951171875,-0.45098876953125,0.3118896484375,-0.74993896484375,0.06103515625,0.0,0.06103515625,0.4483642578125,-0.8017578125,0.3988037109375,-295.0,150.0,-151.0,101701.0,-3.126000165939331,0,0
1.946051199993235,0.3699951171875,-0.45098876953125,0.3118896484375,-0.74993896484375,-0.18310546875,0.0,0.18310546875,0.4451904296875,-0.8021240234375,0.3980712890625,-295.0,150.0,-151.0,101701.0,-3.126000165939331,0,0
1.946105399998487,0.3699951171875,-0.45098876953125,0.3118896484375,-0.74993896484375,-0.18310546875,0.0,0.18310546875,0.4451904296875,-0.8021240234375,0.3980712890625,-295.0,150.0,-151.0,101701.0,-3.126000165939331,0,0
1.9461578000045847,0.3699951171875,-0.450958251953125,0.3118896484375,-0.74993896484375,-0.18310546875,-0.18310546875,0.0,0.4453125,-0.8009033203125,0.399658203125,-295.0,150.0,-151.0,101701.0,-3.126000165939331,0,0
2.009399000002304,0.3699951171875,-0.450958251953125,0.311859130859375,-0.74993896484375,0.06103515625,-0.18310546875,-0.06103515625,0.444091796875,-0.80224609375,0.401123046875,-295.0,150.0,-151.0,101701.0,-3.126000165939331,0,0
2.0094613999972353,0.3699951171875,-0.450958251953125,0.311859130859375,-0.74993896484375,0.18310546875,-0.06103515625,0.06103515625,0.4444580078125,-0.8009033203125,0.3980712890625,-295.0,150.0,-151.0,101701.0,-3.126000165939331,0,0
2.0095200999930967,0.3699951171875,-0.450958251953125,0.3118896484375,-0.74993896484375,0.244140625,-0.18310546875,-0.30517578125,0.4461669921875,-0.8043212890625,0.3990478515625,-295.0,150.0,-151.0,101701.0,-3.126000165939331,0,0
2.0095739999960642,0.3699951171875,-0.450958251953125,0.3118896484375,-0.74993896484375,0.18310546875,-0.1220703125,0.18310546875,0.4429931640625,-0.80126953125,0.3990478515625,-295.0,150.0,-151.0,101701.0,-3.126000165939331,0,0
2.0096308999927714,0.3699951171875,-0.450958251953125,0.3118896484375,-0.74993896484375,0.06103515625,-0.1220703125,0.0,0.4464111328125,-0.802001953125,0.3995361328125,-295.0,150.0,-151.0,101701.0,-3.126000165939331,0,0
2.0097005999996327,0.3699951171875,-0.450958251953125,0.3118896484375,-0.74993896484375,-0.30517578125,-0.1220703125,-0.3662109375,0.44482421875,-0.8016357421875,0.3975830078125,-295.0,150.0,-151.0,101701.0,-3.126000165939331,0,0
2.0098270000016782,0.3699951171875,-0.450958251953125,0.3118896484375,-0.74993896484375,-0.30517578125,-0.1220703125,-0.3662109375,0.44482421875,-0.8016357421875,0.3975830078125,-295.0,150.0,-151.0,101701.0,-3.126000165939331,0,0
2.00988120000693,0.3699951171875,-0.450958251953125,0.311859130859375,-0.74993896484375,0.0,-0.18310546875,0.0,0.447509765625,-0.79931640625,0.400390625,-295.0,150.0,-151.0,101701.0,-3.126000165939331,0,0
2.009934300003806,0.3699951171875,-0.450958251953125,0.3118896484375,-0.74993896484375,-0.3662109375,-0.1220703125,0.06103515625,0.4453125,-0.8017578125,0.3985595703125,-295.0,150.0,-151.0,101701.0,-3.126000165939331,0,0
2.009985800003051,0.3699951171875,-0.450958251953125,0.3118896484375,-0.74993896484375,0.06103515625,0.0,0.0,0.4461669921875,-0.801025390625,0.3974609375,-295.0,150.0,-151.0,101701.0,-3.126000165939331,0,0
2.0100395000044955,0.3699951171875,-0.450958251953125,0.311859130859375,-0.74993896484375,-0.06103515625,0.0,-0.1220703125,0.4466552734375,-0.80029296875,0.3975830078125,-295.0,150.0,-151.0,101701.0,-3.126000165939331,0,0
2.0693406999926083,0.3699951171875,-0.450958251953125,0.311859130859375,-0.74993896484375,0.0,-0.06103515625,0.06103515625,0.44482421875,-0.8017578125,0.39892578125,-295.0,150.0,-152.0,101701.0,-3.126000165939331,0,0
2.0694012000021758,0.3699951171875,-0.450958251953125,0.311859130859375,-0.74993896484375,0.1220703125,-0.1220703125,-0.1220703125,0.44775390625,-0.802734375,0.4000244140625,-295.0,150.0,-152.0,101701.0,-3.126000165939331,0,0
2.0694553999928758,0.3699951171875,-0.450958251953125,0.311859130859375,-0.74993896484375,0.1220703125,-0.1220703125,-0.1220703125,0.44775390625,-0.802734375,0.4000244140625,-295.0,150.0,-152.0,101701.0,-3.126000165939331,0,0
2.069506999992882,0.3699951171875,-0.450958251953125,0.311859130859375,-0.74993896484375,0.06103515625,-0.3662109375,0.06103515625,0.4471435546875,-0.8018798828125,0.3990478515625,-295.0,150.0,-152.0,101701.0,-3.126000165939331,0,0
2.069559900002787,0.3699951171875,-0.450958251953125,0.311859130859375,-0.74993896484375,0.1220703125,0.1220703125,0.06103515625,0.4471435546875,-0.8004150390625,0.3988037109375,-295.0,150.0,-152.0,101701.0,-3.126000165939331,0,0
2.069628199998988,0.3699951171875,-0.450958251953125,0.311859130859375,-0.74993896484375,0.0,-0.18310546875,-0.244140625,0.4464111328125,-0.7994384765625,0.398193359375,-295.0,150.0,-152.0,101701.0,-3.126000165939331,0,0
2.069682500005001,0.369964599609375,-0.45098876953125,0.311859130859375,-0.74993896484375,0.1220703125,-0.18310546875,0.1220703125,0.4471435546875,-0.800537109375,0.3990478515625,-295.0,150.0,-152.0,101701.0,-3.126000165939331,0,0
2.0697347999957856,0.369964599609375,-0.45098876953125,0.311859130859375,-0.74993896484375,0.1220703125,0.06103515625,0.06103515625,0.4461669921875,-0.802978515625,0.3990478515625,-295.0,150.0,-152.0,101701.0,-3.126000165939331,0,0
2.069787100001122,0.369964599609375,-0.45098876953125,0.311859130859375,-0.74993896484375,-0.06103515625,-0.18310546875,-0.18310546875,0.4473876953125,-0.8013916015625,0.3985595703125,-295.0,150.0,-152.0,101701.0,-3.126000165939331,0,0
2.069838700001128,0.369964599609375,-0.45098876953125,0.311859130859375,-0.74993896484375,0.0,-0.06103515625,0.0,0.4468994140625,-0.8004150390625,0.39794921875,-295.0,150.0,-152.0,101701.0,-3.126000165939331,0,0
2.069891399994958,0.369964599609375,-0.45098876953125,0.311859130859375,-0.74993896484375,-0.1220703125,-0.06103515625,-0.06103515625,0.44873046875,-0.803466796875,0.3995361328125,-295.0,150.0,-152.0,101701.0,-3.126000165939331,0,0
2.0699447999941185,0.369964599609375,-0.45098876953125,0.311859130859375,-0.74993896484375,0.1220703125,-0.06103515625,-0.30517578125,0.44482421875,-0.79931640625,0.398681640625,-295.0,150.0,-152.0,101701.0,-3.126000165939331,0,0
2.1371112000051653,0.369964599609375,-0.45098876953125,0.311859130859375,-0.74993896484375,0.1220703125,-0.06103515625,-0.30517578125,0.44482421875,-0.79931640625,0.398681640625,-295.0,150.0,-152.0,101701.0,-3.126000165939331,0,0
2.1371736000000965,0.369964599609375,-0.45098876953125,0.311859130859375,-0.74993896484375,0.18310546875,-0.244140625,0.06103515625,0.4456787109375,-0.801025390625,0.3973388671875,-295.0,150.0,-152.0,101701.0,-3.126000165939331,0,0
2.1372299999929965,0.369964599609375,-0.45098876953125,0.311859130859375,-0.74993896484375,0.3662109375,0.06103515625,-0.18310546875,0.4442138671875,-0.8023681640625,0.3985595703125,-295.0,150.0,-152.0,101701.0,-3.126000165939331,0,0
2.13728500000434,0.369964599609375,-0.45098876953125,0.311859130859375,-0.74993896484375,-0.18310546875,0.1220703125,-0.18310546875,0.4459228515625,-0.8011474609375,0.400146484375,-295.0,150.0,-152.0,101701.0,-3.126000165939331,0,0
2.137340999994194,0.369964599609375,-0.45098876953125,0.311859130859375,-0.74993896484375,0.1220703125,0.0,0.0,0.44775390625,-0.8009033203125,0.39697265625,-295.0,150.0,-152.0,101701.0,-3.126000165939331,0,0
2.137395199999446,0.369964599609375,-0.45098876953125,0.311859130859375,-0.74993896484375,-0.06103515625,0.06103515625,-0.1220703125,0.44775390625,-0.7998046875,0.39794921875,-295.0,150.0,-152.0,101701.0,-3.126000165939331,0,0
2.137802199998987,0.369964599609375,-0.45098876953125,0.311859130859375,-0.74993896484375,-0.06103515625,0.0,0.06103515625,0.4449462890625,-0.8028564453125,0.3975830078125,-295.0,150.0,-152.0,101701.0,-3.126000165939331,0,0
2.137888800003566,0.369964599609375,-0.45098876953125,0.311859130859375,-0.74993896484375,-0.06103515625,0.0,0.06103515625,0.4449462890625,-0.8028564453125,0.3975830078125,-296.0,151.0,-154.0,101701.0,-3.126000165939331,0,0
2.1379423000034876,0.369873046875,-0.450958251953125,0.311920166015625,-0.75,0.1220703125,-0.06103515625,-0.1220703125,0.4462890625,-0.802001953125,0.3994140625,-296.0,151.0,-154.0,101701.0,-3.126000165939331,0,0
2.1380802000057884,0.369873046875,-0.450958251953125,0.311920166015625,-0.75,0.1220703125,-0.06103515625,-0.1220703125,0.4462890625,-0.802001953125,0.3994140625,-296.0,151.0,-154.0,101701.0,-3.126000165939331,0,0
2.138137600006303,0.369873046875,-0.450958251953125,0.3118896484375,-0.75,0.1220703125,0.06103515625,-0.06103515625,0.4459228515625,-0.7998046875,0.3988037109375,-296.0,151.0,-154.0,101701.0,-3.126000165939331,0,0
2.1381914999947185,0.369873046875,-0.450958251953125,0.311920166015625,-0.75,0.06103515625,0.18310546875,-0.06103515625,0.445068359375,-0.7999267578125,0.3992919921875,-296.0,151.0,-154.0,101701.0,-3.126000165939331,0,0
2.2004420000012033,0.369842529296875,-0.450958251953125,0.3118896484375,-0.75,0.1220703125,-0.244140625,-0.1220703125,0.4454345703125,-0.800048828125,0.399658203125,-296.0,151.0,-154.0,101701.0,-3.126000165939331,0,0
2.20050700000138,0.369842529296875,-0.450958251953125,0.3118896484375,-0.75,-0.06103515625,-0.42724609375,0.0,0.44775390625,-0.8021240234375,0.3983154296875,-296.0,151.0,-154.0,101701.0,-3.126000165939331,0,0
2.2005626000027405,0.369842529296875,-0.450958251953125,0.3118896484375,-0.75,-0.06103515625,-0.42724609375,0.0,0.44775390625,-0.8021240234375,0.3983154296875,-296.0,151.0,-154.0,101701.0,-3.125000238418579,0,0
2.200615800000378,0.369842529296875,-0.450958251953125,0.3118896484375,-0.75,-0.18310546875,-0.244140625,-0.1220703125,0.4443359375,-0.8004150390625,0.3994140625,-296.0,151.0,-154.0,101701.0,-3.125000238418579,0,0
2.200670899997931,0.369842529296875,-0.450958251953125,0.3118896484375,-0.75,-0.18310546875,-0.244140625,-0.1220703125,0.4443359375,-0.8004150390625,0.3994140625,-296.0,151.0,-154.0,101701.0,-3.125000238418579,0,0
2.2007438000000548,0.369873046875,-0.450958251953125,0.311920166015625,-0.75,-0.06103515625,-0.244140625,-0.1220703125,0.44287109375,-0.801513671875,0.399169921875,-296.0,151.0,-154.0,101701.0,-3.125000238418579,0,0
2.2009686999954283,0.369873046875,-0.450958251953125,0.3118896484375,-0.75,0.0,0.0,0.1220703125,0.4447021484375,-0.79931640625,0.3994140625,-296.0,151.0,-154.0,101701.0,-3.125000238418579,0,0
2.2010443000035593,0.369873046875,-0.450958251953125,0.3118896484375,-0.75,-0.06103515625,-0.1220703125,0.06103515625,0.4453125,-0.80322265625,0.400390625,-296.0,151.0,-154.0,101701.0,-3.125000238418579,0,0
2.2011129000020446,0.369873046875,-0.450958251953125,0.311920166015625,-0.75,-0.06103515625,-0.244140625,-0.06103515625,0.4442138671875,-0.802490234375,0.3990478515625,-296.0,151.0,-154.0,101701.0,-3.125000238418579,0,0
2.2011677999980748,0.369873046875,-0.450927734375,0.311920166015625,-0.75,0.0,0.1220703125,-0.06103515625,0.4444580078125,-0.800537109375,0.399658203125,-296.0,151.0,-154.0,101701.0,-3.125000238418579,0,0
2.2012198000011267,0.369873046875,-0.450927734375,0.311920166015625,-0.75,-0.06103515625,-0.1220703125,0.18310546875,0.4454345703125,-0.8017578125,0.3983154296875,-296.0,151.0,-154.0,101701.0,-3.125000238418579,0,0
2.2012723999941954,0.369873046875,-0.450958251953125,0.311920166015625,-0.75,0.1220703125,-0.18310546875,-0.06103515625,0.4459228515625,-0.8001708984375,0.3984375,-296.0,151.0,-154.0,101701.0,-3.125000238418579,0,0
2.2598465000046417,0.369873046875,-0.450927734375,0.311920166015625,-0.75,-0.18310546875,0.06103515625,0.1220703125,0.4454345703125,-0.800537109375,0.399169921875,-296.0,151.0,-153.0,101701.0,-3.125000238418579,0,0
2.2599092000018572,0.369873046875,-0.450927734375,0.3118896484375,-0.75,0.1220703125,0.0,0.0,0.444580078125,-0.8009033203125,0.3990478515625,-296.0,151.0,-153.0,101701.0,-3.125000238418579,0,0
2.259964700002456,0.369873046875,-0.450927734375,0.3118896484375,-0.75,-0.06103515625,-0.06103515625,0.0,0.4443359375,-0.7989501953125,0.3973388671875,-296.0,151.0,-153.0,101701.0,-3.125000238418579,0,0
2.260018200002378,0.369873046875,-0.450927734375,0.3118896484375,-0.75,0.0,-0.06103515625,0.0,0.4466552734375,-0.80029296875,0.39892578125,-296.0,151.0,-153.0,101701.0,-3.125000238418579,0,0
2.26060839999991,0.369873046875,-0.450958251953125,0.3118896484375,-0.75,-0.30517578125,-0.06103515625,0.1220703125,0.4456787109375,-0.8016357421875,0.3974609375,-296.0,151.0,-153.0,101701.0,-3.125000238418579,0,0
2.260670799994841,0.369873046875,-0.450927734375,0.3118896484375,-0.75,0.06103515625,0.0,-0.1220703125,0.4434814453125,-0.8023681640625,0.398681640625,-296.0,151.0,-153.0,101701.0,-3.125000238418579,0,0
2.2607372000056785,0.369873046875,-0.450927734375,0.3118896484375,-0.75,0.30517578125,-0.18310546875,-0.18310546875,0.445068359375,-0.8033447265625,0.400146484375,-296.0,151.0,-153.0,101701.0,-3.125000238418579,0,0
2.2608265000017127,0.369873046875,-0.450927734375,0.3118896484375,-0.75,-0.30517578125,0.06103515625,-0.06103515625,0.4447021484375,-0.798583984375,0.3983154296875,-296.0,151.0,-153.0,101701.0,-3.125000238418579,0,0
2.26087969999935,0.369873046875,-0.450927734375,0.3118896484375,-0.75,0.244140625,-0.1220703125,-0.1220703125,0.4459228515625,-0.8011474609375,0.3983154296875,-296.0,151.0,-153.0,101701.0,-3.125000238418579,0,0
2.260931500000879,0.369873046875,-0.450927734375,0.3118896484375,-0.75,0.244140625,-0.1220703125,-0.1220703125,0.4459228515625,-0.8011474609375,0.3983154296875,-296.0,151.0,-153.0,101701.0,-3.125000238418579,0,0
2.2609843999962322,0.369873046875,-0.450927734375,0.3118896484375,-0.75,0.06103515625,0.0,-0.30517578125,0.4456787109375,-0.802001953125,0.3995361328125,-296.0,151.0,-153.0,101701.0,-3.126000165939331,0,0
2.328896999999415,0.369873046875,-0.450927734375,0.3118896484375,-0.75,0.0,-0.18310546875,-0.18310546875,0.4453125,-0.80126953125,0.3973388671875,-296.0,151.0,-153.0,101701.0,-3.126000165939331,0,0
2.3289633999957005,0.369873046875,-0.450927734375,0.3118896484375,-0.75,0.06103515625,-0.06103515625,0.0,0.4437255859375,-0.8017578125,0.399169921875,-296.0,151.0,-153.0,101701.0,-3.126000165939331,0,0
2.3290204999939306,0.369873046875,-0.450927734375,0.3118896484375,-0.75,0.244140625,-0.06103515625,-0.1220703125,0.4456787109375,-0.8031005859375,0.3990478515625,-296.0,151.0,-153.0,101701.0,-3.126000165939331,0,0
2.3290759999945294,0.369873046875,-0.450927734375,0.3118896484375,-0.75,0.0,-0.30517578125,-0.30517578125,0.4468994140625,-0.8006591796875,0.399169921875,-296.0,151.0,-153.0,101701.0,-3.126000165939331,0,0
2.32913300000655,0.369873046875,-0.450927734375,0.3118896484375,-0.75,-0.1220703125,-0.30517578125,0.06103515625,0.4471435546875,-0.8026123046875,0.3990478515625,-296.0,151.0,-153.0,101701.0,-3.126000165939331,0,0
2.3291874999995343,0.369873046875,-0.450927734375,0.3118896484375,-0.75,0.1220703125,0.0,-0.06103515625,0.447509765625,-0.80224609375,0.3995361328125,-296.0,151.0,-153.0,101701.0,-3.126000165939331,0,0
2.3292570000048727,0.369873046875,-0.450927734375,0.3118896484375,-0.75,-0.18310546875,-0.06103515625,0.1220703125,0.447021484375,-0.801025390625,0.39794921875,-296.0,151.0,-153.0,101701.0,-3.126000165939331,0,0
2.329310400004033,0.369873046875,-0.450927734375,0.3118896484375,-0.75,0.1220703125,-0.18310546875,-0.1220703125,0.4453125,-0.8009033203125,0.3966064453125,-296.0,151.0,-153.0,101701.0,-3.126000165939331,0,0
2.3293650999985402,0.369873046875,-0.450927734375,0.3118896484375,-0.75,0.1220703125,-0.18310546875,-0.1220703125,0.4453125,-0.8009033203125,0.3966064453125,-296.0,151.0,-153.0,101701.0,-3.126000165939331,0,0
2.3294174000038765,0.3697509765625,-0.450897216796875,0.31195068359375,-0.75006103515625,0.1220703125,0.06103515625,-0.1220703125,0.4468994140625,-0.8028564453125,0.3953857421875,-297.0,150.0,-153.0,101701.0,-3.126000165939331,0,0
2.3294689000031212,0.3697509765625,-0.450897216796875,0.31195068359375,-0.75006103515625,0.1220703125,-0.18310546875,0.06103515625,0.4483642578125,-0.7984619140625,0.3990478515625,-297.0,150.0,-153.0,101701.0,-3.126000165939331,0,0
2.32952149999619,0.3697509765625,-0.450897216796875,0.31195068359375,-0.75006103515625,0.0,-0.06103515625,0.3662109375,0.443359375,-0.800048828125,0.3984375,-297.0,150.0,-153.0,101701.0,-3.126000165939331,0,0
2.390363400001661,0.3697509765625,-0.450927734375,0.31195068359375,-0.75006103515625,0.0,-0.1220703125,-0.1220703125,0.4466552734375,-0.8028564453125,0.399658203125,-297.0,150.0,-153.0,101701.0,-3.126000165939331,0,0
2.3904254999943078,0.3697509765625,-0.450897216796875,0.31195068359375,-0.75006103515625,-0.244140625,-0.244140625,-0.18310546875,0.446533203125,-0.80126953125,0.4002685546875,-297.0,150.0,-153.0,101701.0,-3.126000165939331,0,0
2.390480000001844,0.3697509765625,-0.450897216796875,0.31195068359375,-0.75006103515625,-0.18310546875,0.06103515625,0.18310546875,0.4462890625,-0.8006591796875,0.4002685546875,-297.0,150.0,-153.0,101701.0,-3.126000165939331,0,0
2.3905341000063345,0.3697509765625,-0.450897216796875,0.31195068359375,-0.75006103515625,-0.18310546875,0.06103515625,0.18310546875,0.4462890625,-0.8006591796875,0.4002685546875,-297.0,150.0,-153.0,101701.0,-3.126000165939331,0,0
2.3905876000062563,0.3697509765625,-0.450897216796875,0.31195068359375,-0.75006103515625,0.1220703125,0.0,0.0,0.447998046875,-0.8017578125,0.3990478515625,-297.0,150.0,-153.0,101701.0,-3.126000165939331,0,0
2.39065689999552,0.3697509765625,-0.450927734375,0.31195068359375,-0.75006103515625,-0.06103515625,-0.18310546875,0.0,0.447021484375,-0.7998046875,0.3985595703125,-297.0,150.0,-153.0,101701.0,-3.126000165939331,0,0
2.3907095000031404,0.3697509765625,-0.450927734375,0.31195068359375,-0.75006103515625,0.0,-0.06103515625,0.1220703125,0.4481201171875,-0.8016357421875,0.3990478515625,-297.0,150.0,-153.0,101701.0,-3.126000165939331,0,0
2.3907940999924904,0.3697509765625,-0.450927734375,0.31195068359375,-0.75006103515625,0.0,-0.06103515625,0.06103515625,0.4454345703125,-0.8026123046875,0.3992919921875,-297.0,150.0,-153.0,101701.0,-3.126000165939331,0,0
2.390848199996981,0.3697509765625,-0.450927734375,0.31195068359375,-0.75006103515625,0.06103515625,-0.18310546875,-0.06103515625,0.447509765625,-0.800048828125,0.3963623046875,-297.0,150.0,-153.0,101701.0,-3.126000165939331,0,0
2.390900500002317,0.3697509765625,-0.450927734375,0.31195068359375,-0.75006103515625,0.30517578125,-0.06103515625,-0.18310546875,0.447265625,-0.8023681640625,0.3985595703125,-297.0,150.0,-153.0,101701.0,-3.126000165939331,0,0
2.390953800000716,0.3697509765625,-0.450927734375,0.31195068359375,-0.75006103515625,-0.244140625,-0.1220703125,-0.18310546875,0.4453125,-0.7998046875,0.3990478515625,-297.0,150.0,-153.0,101701.0,-3.126000165939331,0,0
2.3910067999968305,0.3697509765625,-0.450927734375,0.31195068359375,-0.75006103515625,0.06103515625,-0.1220703125,-0.3662109375,0.4422607421875,-0.8018798828125,0.3973388671875,-297.0,150.0,-153.0,101701.0,-3.126000165939331,0,0
2.451010499993572,0.3697509765625,-0.450927734375,0.31195068359375,-0.75006103515625,0.18310546875,0.1220703125,0.06103515625,0.4462890625,-0.80419921875,0.398681640625,-297.0,150.0,-153.0,101701.0,-3.127000093460083,0,0
2.451077499994426,0.3697509765625,-0.450927734375,0.31195068359375,-0.75006103515625,-0.3662109375,-0.244140625,-0.06103515625,0.4451904296875,-0.8006591796875,0.3980712890625,-297.0,150.0,-153.0,101701.0,-3.127000093460083,0,0
2.4511321000027237,0.3697509765625,-0.450927734375,0.31195068359375,-0.75006103515625,0.1220703125,-0.06103515625,-0.1220703125,0.4464111328125,-0.800048828125,0.39697265625,-297.0,148.0,-152.0,101701.0,-3.127000093460083,0,0
2.4511851999995997,0.3697509765625,-0.450927734375,0.31195068359375,-0.75006103515625,0.06103515625,0.18310546875,-0.18310546875,0.447021484375,-0.8018798828125,0.3978271484375,-297.0,148.0,-152.0,101701.0,-3.127000093460083,0,0
2.451241200004006,0.3697509765625,-0.450927734375,0.31195068359375,-0.75006103515625,0.18310546875,-0.1220703125,-0.06103515625,0.4462890625,-0.80078125,0.3975830078125,-297.0,148.0,-152.0,101701.0,-3.127000093460083,0,0
2.4522699999943143,0.3697509765625,-0.450927734375,0.31195068359375,-0.75006103515625,0.1220703125,-0.18310546875,0.18310546875,0.4451904296875,-0.8018798828125,0.3985595703125,-297.0,148.0,-152.0,101701.0,-3.127000093460083,0,0
2.452332100001513,0.3697509765625,-0.450927734375,0.31195068359375,-0.75006103515625,0.0,0.06103515625,0.06103515625,0.4449462890625,-0.8026123046875,0.400634765625,-297.0,148.0,-152.0,101701.0,-3.127000093460083,0,0
2.4523882000066806,0.3697509765625,-0.450927734375,0.31195068359375,-0.75006103515625,0.30517578125,-0.30517578125,-0.244140625,0.4459228515625,-0.8006591796875,0.400146484375,-297.0,148.0,-152.0,101701.0,-3.127000093460083,0,0
2.4524443999980576,0.3697509765625,-0.450927734375,0.31195068359375,-0.75006103515625,0.30517578125,-0.30517578125,-0.244140625,0.4459228515625,-0.8006591796875,0.400146484375,-297.0,148.0,-152.0,101701.0,-3.127000093460083,0,0
2.4524990000063553,0.3697509765625,-0.450927734375,0.31195068359375,-0.75006103515625,-0.1220703125,-0.1220703125,-0.18310546875,0.4449462890625,-0.8021240234375,0.3994140625,-297.0,148.0,-152.0,101701.0,-3.127000093460083,0,0
2.452551599999424,0.3697509765625,-0.450927734375,0.31195068359375,-0.75006103515625,0.30517578125,-0.30517578125,0.06103515625,0.4471435546875,-0.802001953125,0.3983154296875,-297.0,148.0,-152.0,101701.0,-3.127000093460083,0,0
2.52043030000641,0.3697509765625,-0.450927734375,0.31195068359375,-0.75006103515625,0.1220703125,-0.244140625,-0.244140625,0.4443359375,-0.80126953125,0.39794921875,-297.0,148.0,-152.0,101701.0,-3.127000093460083,0,0
2.5204935999936424,0.3697509765625,-0.450927734375,0.31195068359375,-0.75006103515625,0.244140625,0.0,-0.1220703125,0.443603515625,-0.8023681640625,0.398681640625,-297.0,148.0,-152.0,101701.0,-3.127000093460083,0,0
2.520551499997964,0.3697509765625,-0.450927734375,0.31195068359375,-0.75006103515625,0.244140625,-0.18310546875,0.0,0.4461669921875,-0.80126953125,0.398681640625,-297.0,148.0,-152.0,101701.0,-3.127000093460083,0,0
2.5206093000015244,0.3697509765625,-0.450927734375,0.31195068359375,-0.75006103515625,0.3662109375,-0.06103515625,0.06103515625,0.4459228515625,-0.8031005859375,0.3985595703125,-297.0,148.0,-152.0,101701.0,-3.127000093460083,0,0
2.520665799995186,0.3697509765625,-0.450927734375,0.31195068359375,-0.75006103515625,-0.1220703125,-0.06103515625,-0.1220703125,0.44482421875,-0.8013916015625,0.39794921875,-297.0,148.0,-152.0,101701.0,-3.127000093460083,0,0
2.521510799997486,0.3697509765625,-0.450897216796875,0.31195068359375,-0.75006103515625,0.1220703125,-0.06103515625,0.0,0.444580078125,-0.8006591796875,0.3984375,-297.0,148.0,-152.0,101701.0,-3.127000093460083,0,0
2.521567200004938,0.36956787109375,-0.450836181640625,0.31207275390625,-0.750152587890625,0.1220703125,-0.06103515625,0.0,0.444580078125,-0.8006591796875,0.3984375,-297.0,150.0,-154.0,101701.0,-3.127000093460083,0,0
2.5217183000058867,0.36956787109375,-0.4508056640625,0.31207275390625,-0.750152587890625,0.1220703125,0.18310546875,0.06103515625,0.4439697265625,-0.8028564453125,0.3988037109375,-297.0,150.0,-154.0,101701.0,-3.127000093460083,0,0
2.582550599996466,0.36956787109375,-0.4508056640625,0.312103271484375,-0.750152587890625,0.06103515625,-0.1220703125,-0.1220703125,0.4442138671875,-0.8028564453125,0.3985595703125,-297.0,150.0,-154.0,101701.0,-3.127000093460083,0,0
2.5826120999990962,0.36956787109375,-0.4508056640625,0.312103271484375,-0.750152587890625,0.06103515625,-0.1220703125,-0.1220703125,0.4442138671875,-0.8028564453125,0.3985595703125,-297.0,150.0,-154.0,101701.0,-3.127000093460083,0,0
2.5826699000026565,0.36956787109375,-0.4508056640625,0.31207275390625,-0.750152587890625,0.1220703125,-0.06103515625,-0.244140625,0.4461669921875,-0.8001708984375,0.4002685546875,-297.0,150.0,-154.0,101701.0,-3.127000093460083,0,0
2.5827229999995325,0.36956787109375,-0.4508056640625,0.31207275390625,-0.750152587890625,-0.18310546875,-0.1220703125,-0.06103515625,0.445556640625,-0.8013916015625,0.399169921875,-297.0,150.0,-154.0,101701.0,-3.127000093460083,0,0
2.583241200001794,0.36956787109375,-0.4508056640625,0.31207275390625,-0.750152587890625,0.0,-0.06103515625,-0.1220703125,0.4449462890625,-0.800537109375,0.400146484375,-297.0,150.0,-154.0,101701.0,-3.127000093460083,0,0
2.583303999999771,0.36956787109375,-0.4508056640625,0.31207275390625,-0.750152587890625,0.0,-0.06103515625,-0.1220703125,0.4449462890625,-0.800537109375,0.400146484375,-297.0,150.0,-154.0,101701.0,-3.127000093460083,0,0
2.5833962000033353,0.36956787109375,-0.4508056640625,0.31207275390625,-0.750152587890625,0.0,0.06103515625,0.06103515625,0.4432373046875,-0.8009033203125,0.3990478515625,-297.0,150.0,-154.0,101701.0,-3.127000093460083,0,0
2.5834504999947967,0.36956787109375,-0.4508056640625,0.31207275390625,-0.750152587890625,-0.06103515625,-0.30517578125,0.06103515625,0.4453125,-0.80029296875,0.396728515625,-297.0,150.0,-154.0,101701.0,-3.127000093460083,0,0
2.583504599999287,0.36956787109375,-0.4508056640625,0.31207275390625,-0.750152587890625,-0.06103515625,-0.30517578125,0.06103515625,0.4453125,-0.80029296875,0.396728515625,-297.0,150.0,-154.0,101701.0,-3.127000093460083,0,0
2.5835584000014933,0.36956787109375,-0.4508056640625,0.31207275390625,-0.750152587890625,0.06103515625,-0.18310546875,-0.1220703125,0.445556640625,-0.8009033203125,0.398193359375,-297.0,150.0,-154.0,101701.0,-3.127000093460083,0,0
2.5836122000036994,0.36956787109375,-0.4508056640625,0.312103271484375,-0.750152587890625,-0.18310546875,-0.18310546875,0.0,0.444580078125,-0.8013916015625,0.3994140625,-297.0,150.0,-154.0,101701.0,-3.127000093460083,0,0
2.6458873999945354,0.369598388671875,-0.4508056640625,0.312103271484375,-0.750152587890625,0.0,-0.18310546875,-0.06103515625,0.443603515625,-0.801025390625,0.39892578125,-297.0,150.0,-154.0,101701.0,-3.127000093460083,0,0
2.6459496000024956,0.369598388671875,-0.4508056640625,0.312103271484375,-0.750152587890625,0.244140625,-0.1220703125,-0.18310546875,0.4443359375,-0.799560546875,0.39697265625,-297.0,150.0,-154.0,101701.0,-3.127000093460083,0,0
2.646005899994634,0.369598388671875,-0.4508056640625,0.312103271484375,-0.750152587890625,0.1220703125,-0.1220703125,0.0,0.4439697265625,-0.803466796875,0.3990478515625,-296.0,149.0,-153.0,101701.0,-3.125000238418579,0,0
2.64606489999278,0.369598388671875,-0.4508056640625,0.312103271484375,-0.750152587890625,0.3662109375,0.244140625,0.0,0.4451904296875,-0.8004150390625,0.398681640625,-296.0,149.0,-153.0,101701.0,-3.125000238418579,0,0
2.646123600003193,0.369384765625,-0.450714111328125,0.312225341796875,-0.750244140625,0.18310546875,0.0,-0.1220703125,0.4442138671875,-0.801513671875,0.3978271484375,-296.0,149.0,-153.0,101701.0,-3.125000238418579,0,0
2.6462213000049815,0.369384765625,-0.450714111328125,0.312225341796875,-0.750244140625,0.1220703125,-0.18310546875,0.06103515625,0.445556640625,-0.801025390625,0.399658203125,-296.0,149.0,-153.0,101701.0,-3.125000238418579,0,0
2.6462756999972044,0.369384765625,-0.450714111328125,0.312225341796875,-0.750244140625,0.06103515625,-0.1220703125,0.244140625,0.4462890625,-0.80126953125,0.3984375,-296.0,149.0,-153.0,101701.0,-3.125000238418579,0,0
2.646329600000172,0.369384765625,-0.450714111328125,0.312225341796875,-0.750244140625,0.06103515625,-0.1220703125,0.244140625,0.4462890625,-0.80126953125,0.3984375,-296.0,149.0,-153.0,101701.0,-3.125000238418579,0,0
2.646382499995525,0.369384765625,-0.450714111328125,0.312225341796875,-0.750244140625,-0.06103515625,0.06103515625,0.0,0.444580078125,-0.801513671875,0.3983154296875,-296.0,149.0,-153.0,101701.0,-3.125000238418579,0,0
2.646436299997731,0.369384765625,-0.450714111328125,0.312225341796875,-0.750244140625,0.06103515625,-0.1220703125,0.06103515625,0.4449462890625,-0.801025390625,0.396484375,-296.0,149.0,-153.0,101701.0,-3.125000238418579,0,0
2.6464898999984143,0.369384765625,-0.450714111328125,0.312225341796875,-0.750244140625,0.1220703125,0.06103515625,0.1220703125,0.4437255859375,-0.802978515625,0.3992919921875,-296.0,149.0,-153.0,101701.0,-3.125000238418579,0,0
2.7097568000026513,0.369384765625,-0.450714111328125,0.312225341796875,-0.750244140625,0.244140625,0.06103515625,-0.1220703125,0.4459228515625,-0.8009033203125,0.39892578125,-296.0,149.0,-153.0,101701.0,-3.125000238418579,0,0
2.709825300000375,0.369384765625,-0.450714111328125,0.312225341796875,-0.750244140625,-0.1220703125,-0.42724609375,-0.06103515625,0.446044921875,-0.80078125,0.3980712890625,-296.0,149.0,-153.0,101701.0,-3.125000238418579,0,0
2.709884600000805,0.369384765625,-0.450714111328125,0.312225341796875,-0.750244140625,0.06103515625,-0.1220703125,-0.244140625,0.4451904296875,-0.8016357421875,0.398681640625,-296.0,149.0,-153.0,101701.0,-3.125000238418579,0,0
2.7099392999953125,0.369384765625,-0.450714111328125,0.312225341796875,-0.750244140625,-0.1220703125,0.0,-0.1220703125,0.443603515625,-0.802001953125,0.3966064453125,-296.0,149.0,-153.0,101701.0,-3.125000238418579,0,0
2.70999469999515,0.369384765625,-0.450714111328125,0.312225341796875,-0.750244140625,0.06103515625,-0.18310546875,0.0,0.442138671875,-0.8026123046875,0.4000244140625,-296.0,149.0,-153.0,101701.0,-3.125000238418579,0,0
2.7100489000004018,0.369384765625,-0.450714111328125,0.312225341796875,-0.750244140625,0.06103515625,-0.06103515625,0.0,0.4451904296875,-0.80029296875,0.3975830078125,-296.0,149.0,-153.0,101701.0,-3.125000238418579,0,0
2.710118200004217,0.369384765625,-0.450714111328125,0.312225341796875,-0.750244140625,0.06103515625,-0.06103515625,0.0,0.4451904296875,-0.80029296875,0.3975830078125,-296.0,149.0,-153.0,101701.0,-3.125000238418579,0,0
2.7102100000047358,0.369415283203125,-0.450714111328125,0.312225341796875,-0.750244140625,0.18310546875,0.06103515625,-0.1220703125,0.4451904296875,-0.8013916015625,0.399169921875,-296.0,149.0,-153.0,101701.0,-3.125000238418579,0,0
2.7102641999954358,0.369415283203125,-0.450714111328125,0.312255859375,-0.750244140625,-0.06103515625,-0.244140625,0.0,0.445068359375,-0.8028564453125,0.3978271484375,-296.0,149.0,-153.0,101701.0,-3.125000238418579,0,0
2.710319100006018,0.369415283203125,-0.450714111328125,0.312225341796875,-0.750244140625,-0.244140625,0.0,-0.18310546875,0.44580078125,-0.799072265625,0.3984375,-296.0,149.0,-153.0,101701.0,-3.125000238418579,0,0
2.710371399996802,0.369415283203125,-0.450714111328125,0.312255859375,-0.750244140625,0.30517578125,-0.18310546875,-0.1220703125,0.4443359375,-0.801025390625,0.399169921875,-296.0,149.0,-153.0,101701.0,-3.125000238418579,0,0
2.710424000004423,0.369415283203125,-0.450714111328125,0.312255859375,-0.750244140625,0.3662109375,-0.1220703125,0.1220703125,0.4453125,-0.8033447265625,0.398193359375,-296.0,149.0,-153.0,101701.0,-3.125000238418579,0,0
2.7104763999959687,0.369415283203125,-0.45068359375,0.312255859375,-0.750244140625,0.3662109375,-0.1220703125,0.1220703125,0.4453125,-0.8033447265625,0.398193359375,-296.0,149.0,-152.0,101701.0,-3.126000165939331,0,0
2.778275200005737,0.369415283203125,-0.450714111328125,0.312255859375,-0.750244140625,0.0,-0.1220703125,-0.18310546875,0.4443359375,-0.800537109375,0.3978271484375,-296.0,149.0,-152.0,101701.0,-3.126000165939331,0,0
2.7783506999985548,0.369415283203125,-0.450714111328125,0.312255859375,-0.750244140625,0.0,-0.30517578125,0.06103515625,0.4482421875,-0.8001708984375,0.3975830078125,-296.0,149.0,-152.0,101701.0,-3.126000165939331,0,0
2.7784102000005078,0.369384765625,-0.450714111328125,0.312225341796875,-0.750244140625,0.1220703125,-0.18310546875,0.0,0.445556640625,-0.801513671875,0.399658203125,-296.0,149.0,-152.0,101701.0,-3.126000165939331,0,0
2.778465800001868,0.369384765625,-0.450714111328125,0.312225341796875,-0.750244140625,-0.18310546875,-0.1220703125,0.0,0.4476318359375,-0.8006591796875,0.3975830078125,-296.0,149.0,-152.0,101701.0,-3.126000165939331,0,0
2.7785423000023,0.369384765625,-0.450714111328125,0.312225341796875,-0.750244140625,0.06103515625,-0.06103515625,-0.1220703125,0.4461669921875,-0.8018798828125,0.3997802734375,-296.0,149.0,-152.0,101701.0,-3.126000165939331,0,0
2.7785971999983303,0.369384765625,-0.450714111328125,0.312255859375,-0.750244140625,-0.244140625,0.0,-0.06103515625,0.44677734375,-0.80224609375,0.3970947265625,-296.0,149.0,-152.0,101701.0,-3.126000165939331,0,0
2.7786499000067124,0.369384765625,-0.450714111328125,0.312255859375,-0.750244140625,-0.1220703125,-0.1220703125,0.06103515625,0.4462890625,-0.8013916015625,0.396240234375,-296.0,149.0,-152.0,101701.0,-3.126000165939331,0,0
2.7787020999967353,0.369384765625,-0.450714111328125,0.312225341796875,-0.750244140625,0.06103515625,0.18310546875,0.18310546875,0.4432373046875,-0.8011474609375,0.398681640625,-296.0,149.0,-152.0,101701.0,-3.126000165939331,0,0
2.778755999999703,0.369384765625,-0.450714111328125,0.312225341796875,-0.750244140625,-0.244140625,0.0,-0.18310546875,0.4468994140625,-0.7998046875,0.39892578125,-296.0,149.0,-152.0,101701.0,-3.126000165939331,0,0
2.778808300005039,0.369384765625,-0.450714111328125,0.312225341796875,-0.750244140625,-0.244140625,0.0,-0.18310546875,0.4468994140625,-0.7998046875,0.39892578125,-296.0,149.0,-152.0,101701.0,-3.126000165939331,0,0
2.8379909000068437,0.369384765625,-0.450714111328125,0.312225341796875,-0.750244140625,0.18310546875,0.06103515625,-0.18310546875,0.4468994140625,-0.80029296875,0.3975830078125,-296.0,149.0,-152.0,101701.0,-3.126000165939331,0,0
2.8380653000058373,0.369384765625,-0.450714111328125,0.312225341796875,-0.750244140625,0.0,-0.06103515625,-0.06103515625,0.445068359375,-0.8006591796875,0.3984375,-296.0,149.0,-152.0,101701.0,-3.126000165939331,0,0
2.8381249999947613,0.369384765625,-0.45074462890625,0.312225341796875,-0.750244140625,0.0,-0.18310546875,0.1220703125,0.4459228515625,-0.80126953125,0.398681640625,-296.0,149.0,-152.0,101701.0,-3.126000165939331,0,0
2.8381824999960372,0.369384765625,-0.45074462890625,0.312225341796875,-0.750244140625,0.1220703125,-0.244140625,-0.1220703125,0.4481201171875,-0.8004150390625,0.396240234375,-296.0,149.0,-152.0,101701.0,-3.126000165939331,0,0
2.8382390000042506,0.369384765625,-0.45074462890625,0.312225341796875,-0.750244140625,-0.18310546875,0.0,-0.18310546875,0.4439697265625,-0.8017578125,0.3970947265625,-296.0,150.0,-151.0,101701.0,-3.126000165939331,0,0
2.8385322999965865,0.369384765625,-0.450714111328125,0.312225341796875,-0.750244140625,0.1220703125,-0.06103515625,0.0,0.443359375,-0.8004150390625,0.3980712890625,-296.0,150.0,-151.0,101701.0,-3.126000165939331,0,0
2.838599599999725,0.369384765625,-0.450714111328125,0.312225341796875,-0.750244140625,0.1220703125,-0.06103515625,0.0,0.443359375,-0.8004150390625,0.3980712890625,-296.0,150.0,-151.0,101701.0,-3.126000165939331,0,0
2.838698799998383,0.369384765625,-0.450714111328125,0.312255859375,-0.750244140625,0.18310546875,-0.18310546875,-0.244140625,0.4442138671875,-0.801025390625,0.39892578125,-296.0,150.0,-151.0,101701.0,-3.126000165939331,0,0
2.8387566000019433,0.369384765625,-0.450714111328125,0.312255859375,-0.750213623046875,0.1220703125,0.1220703125,-0.18310546875,0.4461669921875,-0.8023681640625,0.396728515625,-296.0,150.0,-151.0,101701.0,-3.126000165939331,0,0
2.838814100003219,0.369384765625,-0.450714111328125,0.312255859375,-0.750213623046875,-0.1220703125,-0.18310546875,0.06103515625,0.44482421875,-0.7999267578125,0.3974609375,-296.0,150.0,-151.0,101701.0,-3.126000165939331,0,0
2.8388703999953577,0.369384765625,-0.450714111328125,0.312255859375,-0.750213623046875,-0.1220703125,0.0,-0.06103515625,0.4447021484375,-0.803466796875,0.3984375,-296.0,150.0,-151.0,101701.0,-3.126000165939331,0,0
2.8999767000059364,0.369384765625,-0.45074462890625,0.312255859375,-0.750213623046875,0.06103515625,-0.1220703125,-0.06103515625,0.44580078125,-0.8017578125,0.396728515625,-296.0,150.0,-151.0,101701.0,-3.126000165939331,0,0
2.9000418999930844,0.369384765625,-0.45074462890625,0.312255859375,-0.750213623046875,0.1220703125,0.0,0.06103515625,0.447998046875,-0.8016357421875,0.396728515625,-296.0,150.0,-151.0,101701.0,-3.126000165939331,0,0
2.900097999998252,0.369384765625,-0.45074462890625,0.312255859375,-0.750213623046875,0.3662109375,0.0,0.18310546875,0.4459228515625,-0.8011474609375,0.3961181640625,-296.0,150.0,-151.0,101701.0,-3.126000165939331,0,0
2.902456199997687,0.369384765625,-0.45074462890625,0.312255859375,-0.750213623046875,0.1220703125,-0.18310546875,-0.06103515625,0.446533203125,-0.8017578125,0.39697265625,-296.0,150.0,-151.0,101701.0,-3.126000165939331,0,0
2.902532499996596,0.369384765625,-0.45074462890625,0.312255859375,-0.750213623046875,0.0,-0.06103515625,-0.1220703125,0.4462890625,-0.8023681640625,0.39990234375,-296.0,150.0,-151.0,101701.0,-3.126000165939331,0,0
2.902589999997872,0.369384765625,-0.45074462890625,0.312255859375,-0.750213623046875,0.0,-0.06103515625,-0.1220703125,0.4462890625,-0.8023681640625,0.39990234375,-296.0,150.0,-151.0,101701.0,-3.126000165939331,0,0
2.9026446000061696,0.369384765625,-0.45074462890625,0.312255859375,-0.750213623046875,-0.06103515625,-0.244140625,-0.3662109375,0.4461669921875,-0.80078125,0.3985595703125,-296.0,150.0,-151.0,101701.0,-3.126000165939331,0,0
2.902719200006686,0.369384765625,-0.45074462890625,0.312255859375,-0.750213623046875,0.3662109375,-0.1220703125,0.06103515625,0.4456787109375,-0.8006591796875,0.3983154296875,-296.0,150.0,-151.0,101701.0,-3.126000165939331,0,0
2.902774899994256,0.369384765625,-0.45074462890625,0.312255859375,-0.750213623046875,-0.18310546875,-0.3662109375,-0.18310546875,0.444091796875,-0.8026123046875,0.3956298828125,-296.0,150.0,-151.0,101701.0,-3.126000165939331,0,0
2.902829800004838,0.369384765625,-0.45074462890625,0.312255859375,-0.750213623046875,-0.18310546875,-0.30517578125,-0.18310546875,0.44580078125,-0.8035888671875,0.3970947265625,-296.0,150.0,-151.0,101701.0,-3.126000165939331,0,0
2.902883100003237,0.369384765625,-0.450775146484375,0.312255859375,-0.750213623046875,0.06103515625,-0.06103515625,-0.1220703125,0.446533203125,-0.8023681640625,0.3961181640625,-296.0,150.0,-151.0,101701.0,-3.126000165939331,0,0
2.9029364000016358,0.369384765625,-0.450775146484375,0.312286376953125,-0.750213623046875,0.0,-0.06103515625,-0.3662109375,0.446044921875,-0.802490234375,0.396484375,-296.0,150.0,-151.0,101701.0,-3.126000165939331,0,0
2.9029889999947045,0.369384765625,-0.450775146484375,0.312286376953125,-0.75018310546875,0.06103515625,0.18310546875,0.0,0.444580078125,-0.8017578125,0.39697265625,-296.0,150.0,-151.0,101701.0,-3.126000165939331,0,0
2.9688794999965467,0.369384765625,-0.450775146484375,0.312286376953125,-0.75018310546875,-0.18310546875,-0.18310546875,0.1220703125,0.44580078125,-0.7996826171875,0.3988037109375,-296.0,149.0,-150.0,101701.0,-3.125000238418579,0,0
2.9689476000057766,0.369384765625,-0.450775146484375,0.312286376953125,-0.75018310546875,0.1220703125,0.06103515625,0.0,0.4471435546875,-0.800537109375,0.3958740234375,-296.0,149.0,-150.0,101701.0,-3.125000238418579,0,0
2.9690039999986766,0.369384765625,-0.450775146484375,0.312286376953125,-0.75018310546875,0.06103515625,-0.18310546875,0.06103515625,0.4456787109375,-0.8009033203125,0.39697265625,-296.0,149.0,-150.0,101701.0,-3.125000238418579,0,0
2.9690588999947067,0.369384765625,-0.450775146484375,0.312286376953125,-0.75018310546875,0.30517578125,0.1220703125,-0.1220703125,0.444580078125,-0.80078125,0.3956298828125,-296.0,149.0,-150.0,101701.0,-3.125000238418579,0,0
