Time stamp(sec),quaternion_0,quaternion_1,quaternion_2,quaternion_3,roll_angular_rate,pitch_angular_rate,yaw_angular_rate,acc_X,acc_Y,acc_Z,mag_X,mag_Y,mag_Z,pressure,altitude
667.817995,0.351959228515625,0.34759521484375,-0.85992431640625,0.125579833984375,-0.06103515625,0.0,-0.1220703125,0.685302734375,0.0291748046875,-0.71142578125,-87.0,13.0,68.0,101624.0,-2.4860000610351562,0,0
667.822993,0.351959228515625,0.34759521484375,-0.85992431640625,0.1256103515625,0.3662109375,0.18310546875,0.0,0.687255859375,0.0262451171875,-0.7115478515625,-87.0,13.0,68.0,101624.0,-2.4860000610351562,0,0
667.827993,0.351959228515625,0.34759521484375,-0.85992431640625,0.1256103515625,-0.06103515625,0.06103515625,0.06103515625,0.6876220703125,0.028076171875,-0.7135009765625,-87.0,13.0,68.0,101624.0,-2.4860000610351562,0,0
667.832021,0.351959228515625,0.34759521484375,-0.85992431640625,0.1256103515625,-0.06103515625,0.06103515625,0.06103515625,0.6876220703125,0.028076171875,-0.7135009765625,-87.0,13.0,68.0,101624.0,-2.4860000610351562,0,0
667.836993,0.351959228515625,0.34759521484375,-0.85992431640625,0.1256103515625,-0.244140625,0.1220703125,-0.06103515625,0.685791015625,0.02880859375,-0.711669921875,-87.0,13.0,68.0,101624.0,-2.4860000610351562,0,0
667.841994,0.351959228515625,0.34759521484375,-0.85992431640625,0.1256103515625,-0.244140625,0.1220703125,-0.06103515625,0.685791015625,0.02880859375,-0.711669921875,-87.0,13.0,68.0,101624.0,-2.4860000610351562,0,0
667.846995,0.351959228515625,0.34759521484375,-0.85992431640625,0.125579833984375,0.244140625,0.06103515625,0.0,0.6846923828125,0.02978515625,-0.712158203125,-87.0,13.0,68.0,101624.0,-2.4860000610351562,0,0
667.851993,0.351959228515625,0.34759521484375,-0.85992431640625,0.125579833984375,0.3662109375,0.0,-0.3662109375,0.685302734375,0.028564453125,-0.712890625,-87.0,13.0,68.0,101624.0,-2.4860000610351562,0,0
667.856993,0.351959228515625,0.34759521484375,-0.85992431640625,0.125579833984375,-0.18310546875,-0.1220703125,-0.06103515625,0.683837890625,0.02880859375,-0.712890625,-87.0,13.0,68.0,101624.0,-2.4860000610351562,0,0
667.861993,0.351959228515625,0.34759521484375,-0.85992431640625,0.125579833984375,-0.1220703125,0.1220703125,-0.18310546875,0.6866455078125,0.028076171875,-0.7122802734375,-87.0,13.0,68.0,101624.0,-2.4860000610351562,0,0
667.876993,0.351959228515625,0.34759521484375,-0.85992431640625,0.125579833984375,-0.1220703125,0.18310546875,-0.06103515625,0.683349609375,0.0286865234375,-0.71142578125,-87.0,13.0,68.0,101624.0,-2.4860000610351562,0,0
667.881993,0.351959228515625,0.34759521484375,-0.85992431640625,0.125579833984375,0.0,0.06103515625,-0.1220703125,0.6829833984375,0.027587890625,-0.7120361328125,-87.0,13.0,68.0,101624.0,-2.4860000610351562,0,0
667.886994,0.351959228515625,0.34759521484375,-0.85992431640625,0.125579833984375,-0.3662109375,-0.1220703125,0.0,0.6859130859375,0.028076171875,-0.712158203125,-87.0,13.0,68.0,101624.0,-2.4860000610351562,0,0
667.891995,0.351959228515625,0.34759521484375,-0.85992431640625,0.1256103515625,-0.3662109375,-0.1220703125,0.0,0.6859130859375,0.028076171875,-0.712158203125,-87.0,13.0,68.0,101624.0,-2.4860000610351562,0,0
667.896993,0.35162353515625,0.349853515625,-0.8590087890625,0.12652587890625,0.244140625,0.1220703125,-0.18310546875,0.6871337890625,0.028564453125,-0.712646484375,-85.0,12.0,68.0,101624.0,-2.4860000610351562,0,0
667.901021,0.35162353515625,0.349853515625,-0.8590087890625,0.12652587890625,0.244140625,0.1220703125,-0.18310546875,0.6871337890625,0.028564453125,-0.712646484375,-85.0,12.0,68.0,101624.0,-2.4860000610351562,0,0
667.905993,0.351654052734375,0.349853515625,-0.8590087890625,0.12652587890625,-0.3662109375,0.06103515625,-0.06103515625,0.6868896484375,0.0284423828125,-0.7110595703125,-85.0,12.0,68.0,101624.0,-2.4860000610351562,0,0
667.910993,0.35162353515625,0.349853515625,-0.8590087890625,0.12652587890625,0.0,0.244140625,0.06103515625,0.680908203125,0.0277099609375,-0.71484375,-85.0,12.0,68.0,101624.0,-2.4860000610351562,0,0
667.915993,0.35162353515625,0.349853515625,-0.8590087890625,0.12652587890625,0.48828125,0.1220703125,0.18310546875,0.6832275390625,0.0269775390625,-0.7138671875,-85.0,12.0,68.0,101624.0,-2.4860000610351562,0,0
667.920994,0.35162353515625,0.349853515625,-0.8590087890625,0.12652587890625,0.18310546875,0.06103515625,-0.30517578125,0.6845703125,0.027587890625,-0.7127685546875,-85.0,12.0,68.0,101624.0,-2.4860000610351562,0,0
667.925995,0.35162353515625,0.349853515625,-0.8590087890625,0.12652587890625,-0.18310546875,-0.06103515625,0.244140625,0.684326171875,0.02783203125,-0.7127685546875,-85.0,12.0,68.0,101624.0,-2.4860000610351562,0,0
667.930993,0.35162353515625,0.349853515625,-0.8590087890625,0.12652587890625,-0.3662109375,0.0,-0.18310546875,0.68505859375,0.029296875,-0.7127685546875,-85.0,12.0,68.0,101624.0,-2.4860000610351562,0,0
667.935993,0.35162353515625,0.349853515625,-0.8590087890625,0.12652587890625,0.0,-0.06103515625,-0.244140625,0.685302734375,0.02783203125,-0.7108154296875,-85.0,12.0,68.0,101624.0,-2.4860000610351562,0,0
667.940994,0.35162353515625,0.349853515625,-0.8590087890625,0.12652587890625,-0.18310546875,0.0,-0.18310546875,0.6844482421875,0.027099609375,-0.711669921875,-85.0,12.0,68.0,101623.0,-2.4840002059936523,0,0
667.945995,0.35162353515625,0.349853515625,-0.8590087890625,0.12652587890625,0.06103515625,0.18310546875,-0.1220703125,0.6845703125,0.03076171875,-0.7132568359375,-85.0,12.0,68.0,101623.0,-2.4840002059936523,0,0
667.950993,0.35162353515625,0.349853515625,-0.8590087890625,0.12652587890625,-0.1220703125,0.18310546875,-0.18310546875,0.6851806640625,0.0284423828125,-0.712646484375,-85.0,12.0,68.0,101623.0,-2.4840002059936523,0,0
667.955993,0.35162353515625,0.349853515625,-0.8590087890625,0.12652587890625,-0.06103515625,-0.06103515625,-0.18310546875,0.684814453125,0.0284423828125,-0.7119140625,-85.0,12.0,68.0,101623.0,-2.4840002059936523,0,0
667.960993,0.35162353515625,0.349853515625,-0.8590087890625,0.12652587890625,0.06103515625,0.06103515625,-0.18310546875,0.6842041015625,0.0284423828125,-0.71142578125,-85.0,12.0,68.0,101623.0,-2.4840002059936523,0,0
667.965023,0.35162353515625,0.349853515625,-0.8590087890625,0.12652587890625,0.06103515625,0.06103515625,-0.18310546875,0.6842041015625,0.0284423828125,-0.71142578125,-85.0,12.0,68.0,101623.0,-2.4840002059936523,0,0
667.969994,0.35162353515625,0.349853515625,-0.8590087890625,0.12652587890625,-0.3662109375,0.1220703125,-0.244140625,0.6851806640625,0.028076171875,-0.7109375,-85.0,12.0,68.0,101623.0,-2.4840002059936523,0,0
667.974994,0.35162353515625,0.349853515625,-0.8590087890625,0.12652587890625,-0.6103515625,-0.06103515625,-0.1220703125,0.6832275390625,0.02734375,-0.71240234375,-85.0,12.0,68.0,101623.0,-2.4840002059936523,0,0
667.979996,0.35162353515625,0.349853515625,-0.8590087890625,0.12652587890625,0.18310546875,0.06103515625,0.18310546875,0.6856689453125,0.0269775390625,-0.711181640625,-85.0,12.0,68.0,101623.0,-2.4840002059936523,0,0
667.984994,0.351654052734375,0.349853515625,-0.8590087890625,0.12652587890625,0.06103515625,-0.1220703125,-0.06103515625,0.6854248046875,0.0284423828125,-0.711669921875,-85.0,12.0,68.0,101623.0,-2.4840002059936523,0,0
667.999997,0.351470947265625,0.351043701171875,-0.8585205078125,0.12701416015625,0.30517578125,-0.06103515625,0.0,0.6839599609375,0.0303955078125,-0.7110595703125,-84.0,12.0,69.0,101623.0,-2.4840002059936523,0,0
668.004996,0.351470947265625,0.351043701171875,-0.8585205078125,0.12701416015625,0.06103515625,-0.06103515625,0.0,0.6851806640625,0.0264892578125,-0.71142578125,-84.0,12.0,69.0,101623.0,-2.4840002059936523,0,0
668.009994,0.351470947265625,0.351043701171875,-0.8585205078125,0.12701416015625,0.244140625,0.1220703125,0.0,0.685791015625,0.0289306640625,-0.7120361328125,-84.0,12.0,69.0,101623.0,-2.4840002059936523,0,0
668.014994,0.351470947265625,0.351043701171875,-0.8585205078125,0.12701416015625,-0.18310546875,0.18310546875,-0.30517578125,0.685546875,0.0291748046875,-0.7138671875,-84.0,12.0,69.0,101623.0,-2.4840002059936523,0,0
668.019994,0.351470947265625,0.351043701171875,-0.8585205078125,0.12701416015625,-0.18310546875,0.18310546875,-0.30517578125,0.685546875,0.0291748046875,-0.7138671875,-84.0,12.0,69.0,101623.0,-2.4840002059936523,0,0
668.024996,0.351470947265625,0.351043701171875,-0.8585205078125,0.12701416015625,-0.1220703125,-0.244140625,0.0,0.6868896484375,0.02783203125,-0.7122802734375,-84.0,12.0,69.0,101623.0,-2.4840002059936523,0,0
668.029993,0.351470947265625,0.351043701171875,-0.8585205078125,0.12701416015625,-0.06103515625,0.18310546875,-0.18310546875,0.6832275390625,0.0269775390625,-0.7120361328125,-84.0,12.0,69.0,101623.0,-2.4840002059936523,0,0
668.034021,0.351470947265625,0.351043701171875,-0.8585205078125,0.12701416015625,-0.06103515625,0.18310546875,-0.18310546875,0.6832275390625,0.0269775390625,-0.7120361328125,-84.0,12.0,69.0,101623.0,-2.4840002059936523,0,0
668.038993,0.351470947265625,0.351043701171875,-0.8585205078125,0.12701416015625,-0.1220703125,0.06103515625,-0.06103515625,0.6832275390625,0.0281982421875,-0.7122802734375,-84.0,12.0,69.0,101623.0,-2.4840002059936523,0,0
668.043993,0.351470947265625,0.351043701171875,-0.8585205078125,0.12701416015625,-0.1220703125,0.06103515625,-0.06103515625,0.6832275390625,0.0281982421875,-0.7122802734375,-84.0,12.0,69.0,101624.0,-2.4860000610351562,0,0
668.048994,0.351470947265625,0.351043701171875,-0.8585205078125,0.12701416015625,-0.3662109375,-0.06103515625,-0.18310546875,0.6824951171875,0.0281982421875,-0.7105712890625,-84.0,12.0,69.0,101624.0,-2.4860000610351562,0,0
668.063993,0.351470947265625,0.351043701171875,-0.8585205078125,0.12701416015625,-0.1220703125,-0.18310546875,-0.18310546875,0.68505859375,0.029052734375,-0.712158203125,-84.0,12.0,69.0,101624.0,-2.4860000610351562,0,0
668.068993,0.351470947265625,0.351043701171875,-0.8585205078125,0.12701416015625,-0.06103515625,0.18310546875,0.0,0.685546875,0.0284423828125,-0.7125244140625,-84.0,12.0,69.0,101624.0,-2.4860000610351562,0,0
668.073994,0.351470947265625,0.351043701171875,-0.8585205078125,0.12701416015625,-0.42724609375,0.0,-0.1220703125,0.6868896484375,0.02734375,-0.71240234375,-84.0,12.0,69.0,101624.0,-2.4860000610351562,0,0
668.078995,0.351470947265625,0.351043701171875,-0.8585205078125,0.12701416015625,0.06103515625,0.06103515625,0.06103515625,0.6842041015625,0.029052734375,-0.71240234375,-84.0,12.0,69.0,101624.0,-2.4860000610351562,0,0
668.083993,0.351470947265625,0.351043701171875,-0.8585205078125,0.12701416015625,0.06103515625,-0.06103515625,-0.18310546875,0.6854248046875,0.028076171875,-0.7117919921875,-84.0,12.0,69.0,101624.0,-2.4860000610351562,0,0
668.088993,0.351470947265625,0.351043701171875,-0.8585205078125,0.12701416015625,-0.1220703125,0.0,-0.18310546875,0.68310546875,0.0296630859375,-0.7127685546875,-84.0,12.0,69.0,101624.0,-2.4860000610351562,0,0
668.093994,0.351470947265625,0.351043701171875,-0.8585205078125,0.12701416015625,-0.1220703125,0.0,-0.18310546875,0.68310546875,0.0296630859375,-0.7127685546875,-85.0,13.0,68.0,101624.0,-2.4860000610351562,0,0
668.098021,0.351470947265625,0.351043701171875,-0.8585205078125,0.12701416015625,-0.1220703125,0.0,-0.18310546875,0.68310546875,0.0296630859375,-0.7127685546875,-85.0,13.0,68.0,101624.0,-2.4860000610351562,0,0
668.102994,0.35162353515625,0.350006103515625,-0.85894775390625,0.1265869140625,-0.91552734375,-0.18310546875,-0.06103515625,0.685546875,0.02783203125,-0.71337890625,-85.0,13.0,68.0,101624.0,-2.4860000610351562,0,0
668.107995,0.35162353515625,0.350006103515625,-0.85894775390625,0.1265869140625,0.30517578125,-0.18310546875,-0.244140625,0.685791015625,0.0289306640625,-0.7137451171875,-85.0,13.0,68.0,101624.0,-2.4860000610351562,0,0
668.112996,0.35162353515625,0.350006103515625,-0.85894775390625,0.1265869140625,-0.18310546875,0.0,-0.18310546875,0.684814453125,0.0289306640625,-0.712158203125,-85.0,13.0,68.0,101624.0,-2.4860000610351562,0,0
668.117993,0.35162353515625,0.350006103515625,-0.85894775390625,0.1265869140625,0.0,0.1220703125,0.06103515625,0.6865234375,0.026611328125,-0.712890625,-85.0,13.0,68.0,101624.0,-2.4860000610351562,0,0
668.122993,0.35162353515625,0.350006103515625,-0.85894775390625,0.1265869140625,-0.244140625,-0.244140625,-0.18310546875,0.6856689453125,0.0283203125,-0.712158203125,-85.0,13.0,68.0,101624.0,-2.4860000610351562,0,0
668.127994,0.35162353515625,0.350006103515625,-0.858917236328125,0.1265869140625,-0.18310546875,-0.06103515625,0.0,0.68701171875,0.02880859375,-0.71142578125,-85.0,13.0,68.0,101624.0,-2.4860000610351562,0,0
668.132995,0.35162353515625,0.350006103515625,-0.85894775390625,0.1265869140625,0.30517578125,0.244140625,0.0,0.6837158203125,0.0284423828125,-0.71337890625,-85.0,13.0,68.0,101624.0,-2.4860000610351562,0,0
668.137993,0.351654052734375,0.350006103515625,-0.858917236328125,0.1265869140625,-0.1220703125,0.0,-0.18310546875,0.6851806640625,0.0274658203125,-0.7125244140625,-85.0,13.0,68.0,101624.0,-2.4860000610351562,0,0
668.142993,0.351654052734375,0.350006103515625,-0.858917236328125,0.1265869140625,-0.1220703125,0.1220703125,0.0,0.6854248046875,0.02880859375,-0.71142578125,-85.0,13.0,68.0,101624.0,-2.4860000610351562,0,0
668.147994,0.351654052734375,0.350006103515625,-0.858917236328125,0.1265869140625,0.0,0.0,-0.1220703125,0.683837890625,0.02978515625,-0.7119140625,-85.0,13.0,68.0,101624.0,-2.4860000610351562,0,0
668.152995,0.35162353515625,0.350006103515625,-0.85894775390625,0.1265869140625,-0.06103515625,0.1220703125,-0.18310546875,0.6849365234375,0.0277099609375,-0.7127685546875,-85.0,13.0,68.0,101624.0,-2.4860000610351562,0,0
668.157993,0.35162353515625,0.350006103515625,-0.85894775390625,0.1265869140625,-0.30517578125,-0.18310546875,-0.244140625,0.682373046875,0.0269775390625,-0.7110595703125,-85.0,13.0,68.0,101624.0,-2.4860000610351562,0,0
668.162993,0.35162353515625,0.350006103515625,-0.85894775390625,0.1265869140625,-0.1220703125,0.18310546875,-0.1220703125,0.68505859375,0.0283203125,-0.71337890625,-85.0,13.0,68.0,101624.0,-2.4860000610351562,0,0
668.167022,0.35162353515625,0.350006103515625,-0.85894775390625,0.1265869140625,-0.1220703125,0.18310546875,-0.1220703125,0.68505859375,0.0283203125,-0.71337890625,-85.0,13.0,68.0,101624.0,-2.4860000610351562,0,0
668.171993,0.35162353515625,0.350006103515625,-0.85894775390625,0.1265869140625,0.244140625,-0.06103515625,0.48828125,0.6832275390625,0.0281982421875,-0.7113037109375,-85.0,13.0,68.0,101624.0,-2.4860000610351562,0,0
668.186996,0.35162353515625,0.350006103515625,-0.85894775390625,0.1265869140625,0.0,0.06103515625,-0.18310546875,0.68359375,0.0303955078125,-0.713623046875,-85.0,13.0,68.0,101624.0,-2.4860000610351562,0,0
668.191994,0.35162353515625,0.350006103515625,-0.85894775390625,0.1265869140625,-0.18310546875,0.1220703125,0.1220703125,0.6837158203125,0.0272216796875,-0.7110595703125,-84.0,13.0,67.0,101624.0,-2.4860000610351562,0,0
668.196994,0.35162353515625,0.350006103515625,-0.85894775390625,0.1265869140625,0.244140625,0.06103515625,-0.1220703125,0.6876220703125,0.02880859375,-0.7139892578125,-84.0,13.0,67.0,101624.0,-2.4860000610351562,0,0
668.201995,0.351776123046875,0.3489990234375,-0.859344482421875,0.12615966796875,-0.3662109375,-0.1220703125,0.0,0.685546875,0.029296875,-0.7125244140625,-84.0,13.0,67.0,101624.0,-2.4860000610351562,0,0
668.206997,0.351776123046875,0.3489990234375,-0.859344482421875,0.12615966796875,-0.1220703125,-0.06103515625,0.0,0.687255859375,0.02880859375,-0.71142578125,-84.0,13.0,67.0,101624.0,-2.4860000610351562,0,0
668.211996,0.351776123046875,0.3489990234375,-0.859344482421875,0.12615966796875,-0.1220703125,0.0,0.0,0.6837158203125,0.0283203125,-0.7108154296875,-84.0,13.0,67.0,101624.0,-2.4860000610351562,0,0
668.216994,0.351776123046875,0.3489990234375,-0.859344482421875,0.12615966796875,-0.244140625,-0.244140625,-0.30517578125,0.6832275390625,0.02783203125,-0.7127685546875,-84.0,13.0,67.0,101624.0,-2.4860000610351562,0,0
668.221994,0.351776123046875,0.3489990234375,-0.859344482421875,0.12615966796875,-0.06103515625,0.0,0.18310546875,0.68212890625,0.0301513671875,-0.7115478515625,-84.0,13.0,67.0,101624.0,-2.4860000610351562,0,0
668.226994,0.351776123046875,0.3489990234375,-0.859344482421875,0.12615966796875,0.3662109375,0.3662109375,0.06103515625,0.683837890625,0.030517578125,-0.7108154296875,-84.0,13.0,67.0,101624.0,-2.4860000610351562,0,0
668.231026,0.351776123046875,0.3489990234375,-0.859344482421875,0.12615966796875,0.3662109375,0.3662109375,0.06103515625,0.683837890625,0.030517578125,-0.7108154296875,-84.0,13.0,67.0,101624.0,-2.4860000610351562,0,0
668.235994,0.351806640625,0.3489990234375,-0.859344482421875,0.12615966796875,0.244140625,-0.1220703125,0.0,0.6846923828125,0.0301513671875,-0.7105712890625,-84.0,13.0,67.0,101624.0,-2.4860000610351562,0,0
668.250993,0.351806640625,0.3489990234375,-0.859344482421875,0.12615966796875,-0.18310546875,0.0,-0.1220703125,0.686279296875,0.0291748046875,-0.7120361328125,-84.0,13.0,67.0,101623.0,-2.4850001335144043,0,0
668.255994,0.351806640625,0.3489990234375,-0.859344482421875,0.12615966796875,-0.244140625,0.0,0.0,0.6829833984375,0.0277099609375,-0.7138671875,-84.0,13.0,67.0,101623.0,-2.4850001335144043,0,0
668.260995,0.351776123046875,0.3489990234375,-0.859344482421875,0.12615966796875,0.06103515625,-0.06103515625,0.0,0.6827392578125,0.0255126953125,-0.712890625,-84.0,13.0,67.0,101623.0,-2.4850001335144043,0,0
668.265993,0.351776123046875,0.3489990234375,-0.859344482421875,0.12615966796875,0.0,-0.06103515625,-0.06103515625,0.682861328125,0.0283203125,-0.712158203125,-84.0,13.0,67.0,101623.0,-2.4850001335144043,0,0
668.270993,0.351776123046875,0.3489990234375,-0.859344482421875,0.12615966796875,0.0,0.18310546875,-0.18310546875,0.68701171875,0.028564453125,-0.7125244140625,-84.0,13.0,67.0,101623.0,-2.4850001335144043,0,0
668.275993,0.351776123046875,0.3489990234375,-0.859344482421875,0.12615966796875,0.3662109375,0.1220703125,0.06103515625,0.685302734375,0.0279541015625,-0.7122802734375,-84.0,13.0,67.0,101623.0,-2.4850001335144043,0,0
668.280994,0.351776123046875,0.3489990234375,-0.859344482421875,0.12615966796875,-0.06103515625,-0.06103515625,-0.3662109375,0.6845703125,0.0269775390625,-0.712158203125,-84.0,13.0,67.0,101623.0,-2.4850001335144043,0,0
668.285995,0.351776123046875,0.3489990234375,-0.859344482421875,0.12615966796875,-0.3662109375,-0.06103515625,-0.18310546875,0.6851806640625,0.0294189453125,-0.7137451171875,-84.0,13.0,67.0,101623.0,-2.4850001335144043,0,0
668.290993,0.351806640625,0.3489990234375,-0.859344482421875,0.12615966796875,0.0,0.1220703125,0.0,0.6854248046875,0.0284423828125,-0.7113037109375,-84.0,13.0,67.0,101623.0,-2.4850001335144043,0,0
668.295021,0.351806640625,0.3489990234375,-0.859344482421875,0.12615966796875,0.0,0.1220703125,0.0,0.6854248046875,0.0284423828125,-0.7113037109375,-84.0,13.0,67.0,101623.0,-2.4850001335144043,0,0
668.309994,0.35162353515625,0.350067138671875,-0.858917236328125,0.1265869140625,-0.18310546875,0.1220703125,-0.18310546875,0.6837158203125,0.031005859375,-0.711181640625,-85.0,12.0,67.0,101623.0,-2.4850001335144043,0,0
668.314995,0.35162353515625,0.350067138671875,-0.858917236328125,0.1265869140625,-0.30517578125,-0.06103515625,0.06103515625,0.684326171875,0.0283203125,-0.711669921875,-85.0,12.0,67.0,101623.0,-2.4850001335144043,0,0
668.319993,0.351654052734375,0.350067138671875,-0.858917236328125,0.1265869140625,0.0,0.1220703125,-0.06103515625,0.6849365234375,0.029052734375,-0.7109375,-85.0,12.0,67.0,101623.0,-2.4850001335144043,0,0
668.324993,0.351654052734375,0.350067138671875,-0.858917236328125,0.1265869140625,0.0,0.1220703125,-0.244140625,0.6846923828125,0.0299072265625,-0.7119140625,-85.0,12.0,67.0,101623.0,-2.4850001335144043,0,0
668.329993,0.351654052734375,0.350067138671875,-0.858917236328125,0.1265869140625,-0.06103515625,0.06103515625,-0.06103515625,0.6859130859375,0.0302734375,-0.7119140625,-85.0,12.0,67.0,101623.0,-2.4850001335144043,0,0
668.334994,0.351654052734375,0.350067138671875,-0.85888671875,0.1265869140625,0.06103515625,0.1220703125,-0.06103515625,0.6854248046875,0.029541015625,-0.7115478515625,-85.0,12.0,67.0,101623.0,-2.4850001335144043,0,0
668.339995,0.351654052734375,0.350067138671875,-0.85888671875,0.1265869140625,-0.06103515625,-0.18310546875,-0.18310546875,0.6845703125,0.029052734375,-0.7108154296875,-85.0,12.0,67.0,101623.0,-2.4850001335144043,0,0
668.344993,0.351654052734375,0.350067138671875,-0.85888671875,0.1265869140625,-0.1220703125,0.0,-0.06103515625,0.685302734375,0.027587890625,-0.712646484375,-85.0,12.0,67.0,101623.0,-2.4850001335144043,0,0
668.349993,0.351654052734375,0.350067138671875,-0.85888671875,0.1265869140625,0.1220703125,0.18310546875,-0.42724609375,0.68505859375,0.026611328125,-0.7137451171875,-85.0,12.0,67.0,101623.0,-2.4850001335144043,0,0
668.354994,0.351654052734375,0.350067138671875,-0.85888671875,0.1265869140625,-0.244140625,0.1220703125,-0.3662109375,0.686279296875,0.027587890625,-0.71337890625,-85.0,12.0,67.0,101623.0,-2.4850001335144043,0,0
668.359995,0.351654052734375,0.350067138671875,-0.858917236328125,0.1265869140625,0.06103515625,0.1220703125,-0.1220703125,0.683349609375,0.0284423828125,-0.7132568359375,-85.0,12.0,67.0,101623.0,-2.4850001335144043,0,0
668.373993,0.351654052734375,0.350067138671875,-0.85888671875,0.1265869140625,-0.06103515625,0.06103515625,-0.1220703125,0.68408203125,0.0313720703125,-0.7105712890625,-85.0,12.0,67.0,101623.0,-2.4850001335144043,0,0
668.378993,0.351654052734375,0.350067138671875,-0.85888671875,0.1265869140625,0.18310546875,-0.06103515625,-0.18310546875,0.68408203125,0.0299072265625,-0.7120361328125,-85.0,12.0,67.0,101623.0,-2.4850001335144043,0,0
668.383993,0.351654052734375,0.350067138671875,-0.85888671875,0.1265869140625,0.06103515625,-0.18310546875,0.06103515625,0.6876220703125,0.029541015625,-0.712158203125,-85.0,12.0,67.0,101623.0,-2.4850001335144043,0,0
668.398994,0.351318359375,0.352325439453125,-0.85797119140625,0.12750244140625,-0.67138671875,-0.30517578125,-0.18310546875,0.6859130859375,0.0289306640625,-0.7132568359375,-85.0,12.0,68.0,101623.0,-2.4850001335144043,0,0
668.403994,0.351318359375,0.352325439453125,-0.85797119140625,0.12750244140625,-0.1220703125,0.06103515625,-0.06103515625,0.6844482421875,0.0291748046875,-0.7119140625,-85.0,12.0,68.0,101623.0,-2.4850001335144043,0,0
668.408995,0.351318359375,0.352325439453125,-0.85797119140625,0.12750244140625,-0.30517578125,0.244140625,0.0,0.683837890625,0.0294189453125,-0.7115478515625,-85.0,12.0,68.0,101623.0,-2.4850001335144043,0,0
668.413997,0.351348876953125,0.352325439453125,-0.85797119140625,0.12750244140625,-0.244140625,0.06103515625,-0.06103515625,0.6864013671875,0.026123046875,-0.7122802734375,-85.0,12.0,68.0,101623.0,-2.4850001335144043,0,0
668.418996,0.351348876953125,0.352325439453125,-0.85797119140625,0.12750244140625,0.18310546875,0.0,0.1220703125,0.6861572265625,0.028076171875,-0.71142578125,-85.0,12.0,68.0,101623.0,-2.4850001335144043,0,0
668.423994,0.351348876953125,0.352325439453125,-0.85797119140625,0.12750244140625,0.1220703125,0.18310546875,-0.18310546875,0.684326171875,0.0294189453125,-0.7120361328125,-85.0,12.0,68.0,101623.0,-2.4850001335144043,0,0
668.437994,0.351348876953125,0.352325439453125,-0.85797119140625,0.12750244140625,-0.06103515625,0.0,-0.1220703125,0.6873779296875,0.0274658203125,-0.712158203125,-85.0,12.0,68.0,101623.0,-2.4850001335144043,0,0
668.442994,0.351348876953125,0.352325439453125,-0.85797119140625,0.12750244140625,-0.18310546875,-0.06103515625,-0.1220703125,0.684814453125,0.0281982421875,-0.7122802734375,-85.0,12.0,68.0,101623.0,-2.4850001335144043,0,0
668.447996,0.351348876953125,0.352325439453125,-0.85797119140625,0.12750244140625,0.06103515625,0.1220703125,-0.1220703125,0.6861572265625,0.02783203125,-0.7115478515625,-85.0,12.0,68.0,101623.0,-2.4850001335144043,0,0
668.452994,0.351348876953125,0.352325439453125,-0.85797119140625,0.12750244140625,-0.30517578125,-0.18310546875,0.0,0.6854248046875,0.0286865234375,-0.7142333984375,-85.0,12.0,68.0,101623.0,-2.4850001335144043,0,0
668.457993,0.351348876953125,0.352325439453125,-0.85797119140625,0.127532958984375,0.18310546875,0.0,-0.18310546875,0.6846923828125,0.0263671875,-0.7113037109375,-85.0,12.0,68.0,101623.0,-2.4850001335144043,0,0
668.462994,0.351348876953125,0.352325439453125,-0.85797119140625,0.12750244140625,-0.06103515625,0.06103515625,-0.244140625,0.6839599609375,0.02685546875,-0.713623046875,-85.0,12.0,68.0,101623.0,-2.4850001335144043,0,0
668.467995,0.351348876953125,0.352325439453125,-0.85797119140625,0.12750244140625,-0.1220703125,0.0,0.0,0.6839599609375,0.03173828125,-0.7122802734375,-85.0,12.0,68.0,101623.0,-2.4850001335144043,0,0
668.472996,0.351348876953125,0.352325439453125,-0.85797119140625,0.12750244140625,0.1220703125,-0.06103515625,0.1220703125,0.6846923828125,0.029541015625,-0.7122802734375,-85.0,12.0,68.0,101623.0,-2.4850001335144043,0,0
668.477993,0.351348876953125,0.352325439453125,-0.85797119140625,0.12750244140625,-0.42724609375,-0.1220703125,0.0,0.68505859375,0.028564453125,-0.713134765625,-85.0,12.0,68.0,101623.0,-2.4850001335144043,0,0
668.482993,0.351348876953125,0.352325439453125,-0.85797119140625,0.12750244140625,0.18310546875,0.0,-0.06103515625,0.6832275390625,0.0286865234375,-0.71240234375,-85.0,12.0,68.0,101623.0,-2.4850001335144043,0,0
668.487994,0.351348876953125,0.352325439453125,-0.85797119140625,0.12750244140625,0.06103515625,-0.1220703125,0.244140625,0.685302734375,0.0289306640625,-0.7130126953125,-85.0,12.0,68.0,101623.0,-2.4850001335144043,0,0
668.492995,0.351348876953125,0.352325439453125,-0.85797119140625,0.12750244140625,-0.06103515625,0.1220703125,-0.06103515625,0.68408203125,0.029296875,-0.7119140625,-84.0,12.0,68.0,101624.0,-2.4860000610351562,0,0
668.497023,0.351348876953125,0.352325439453125,-0.85797119140625,0.12750244140625,-0.06103515625,0.1220703125,-0.06103515625,0.68408203125,0.029296875,-0.7119140625,-84.0,12.0,68.0,101624.0,-2.4860000610351562,0,0
668.501995,0.351165771484375,0.353515625,-0.85748291015625,0.12799072265625,-0.1220703125,0.0,-0.06103515625,0.6856689453125,0.0291748046875,-0.712158203125,-84.0,12.0,68.0,101624.0,-2.4860000610351562,0,0
668.506993,0.351165771484375,0.353515625,-0.85748291015625,0.12799072265625,-0.30517578125,-0.06103515625,-0.244140625,0.6871337890625,0.0286865234375,-0.710693359375,-84.0,12.0,68.0,101624.0,-2.4860000610351562,0,0
668.511993,0.351165771484375,0.353515625,-0.85748291015625,0.127960205078125,-0.06103515625,0.0,-0.244140625,0.6851806640625,0.0322265625,-0.71240234375,-84.0,12.0,68.0,101624.0,-2.4860000610351562,0,0
668.516994,0.351165771484375,0.353515625,-0.85748291015625,0.127960205078125,0.244140625,-0.1220703125,-0.244140625,0.6854248046875,0.02880859375,-0.713623046875,-84.0,12.0,68.0,101624.0,-2.4860000610351562,0,0
668.521995,0.351165771484375,0.353515625,-0.85748291015625,0.12799072265625,-0.1220703125,-0.1220703125,0.1220703125,0.6854248046875,0.0269775390625,-0.7117919921875,-84.0,12.0,68.0,101624.0,-2.4860000610351562,0,0
668.526996,0.351165771484375,0.353515625,-0.85748291015625,0.12799072265625,0.1220703125,0.1220703125,-0.1220703125,0.686279296875,0.02783203125,-0.712646484375,-84.0,12.0,68.0,101624.0,-2.4860000610351562,0,0
668.531993,0.351165771484375,0.353515625,-0.85748291015625,0.127960205078125,-0.18310546875,-0.1220703125,-0.1220703125,0.6827392578125,0.0289306640625,-0.7130126953125,-84.0,12.0,68.0,101624.0,-2.4860000610351562,0,0
668.536993,0.351165771484375,0.353515625,-0.85748291015625,0.127960205078125,-0.1220703125,0.6103515625,0.18310546875,0.68505859375,0.0299072265625,-0.7115478515625,-84.0,12.0,68.0,101624.0,-2.4860000610351562,0,0
668.541994,0.351165771484375,0.353515625,-0.85748291015625,0.127960205078125,-0.244140625,-0.18310546875,-0.06103515625,0.6851806640625,0.0289306640625,-0.7103271484375,-84.0,12.0,68.0,101624.0,-2.4860000610351562,0,0
668.546995,0.351165771484375,0.353515625,-0.85748291015625,0.127960205078125,-0.244140625,-0.06103515625,0.0,0.685791015625,0.0277099609375,-0.712890625,-84.0,12.0,68.0,101624.0,-2.4860000610351562,0,0
668.561022,0.351165771484375,0.353515625,-0.85748291015625,0.127960205078125,0.06103515625,0.1220703125,0.0,0.6822509765625,0.027587890625,-0.712890625,-84.0,12.0,68.0,101624.0,-2.4860000610351562,0,0
668.565993,0.351165771484375,0.353515625,-0.85748291015625,0.127960205078125,-0.18310546875,0.1220703125,0.1220703125,0.6849365234375,0.0296630859375,-0.7142333984375,-84.0,12.0,68.0,101624.0,-2.4860000610351562,0,0
668.570994,0.351165771484375,0.353515625,-0.85748291015625,0.127960205078125,0.06103515625,0.244140625,-0.06103515625,0.6844482421875,0.02978515625,-0.7132568359375,-84.0,12.0,68.0,101624.0,-2.4860000610351562,0,0
668.575995,0.351165771484375,0.353515625,-0.85748291015625,0.127960205078125,0.1220703125,0.18310546875,0.0,0.6851806640625,0.0286865234375,-0.712158203125,-84.0,12.0,68.0,101624.0,-2.4860000610351562,0,0
668.580996,0.351165771484375,0.353515625,-0.85748291015625,0.127960205078125,-0.06103515625,-0.1220703125,0.06103515625,0.685302734375,0.02783203125,-0.712158203125,-84.0,12.0,68.0,101624.0,-2.4860000610351562,0,0
668.585993,0.351165771484375,0.353515625,-0.85748291015625,0.127960205078125,-0.42724609375,0.1220703125,-0.1220703125,0.6846923828125,0.0291748046875,-0.71337890625,-84.0,12.0,68.0,101624.0,-2.4860000610351562,0,0
668.590993,0.351165771484375,0.353515625,-0.85748291015625,0.127960205078125,-0.42724609375,0.1220703125,-0.1220703125,0.6846923828125,0.0291748046875,-0.71337890625,-84.0,12.0,68.0,101624.0,-2.4860000610351562,0,0
668.595994,0.351165771484375,0.353515625,-0.85748291015625,0.127960205078125,-0.1220703125,0.0,-0.18310546875,0.6868896484375,0.027099609375,-0.71142578125,-85.0,13.0,68.0,101624.0,-2.4860000610351562,0,0
668.600996,0.351318359375,0.352508544921875,-0.85791015625,0.127532958984375,0.244140625,0.18310546875,-0.1220703125,0.68359375,0.029541015625,-0.7138671875,-85.0,13.0,68.0,101624.0,-2.4860000610351562,0,0
668.605994,0.351318359375,0.352508544921875,-0.85791015625,0.127532958984375,0.244140625,0.06103515625,-0.1220703125,0.6844482421875,0.028564453125,-0.712890625,-85.0,13.0,68.0,101624.0,-2.4860000610351562,0,0
668.610994,0.351318359375,0.352508544921875,-0.85791015625,0.127532958984375,-0.1220703125,0.06103515625,-0.244140625,0.6851806640625,0.026611328125,-0.7127685546875,-85.0,13.0,68.0,101624.0,-2.4860000610351562,0,0
668.625996,0.351318359375,0.352508544921875,-0.85791015625,0.127532958984375,-0.1220703125,-0.06103515625,-0.18310546875,0.68359375,0.029052734375,-0.7113037109375,-85.0,13.0,68.0,101624.0,-2.4860000610351562,0,0
668.630023,0.351318359375,0.352508544921875,-0.85791015625,0.127532958984375,-0.1220703125,-0.06103515625,-0.18310546875,0.68359375,0.029052734375,-0.7113037109375,-85.0,13.0,68.0,101624.0,-2.4860000610351562,0,0
668.634997,0.351318359375,0.352508544921875,-0.85791015625,0.1275634765625,0.0,-0.06103515625,-0.18310546875,0.685546875,0.0269775390625,-0.7120361328125,-85.0,13.0,68.0,101624.0,-2.4860000610351562,0,0
668.639994,0.351318359375,0.352508544921875,-0.85791015625,0.1275634765625,0.1220703125,0.0,0.18310546875,0.6834716796875,0.02880859375,-0.71240234375,-85.0,13.0,68.0,101624.0,-2.4860000610351562,0,0
668.644994,0.351318359375,0.352508544921875,-0.85791015625,0.127532958984375,0.06103515625,0.1220703125,0.0,0.68408203125,0.0308837890625,-0.711669921875,-85.0,13.0,68.0,101624.0,-2.4860000610351562,0,0
668.649994,0.351318359375,0.352508544921875,-0.85791015625,0.127532958984375,-0.06103515625,-0.18310546875,-0.06103515625,0.6851806640625,0.0277099609375,-0.7138671875,-85.0,13.0,68.0,101624.0,-2.4860000610351562,0,0
668.654996,0.351318359375,0.352508544921875,-0.85791015625,0.127532958984375,0.1220703125,0.30517578125,-0.06103515625,0.68408203125,0.0286865234375,-0.7130126953125,-85.0,13.0,68.0,101624.0,-2.4860000610351562,0,0
668.659994,0.351318359375,0.352508544921875,-0.85791015625,0.127532958984375,-0.79345703125,-0.06103515625,-0.06103515625,0.68408203125,0.0279541015625,-0.7135009765625,-85.0,13.0,68.0,101624.0,-2.4860000610351562,0,0
668.664994,0.351287841796875,0.352508544921875,-0.85791015625,0.127532958984375,0.06103515625,0.06103515625,-0.18310546875,0.68310546875,0.02734375,-0.7117919921875,-85.0,13.0,68.0,101624.0,-2.4860000610351562,0,0
668.669994,0.351287841796875,0.352508544921875,-0.85791015625,0.1275634765625,0.42724609375,0.0,0.0,0.682861328125,0.029296875,-0.712158203125,-85.0,13.0,68.0,101624.0,-2.4860000610351562,0,0
668.674995,0.351287841796875,0.352508544921875,-0.85791015625,0.127532958984375,0.18310546875,0.18310546875,-0.1220703125,0.685791015625,0.027587890625,-0.712158203125,-85.0,13.0,68.0,101624.0,-2.4860000610351562,0,0
668.679993,0.351287841796875,0.352508544921875,-0.85791015625,0.127532958984375,0.18310546875,0.06103515625,-0.244140625,0.68408203125,0.03076171875,-0.712890625,-85.0,13.0,68.0,101624.0,-2.4860000610351562,0,0
668.684993,0.351287841796875,0.352508544921875,-0.85791015625,0.127532958984375,-0.06103515625,-0.06103515625,0.1220703125,0.6845703125,0.0279541015625,-0.7138671875,-85.0,13.0,68.0,101624.0,-2.4860000610351562,0,0
668.689993,0.351287841796875,0.352508544921875,-0.85791015625,0.127532958984375,-0.30517578125,0.1220703125,-0.244140625,0.68701171875,0.0291748046875,-0.7142333984375,-85.0,13.0,68.0,101624.0,-2.4860000610351562,0,0
668.694022,0.351287841796875,0.352508544921875,-0.85791015625,0.127532958984375,-0.30517578125,0.1220703125,-0.244140625,0.68701171875,0.0291748046875,-0.7142333984375,-85.0,13.0,68.0,101624.0,-2.4860000610351562,0,0
668.698993,0.3509521484375,0.354766845703125,-0.85699462890625,0.128448486328125,-0.3662109375,0.06103515625,-0.244140625,0.6865234375,0.0283203125,-0.712158203125,-84.0,12.0,67.0,101624.0,-2.4860000610351562,0,0
668.703994,0.350982666015625,0.354766845703125,-0.85699462890625,0.128448486328125,0.06103515625,-0.244140625,-0.06103515625,0.685791015625,0.0281982421875,-0.7125244140625,-84.0,12.0,67.0,101624.0,-2.4860000610351562,0,0
668.708995,0.350982666015625,0.354766845703125,-0.856964111328125,0.128448486328125,0.1220703125,0.1220703125,0.06103515625,0.686767578125,0.028564453125,-0.7108154296875,-84.0,12.0,67.0,101624.0,-2.4860000610351562,0,0
668.713993,0.350982666015625,0.354766845703125,-0.856964111328125,0.128448486328125,0.1220703125,-0.1220703125,-0.18310546875,0.6851806640625,0.0294189453125,-0.712890625,-84.0,12.0,67.0,101624.0,-2.4860000610351562,0,0
668.718993,0.350982666015625,0.354766845703125,-0.856964111328125,0.128448486328125,-0.48828125,-0.06103515625,-0.06103515625,0.6834716796875,0.0296630859375,-0.7117919921875,-84.0,12.0,67.0,101624.0,-2.4860000610351562,0,0
668.723994,0.350982666015625,0.354766845703125,-0.856964111328125,0.128448486328125,0.06103515625,-0.1220703125,-0.30517578125,0.6839599609375,0.027587890625,-0.7108154296875,-84.0,12.0,67.0,101624.0,-2.4860000610351562,0,0
668.728995,0.350982666015625,0.354766845703125,-0.856964111328125,0.128448486328125,-0.1220703125,-0.1220703125,0.0,0.6865234375,0.0284423828125,-0.711181640625,-84.0,12.0,67.0,101624.0,-2.4860000610351562,0,0
668.733993,0.350982666015625,0.354766845703125,-0.856964111328125,0.128448486328125,-0.244140625,0.0,0.06103515625,0.6854248046875,0.029052734375,-0.71240234375,-84.0,12.0,67.0,101624.0,-2.4860000610351562,0,0
668.748994,0.350982666015625,0.354766845703125,-0.856964111328125,0.12847900390625,-0.1220703125,-0.06103515625,-0.1220703125,0.68505859375,0.0284423828125,-0.7122802734375,-84.0,12.0,67.0,101624.0,-2.4860000610351562,0,0
668.753995,0.350982666015625,0.354766845703125,-0.856964111328125,0.12847900390625,0.06103515625,-0.18310546875,-0.1220703125,0.6842041015625,0.0294189453125,-0.7138671875,-84.0,12.0,67.0,101624.0,-2.4860000610351562,0,0
668.758993,0.350982666015625,0.354766845703125,-0.856964111328125,0.128448486328125,0.0,-0.18310546875,-0.06103515625,0.6827392578125,0.0296630859375,-0.71337890625,-84.0,12.0,67.0,101624.0,-2.4860000610351562,0,0
668.763021,0.350982666015625,0.354766845703125,-0.856964111328125,0.128448486328125,0.0,-0.18310546875,-0.06103515625,0.6827392578125,0.0296630859375,-0.71337890625,-84.0,12.0,67.0,101624.0,-2.4860000610351562,0,0
668.767993,0.350982666015625,0.354766845703125,-0.856964111328125,0.128448486328125,0.0,-0.06103515625,0.06103515625,0.6859130859375,0.0281982421875,-0.7120361328125,-84.0,12.0,67.0,101624.0,-2.4860000610351562,0,0
668.772993,0.350982666015625,0.354766845703125,-0.856964111328125,0.128448486328125,0.1220703125,0.06103515625,-0.1220703125,0.68505859375,0.0303955078125,-0.711669921875,-84.0,12.0,67.0,101624.0,-2.4860000610351562,0,0
668.777994,0.350982666015625,0.354766845703125,-0.856964111328125,0.12847900390625,-0.1220703125,0.0,-0.18310546875,0.685546875,0.0267333984375,-0.712158203125,-84.0,12.0,67.0,101624.0,-2.4860000610351562,0,0
668.782995,0.350982666015625,0.354766845703125,-0.856964111328125,0.128448486328125,-0.06103515625,0.0,-0.1220703125,0.6827392578125,0.0299072265625,-0.71142578125,-84.0,12.0,67.0,101624.0,-2.4860000610351562,0,0
668.787993,0.350982666015625,0.354766845703125,-0.856964111328125,0.128448486328125,0.0,-0.1220703125,0.0,0.6832275390625,0.0286865234375,-0.71240234375,-84.0,12.0,67.0,101624.0,-2.4860000610351562,0,0
668.792993,0.350982666015625,0.354766845703125,-0.856964111328125,0.128448486328125,-0.18310546875,0.1220703125,0.244140625,0.6842041015625,0.0283203125,-0.7127685546875,-84.0,12.0,67.0,101623.0,-2.4860000610351562,0,0
668.807995,0.351409912109375,0.351715087890625,-0.858245849609375,0.127197265625,-0.1220703125,-0.06103515625,-0.06103515625,0.683349609375,0.0291748046875,-0.713134765625,-85.0,14.0,68.0,101623.0,-2.4860000610351562,0,0
668.812994,0.351409912109375,0.351715087890625,-0.858245849609375,0.127227783203125,-0.1220703125,0.0,-0.06103515625,0.6846923828125,0.027099609375,-0.712158203125,-85.0,14.0,68.0,101623.0,-2.4860000610351562,0,0
668.817994,0.351409912109375,0.351715087890625,-0.858245849609375,0.127197265625,-0.18310546875,0.06103515625,-0.1220703125,0.6832275390625,0.030029296875,-0.712890625,-85.0,14.0,68.0,101623.0,-2.4860000610351562,0,0
668.822995,0.351409912109375,0.351715087890625,-0.858245849609375,0.127227783203125,0.0,0.0,0.0,0.684814453125,0.0262451171875,-0.7109375,-85.0,14.0,68.0,101623.0,-2.4860000610351562,0,0
668.827025,0.351409912109375,0.351715087890625,-0.858245849609375,0.127227783203125,0.0,0.0,0.0,0.684814453125,0.0262451171875,-0.7109375,-85.0,14.0,68.0,101623.0,-2.4860000610351562,0,0
668.831995,0.351409912109375,0.351715087890625,-0.858245849609375,0.127227783203125,-0.18310546875,-0.18310546875,-0.244140625,0.6871337890625,0.0289306640625,-0.71240234375,-85.0,14.0,68.0,101623.0,-2.4860000610351562,0,0
668.836997,0.351409912109375,0.351715087890625,-0.858245849609375,0.127227783203125,0.06103515625,0.0,-0.06103515625,0.687255859375,0.0284423828125,-0.711669921875,-85.0,14.0,68.0,101623.0,-2.4860000610351562,0,0
668.841996,0.351409912109375,0.351715087890625,-0.858245849609375,0.127227783203125,0.0,0.1220703125,-0.1220703125,0.6837158203125,0.0291748046875,-0.7135009765625,-85.0,14.0,68.0,101623.0,-2.4860000610351562,0,0
668.846994,0.351409912109375,0.351715087890625,-0.858245849609375,0.127197265625,-0.244140625,-0.06103515625,0.0,0.68310546875,0.02880859375,-0.713134765625,-85.0,14.0,68.0,101623.0,-2.4860000610351562,0,0
668.851994,0.351409912109375,0.351715087890625,-0.858245849609375,0.127197265625,-0.06103515625,-0.1220703125,0.06103515625,0.684326171875,0.0291748046875,-0.713623046875,-85.0,14.0,68.0,101623.0,-2.4860000610351562,0,0
668.856994,0.351409912109375,0.351715087890625,-0.858245849609375,0.127197265625,-0.42724609375,-0.1220703125,0.0,0.6859130859375,0.029296875,-0.712158203125,-85.0,14.0,68.0,101623.0,-2.4860000610351562,0,0
668.861996,0.351409912109375,0.351715087890625,-0.858245849609375,0.127197265625,0.0,0.06103515625,-0.1220703125,0.685302734375,0.0283203125,-0.713134765625,-85.0,14.0,68.0,101623.0,-2.4860000610351562,0,0
668.866994,0.351409912109375,0.351715087890625,-0.858245849609375,0.127197265625,0.0,0.0,0.1220703125,0.6832275390625,0.0284423828125,-0.7122802734375,-85.0,14.0,68.0,101623.0,-2.4860000610351562,0,0
668.871994,0.351409912109375,0.351715087890625,-0.858245849609375,0.127197265625,-0.06103515625,0.1220703125,0.06103515625,0.686279296875,0.0308837890625,-0.712646484375,-85.0,14.0,68.0,101623.0,-2.4860000610351562,0,0
668.876995,0.351409912109375,0.351715087890625,-0.858245849609375,0.127197265625,0.0,0.06103515625,0.1220703125,0.6854248046875,0.0299072265625,-0.711181640625,-85.0,14.0,68.0,101623.0,-2.4860000610351562,0,0
668.881995,0.351409912109375,0.351715087890625,-0.858245849609375,0.127197265625,-0.244140625,0.06103515625,-0.06103515625,0.68798828125,0.0250244140625,-0.7119140625,-85.0,14.0,68.0,101623.0,-2.4860000610351562,0,0
668.886993,0.351409912109375,0.351715087890625,-0.858245849609375,0.127197265625,0.0,0.06103515625,-0.1220703125,0.685546875,0.02734375,-0.7127685546875,-85.0,14.0,68.0,101623.0,-2.4860000610351562,0,0
668.891993,0.351409912109375,0.351715087890625,-0.858245849609375,0.127197265625,0.0,0.06103515625,-0.1220703125,0.685546875,0.02734375,-0.7127685546875,-86.0,13.0,68.0,101623.0,-2.4850001335144043,0,0
668.896022,0.351409912109375,0.351715087890625,-0.858245849609375,0.127197265625,0.0,0.06103515625,-0.1220703125,0.685546875,0.02734375,-0.7127685546875,-86.0,13.0,68.0,101623.0,-2.4850001335144043,0,0
668.900993,0.3515625,0.3507080078125,-0.858642578125,0.126800537109375,-0.18310546875,0.1220703125,-0.18310546875,0.686279296875,0.0284423828125,-0.7135009765625,-86.0,13.0,68.0,101623.0,-2.4850001335144043,0,0
668.905993,0.3515625,0.3507080078125,-0.858642578125,0.126800537109375,0.732421875,0.06103515625,-0.244140625,0.685546875,0.0286865234375,-0.712890625,-86.0,13.0,68.0,101623.0,-2.4850001335144043,0,0
668.910994,0.3515625,0.3507080078125,-0.858642578125,0.126800537109375,-0.18310546875,-0.06103515625,0.244140625,0.683837890625,0.027587890625,-0.7135009765625,-86.0,13.0,68.0,101623.0,-2.4850001335144043,0,0
668.915995,0.351593017578125,0.3507080078125,-0.858642578125,0.126800537109375,0.1220703125,0.06103515625,-0.1220703125,0.6846923828125,0.030029296875,-0.710205078125,-86.0,13.0,68.0,101623.0,-2.4850001335144043,0,0
668.930994,0.3515625,0.350677490234375,-0.858642578125,0.126800537109375,-0.244140625,-0.06103515625,-0.06103515625,0.68310546875,0.026611328125,-0.7120361328125,-86.0,13.0,68.0,101623.0,-2.4850001335144043,0,0
668.935995,0.3515625,0.350677490234375,-0.858642578125,0.126800537109375,-0.06103515625,0.0,-0.1220703125,0.6842041015625,0.026611328125,-0.7127685546875,-86.0,13.0,68.0,101623.0,-2.4850001335144043,0,0
668.940996,0.3515625,0.350677490234375,-0.858642578125,0.126800537109375,-0.06103515625,0.0,-0.1220703125,0.6842041015625,0.026611328125,-0.7127685546875,-86.0,13.0,68.0,101623.0,-2.4850001335144043,0,0
668.945993,0.3515625,0.350677490234375,-0.858642578125,0.126800537109375,-0.1220703125,-0.18310546875,-0.244140625,0.68408203125,0.0299072265625,-0.7117919921875,-86.0,13.0,68.0,101623.0,-2.4850001335144043,0,0
668.950993,0.3515625,0.350677490234375,-0.858642578125,0.126800537109375,-0.3662109375,0.0,-0.18310546875,0.68603515625,0.028564453125,-0.7132568359375,-86.0,13.0,68.0,101623.0,-2.4850001335144043,0,0
668.955994,0.3515625,0.350677490234375,-0.858642578125,0.126800537109375,0.1220703125,0.06103515625,-0.06103515625,0.6856689453125,0.02734375,-0.7127685546875,-86.0,13.0,68.0,101623.0,-2.4850001335144043,0,0
668.960024,0.3515625,0.350677490234375,-0.858642578125,0.126800537109375,0.1220703125,0.06103515625,-0.06103515625,0.6856689453125,0.02734375,-0.7127685546875,-86.0,13.0,68.0,101623.0,-2.4850001335144043,0,0
668.964994,0.3515625,0.350677490234375,-0.858642578125,0.126800537109375,0.1220703125,0.1220703125,0.0,0.685546875,0.027587890625,-0.7109375,-86.0,13.0,68.0,101623.0,-2.4850001335144043,0,0
668.969995,0.351593017578125,0.350677490234375,-0.858642578125,0.1268310546875,-0.54931640625,-0.30517578125,-0.06103515625,0.6854248046875,0.02880859375,-0.7135009765625,-86.0,13.0,68.0,101623.0,-2.4850001335144043,0,0
668.974993,0.351593017578125,0.350677490234375,-0.858642578125,0.1268310546875,-0.30517578125,0.0,-0.1220703125,0.6866455078125,0.0262451171875,-0.7109375,-86.0,13.0,68.0,101623.0,-2.4850001335144043,0,0
668.979993,0.3515625,0.350677490234375,-0.858642578125,0.1268310546875,0.06103515625,0.06103515625,0.0,0.685791015625,0.0284423828125,-0.712158203125,-86.0,13.0,68.0,101623.0,-2.4850001335144043,0,0
668.994993,0.3515625,0.350677490234375,-0.858642578125,0.1268310546875,0.244140625,0.06103515625,-0.18310546875,0.6845703125,0.027099609375,-0.7125244140625,-85.0,13.0,68.0,101623.0,-2.4850001335144043,0,0
668.999993,0.351715087890625,0.34967041015625,-0.85906982421875,0.12640380859375,-0.06103515625,-0.06103515625,-0.244140625,0.6849365234375,0.02734375,-0.71337890625,-85.0,13.0,68.0,101623.0,-2.4850001335144043,0,0
669.004993,0.351715087890625,0.34967041015625,-0.85906982421875,0.126434326171875,-0.1220703125,-0.244140625,-0.18310546875,0.6842041015625,0.02587890625,-0.7138671875,-85.0,13.0,68.0,101623.0,-2.4850001335144043,0,0
669.009994,0.351715087890625,0.34967041015625,-0.85906982421875,0.12640380859375,0.06103515625,-0.06103515625,-0.1220703125,0.6854248046875,0.0301513671875,-0.71044921875,-85.0,13.0,68.0,101623.0,-2.4850001335144043,0,0
669.014995,0.351715087890625,0.34967041015625,-0.85906982421875,0.12640380859375,-0.30517578125,0.06103515625,0.0,0.68408203125,0.02978515625,-0.71240234375,-85.0,13.0,68.0,101623.0,-2.4850001335144043,0,0
669.019993,0.351715087890625,0.34967041015625,-0.85906982421875,0.12640380859375,0.06103515625,0.18310546875,-0.06103515625,0.6832275390625,0.029052734375,-0.7109375,-85.0,13.0,68.0,101623.0,-2.4850001335144043,0,0
669.024993,0.351715087890625,0.34967041015625,-0.85906982421875,0.12640380859375,0.0,0.0,0.18310546875,0.6834716796875,0.0281982421875,-0.713134765625,-85.0,13.0,68.0,101623.0,-2.4850001335144043,0,0
669.029023,0.351715087890625,0.34967041015625,-0.85906982421875,0.12640380859375,0.0,0.0,0.18310546875,0.6834716796875,0.0281982421875,-0.713134765625,-85.0,13.0,68.0,101623.0,-2.4850001335144043,0,0
669.033994,0.351715087890625,0.34967041015625,-0.85906982421875,0.12640380859375,0.06103515625,0.1220703125,-0.1220703125,0.6866455078125,0.029052734375,-0.7149658203125,-85.0,13.0,68.0,101623.0,-2.4850001335144043,0,0
669.038995,0.351715087890625,0.34967041015625,-0.85906982421875,0.12640380859375,-0.3662109375,-0.06103515625,0.0,0.683349609375,0.0284423828125,-0.71240234375,-85.0,13.0,68.0,101623.0,-2.4850001335144043,0,0
669.043997,0.351715087890625,0.34967041015625,-0.85906982421875,0.12640380859375,-0.06103515625,0.1220703125,-0.1220703125,0.6839599609375,0.0281982421875,-0.711669921875,-85.0,13.0,68.0,101623.0,-2.4850001335144043,0,0
669.048996,0.351715087890625,0.34967041015625,-0.85906982421875,0.12640380859375,-0.1220703125,0.18310546875,-0.06103515625,0.685546875,0.028564453125,-0.711669921875,-85.0,13.0,68.0,101623.0,-2.4850001335144043,0,0
669.053994,0.351715087890625,0.34967041015625,-0.85906982421875,0.12640380859375,0.1220703125,0.0,-0.06103515625,0.685546875,0.02880859375,-0.7119140625,-85.0,13.0,68.0,101623.0,-2.4850001335144043,0,0
669.058994,0.351715087890625,0.34967041015625,-0.85906982421875,0.12640380859375,0.18310546875,-0.06103515625,-0.244140625,0.6845703125,0.0299072265625,-0.7117919921875,-85.0,13.0,68.0,101623.0,-2.4850001335144043,0,0
669.063994,0.35174560546875,0.34967041015625,-0.85906982421875,0.12640380859375,-0.06103515625,-0.1220703125,-0.06103515625,0.6876220703125,0.0289306640625,-0.7122802734375,-85.0,13.0,68.0,101623.0,-2.4850001335144043,0,0
669.068996,0.35174560546875,0.34967041015625,-0.85906982421875,0.12640380859375,0.244140625,0.0,-0.18310546875,0.6866455078125,0.028564453125,-0.7117919921875,-85.0,13.0,68.0,101623.0,-2.4850001335144043,0,0
669.073994,0.35174560546875,0.34967041015625,-0.85906982421875,0.12640380859375,0.0,0.06103515625,0.06103515625,0.6839599609375,0.02880859375,-0.711181640625,-85.0,13.0,68.0,101623.0,-2.4850001335144043,0,0
669.078994,0.35174560546875,0.34967041015625,-0.85906982421875,0.12640380859375,-0.1220703125,0.0,-0.48828125,0.6842041015625,0.02734375,-0.7117919921875,-85.0,13.0,68.0,101623.0,-2.4850001335144043,0,0
669.083995,0.35174560546875,0.34967041015625,-0.85906982421875,0.126434326171875,0.06103515625,-0.06103515625,-0.244140625,0.6854248046875,0.027587890625,-0.712890625,-85.0,13.0,68.0,101623.0,-2.4850001335144043,0,0
669.088997,0.35174560546875,0.34967041015625,-0.85906982421875,0.12640380859375,-0.48828125,-0.06103515625,-0.1220703125,0.6851806640625,0.0294189453125,-0.713134765625,-85.0,13.0,68.0,101623.0,-2.4850001335144043,0,0
669.093025,0.35174560546875,0.34967041015625,-0.85906982421875,0.12640380859375,-0.48828125,-0.06103515625,-0.1220703125,0.6851806640625,0.0294189453125,-0.713134765625,-85.0,13.0,68.0,101623.0,-2.4850001335144043,0,0
669.097995,0.35186767578125,0.3486328125,-0.8594970703125,0.126007080078125,0.30517578125,0.06103515625,0.18310546875,0.6834716796875,0.0262451171875,-0.713134765625,-85.0,14.0,68.0,101623.0,-2.4840002059936523,0,0
669.102996,0.35186767578125,0.3486328125,-0.8594970703125,0.126007080078125,0.0,0.18310546875,-0.30517578125,0.6844482421875,0.0291748046875,-0.7132568359375,-85.0,14.0,68.0,101623.0,-2.4840002059936523,0,0
669.117994,0.35186767578125,0.3486328125,-0.8594970703125,0.1259765625,-0.18310546875,0.244140625,0.1220703125,0.683349609375,0.03076171875,-0.7119140625,-85.0,14.0,68.0,101623.0,-2.4840002059936523,0,0
669.122995,0.35186767578125,0.3486328125,-0.8594970703125,0.126007080078125,-0.1220703125,-0.1220703125,0.0,0.6859130859375,0.02734375,-0.7117919921875,-85.0,14.0,68.0,101623.0,-2.4840002059936523,0,0
669.127993,0.35186767578125,0.3486328125,-0.8594970703125,0.126007080078125,-0.30517578125,-0.06103515625,-0.244140625,0.6832275390625,0.029052734375,-0.71337890625,-85.0,14.0,68.0,101623.0,-2.4840002059936523,0,0
669.132993,0.35186767578125,0.3486328125,-0.8594970703125,0.1259765625,0.48828125,-0.18310546875,-0.18310546875,0.6834716796875,0.029296875,-0.71240234375,-85.0,14.0,68.0,101623.0,-2.4840002059936523,0,0
669.137994,0.35186767578125,0.3486328125,-0.8594970703125,0.1259765625,0.06103515625,-0.244140625,0.18310546875,0.684814453125,0.029541015625,-0.7113037109375,-85.0,14.0,68.0,101623.0,-2.4840002059936523,0,0
669.142995,0.35186767578125,0.3486328125,-0.8594970703125,0.1259765625,0.06103515625,-0.244140625,0.18310546875,0.684814453125,0.029541015625,-0.7113037109375,-85.0,14.0,68.0,101623.0,-2.4840002059936523,0,0
669.147993,0.35186767578125,0.3486328125,-0.8594970703125,0.126007080078125,0.1220703125,0.0,-0.244140625,0.6849365234375,0.0269775390625,-0.7117919921875,-85.0,14.0,68.0,101623.0,-2.4840002059936523,0,0
669.152993,0.35186767578125,0.3486328125,-0.8594970703125,0.126007080078125,-0.42724609375,0.1220703125,-0.30517578125,0.683349609375,0.02783203125,-0.7130126953125,-85.0,14.0,68.0,101623.0,-2.4840002059936523,0,0
669.157993,0.35186767578125,0.3486328125,-0.8594970703125,0.1259765625,0.06103515625,-0.18310546875,-0.06103515625,0.68505859375,0.029541015625,-0.7117919921875,-85.0,14.0,68.0,101623.0,-2.4840002059936523,0,0
669.162022,0.35186767578125,0.3486328125,-0.8594970703125,0.1259765625,0.06103515625,-0.18310546875,-0.06103515625,0.68505859375,0.029541015625,-0.7117919921875,-85.0,14.0,68.0,101623.0,-2.4840002059936523,0,0
669.166993,0.35186767578125,0.3486328125,-0.859466552734375,0.1259765625,-0.30517578125,-0.244140625,-0.42724609375,0.6846923828125,0.0296630859375,-0.71337890625,-85.0,14.0,68.0,101623.0,-2.4840002059936523,0,0
669.181993,0.35186767578125,0.3486328125,-0.859466552734375,0.1259765625,0.0,-0.1220703125,-0.1220703125,0.6851806640625,0.0277099609375,-0.711181640625,-85.0,14.0,68.0,101623.0,-2.4840002059936523,0,0
669.186993,0.35186767578125,0.3486328125,-0.8594970703125,0.1259765625,-0.06103515625,0.06103515625,-0.06103515625,0.683837890625,0.029052734375,-0.711181640625,-85.0,14.0,68.0,101623.0,-2.4840002059936523,0,0
669.191994,0.35186767578125,0.3486328125,-0.8594970703125,0.1259765625,-0.1220703125,-0.244140625,-0.18310546875,0.6832275390625,0.029052734375,-0.714111328125,-85.0,15.0,69.0,101623.0,-2.4860000610351562,0,0
669.196995,0.3521728515625,0.34661865234375,-0.860321044921875,0.1251220703125,-0.42724609375,-0.06103515625,-0.18310546875,0.684326171875,0.0284423828125,-0.71484375,-85.0,15.0,69.0,101623.0,-2.4860000610351562,0,0
669.201993,0.3521728515625,0.34661865234375,-0.860321044921875,0.1251220703125,0.06103515625,0.30517578125,0.18310546875,0.6834716796875,0.0296630859375,-0.7120361328125,-85.0,15.0,69.0,101623.0,-2.4860000610351562,0,0
669.206993,0.3521728515625,0.34661865234375,-0.860321044921875,0.1251220703125,0.18310546875,-0.06103515625,-0.18310546875,0.686767578125,0.0291748046875,-0.7119140625,-85.0,15.0,69.0,101623.0,-2.4860000610351562,0,0
669.211993,0.3521728515625,0.34661865234375,-0.860321044921875,0.1251220703125,-0.42724609375,-0.1220703125,-0.06103515625,0.6844482421875,0.0284423828125,-0.712890625,-85.0,15.0,69.0,101623.0,-2.4860000610351562,0,0
669.216994,0.3521728515625,0.34661865234375,-0.860321044921875,0.1251220703125,0.54931640625,0.244140625,-0.244140625,0.684326171875,0.029052734375,-0.71240234375,-85.0,15.0,69.0,101623.0,-2.4860000610351562,0,0
669.221995,0.3521728515625,0.34661865234375,-0.860321044921875,0.1251220703125,-0.18310546875,-0.1220703125,-0.06103515625,0.6859130859375,0.0279541015625,-0.712158203125,-85.0,15.0,69.0,101623.0,-2.4860000610351562,0,0
669.226023,0.3521728515625,0.34661865234375,-0.860321044921875,0.1251220703125,-0.18310546875,-0.1220703125,-0.06103515625,0.6859130859375,0.0279541015625,-0.712158203125,-85.0,15.0,69.0,101623.0,-2.4860000610351562,0,0
669.230995,0.3521728515625,0.34661865234375,-0.86029052734375,0.1251220703125,0.244140625,0.18310546875,-0.06103515625,0.6859130859375,0.028564453125,-0.711181640625,-85.0,15.0,69.0,101623.0,-2.4860000610351562,0,0
669.235993,0.3521728515625,0.34661865234375,-0.860321044921875,0.1251220703125,-0.06103515625,0.06103515625,0.18310546875,0.68408203125,0.0284423828125,-0.713623046875,-85.0,15.0,69.0,101623.0,-2.4860000610351562,0,0
669.240994,0.3521728515625,0.34661865234375,-0.860321044921875,0.1251220703125,0.06103515625,0.0,-0.06103515625,0.683349609375,0.029296875,-0.7122802734375,-85.0,15.0,69.0,101623.0,-2.4860000610351562,0,0
669.245995,0.3521728515625,0.34661865234375,-0.860321044921875,0.1251220703125,-0.244140625,-0.06103515625,0.1220703125,0.68408203125,0.0294189453125,-0.711669921875,-85.0,15.0,69.0,101623.0,-2.4860000610351562,0,0
669.250997,0.3521728515625,0.34661865234375,-0.860321044921875,0.1251220703125,0.06103515625,0.06103515625,-0.06103515625,0.683349609375,0.02880859375,-0.713134765625,-85.0,15.0,69.0,101623.0,-2.4860000610351562,0,0
669.255996,0.3521728515625,0.34661865234375,-0.860321044921875,0.1251220703125,-0.06103515625,-0.244140625,-0.06103515625,0.6834716796875,0.0291748046875,-0.7132568359375,-85.0,15.0,69.0,101623.0,-2.4860000610351562,0,0
669.260994,0.3521728515625,0.34661865234375,-0.860321044921875,0.1251220703125,-0.1220703125,0.1220703125,-0.06103515625,0.6845703125,0.03076171875,-0.711669921875,-85.0,15.0,69.0,101623.0,-2.4860000610351562,0,0
669.265994,0.3521728515625,0.34661865234375,-0.860321044921875,0.1251220703125,-0.06103515625,-0.244140625,-0.06103515625,0.6820068359375,0.02783203125,-0.711669921875,-85.0,15.0,69.0,101623.0,-2.4860000610351562,0,0
669.270994,0.3521728515625,0.34661865234375,-0.860321044921875,0.1251220703125,-0.30517578125,-0.1220703125,0.0,0.6845703125,0.02783203125,-0.711181640625,-85.0,15.0,69.0,101623.0,-2.4860000610351562,0,0
669.275996,0.3521728515625,0.34661865234375,-0.860321044921875,0.1251220703125,-0.1220703125,-0.244140625,-0.06103515625,0.6829833984375,0.0281982421875,-0.711669921875,-85.0,15.0,69.0,101623.0,-2.4860000610351562,0,0
669.280994,0.3521728515625,0.34661865234375,-0.860321044921875,0.1251220703125,0.244140625,0.18310546875,-0.244140625,0.68701171875,0.02783203125,-0.7110595703125,-85.0,15.0,69.0,101623.0,-2.4860000610351562,0,0
669.285994,0.3521728515625,0.34661865234375,-0.860321044921875,0.1251220703125,-0.06103515625,0.244140625,0.18310546875,0.685791015625,0.0281982421875,-0.711669921875,-85.0,15.0,69.0,101623.0,-2.4860000610351562,0,0
669.290995,0.3521728515625,0.34661865234375,-0.86029052734375,0.1251220703125,0.06103515625,0.18310546875,-0.1220703125,0.6849365234375,0.02783203125,-0.7125244140625,-85.0,15.0,69.0,101624.0,-2.4860000610351562,0,0
669.304997,0.35247802734375,0.344573974609375,-0.861114501953125,0.124298095703125,0.18310546875,0.18310546875,-0.18310546875,0.6859130859375,0.0286865234375,-0.711669921875,-85.0,15.0,69.0,101624.0,-2.4860000610351562,0,0
669.309993,0.35247802734375,0.344573974609375,-0.861114501953125,0.124298095703125,-0.30517578125,0.06103515625,-0.18310546875,0.6832275390625,0.0277099609375,-0.7135009765625,-85.0,15.0,69.0,101624.0,-2.4860000610351562,0,0
669.314993,0.35247802734375,0.344573974609375,-0.861114501953125,0.124298095703125,-0.1220703125,0.1220703125,0.18310546875,0.68505859375,0.0283203125,-0.7117919921875,-85.0,15.0,69.0,101624.0,-2.4860000610351562,0,0
669.319993,0.35247802734375,0.34454345703125,-0.861114501953125,0.124298095703125,-0.18310546875,0.1220703125,-0.06103515625,0.6834716796875,0.027587890625,-0.7110595703125,-85.0,15.0,69.0,101624.0,-2.4860000610351562,0,0
669.324994,0.35247802734375,0.34454345703125,-0.861114501953125,0.124298095703125,0.244140625,-0.1220703125,-0.244140625,0.68310546875,0.0277099609375,-0.7110595703125,-85.0,15.0,69.0,101624.0,-2.4860000610351562,0,0
669.329995,0.35247802734375,0.344573974609375,-0.861114501953125,0.124298095703125,0.30517578125,0.1220703125,-0.244140625,0.684814453125,0.02880859375,-0.71240234375,-85.0,15.0,69.0,101624.0,-2.4860000610351562,0,0
669.334993,0.35247802734375,0.34454345703125,-0.861114501953125,0.124298095703125,0.0,0.1220703125,-0.18310546875,0.68359375,0.0264892578125,-0.712158203125,-85.0,15.0,69.0,101624.0,-2.4860000610351562,0,0
669.339993,0.35247802734375,0.34454345703125,-0.861114501953125,0.124298095703125,0.06103515625,-0.1220703125,0.244140625,0.6846923828125,0.0284423828125,-0.71240234375,-85.0,15.0,69.0,101624.0,-2.4860000610351562,0,0
669.344994,0.35247802734375,0.34454345703125,-0.861114501953125,0.124298095703125,-0.06103515625,0.18310546875,-0.06103515625,0.6868896484375,0.0286865234375,-0.709716796875,-85.0,15.0,69.0,101624.0,-2.4860000610351562,0,0
669.349995,0.35247802734375,0.34454345703125,-0.861114501953125,0.124298095703125,-0.244140625,-0.1220703125,-0.18310546875,0.685302734375,0.029296875,-0.712890625,-85.0,15.0,69.0,101624.0,-2.4860000610351562,0,0
669.354993,0.35247802734375,0.34454345703125,-0.861114501953125,0.124298095703125,0.30517578125,0.18310546875,0.06103515625,0.684814453125,0.028564453125,-0.712158203125,-85.0,15.0,69.0,101624.0,-2.4860000610351562,0,0
669.368993,0.35247802734375,0.34454345703125,-0.861114501953125,0.12432861328125,0.06103515625,0.0,-0.3662109375,0.6842041015625,0.0272216796875,-0.71240234375,-85.0,15.0,69.0,101624.0,-2.4860000610351562,0,0
669.373993,0.35247802734375,0.34454345703125,-0.861114501953125,0.124298095703125,-0.3662109375,-0.18310546875,0.18310546875,0.68408203125,0.0311279296875,-0.7105712890625,-85.0,15.0,69.0,101624.0,-2.4860000610351562,0,0
669.378994,0.35247802734375,0.344573974609375,-0.861114501953125,0.124298095703125,0.06103515625,-0.06103515625,-0.18310546875,0.685791015625,0.029541015625,-0.7137451171875,-85.0,15.0,69.0,101624.0,-2.4860000610351562,0,0
669.383995,0.35247802734375,0.34454345703125,-0.861114501953125,0.124298095703125,0.42724609375,0.3662109375,-0.06103515625,0.685791015625,0.028076171875,-0.7135009765625,-85.0,15.0,69.0,101624.0,-2.4860000610351562,0,0
669.388993,0.35247802734375,0.344573974609375,-0.861114501953125,0.124298095703125,-0.06103515625,-0.1220703125,-0.06103515625,0.6829833984375,0.02978515625,-0.71044921875,-85.0,15.0,69.0,101624.0,-2.4860000610351562,0,0
669.393993,0.35247802734375,0.344573974609375,-0.861114501953125,0.124298095703125,-0.06103515625,-0.1220703125,-0.06103515625,0.6829833984375,0.02978515625,-0.71044921875,-87.0,15.0,69.0,101624.0,-2.4860000610351562,0,0
669.398994,0.352630615234375,0.343597412109375,-0.86151123046875,0.1239013671875,0.06103515625,0.0,0.0,0.685302734375,0.0294189453125,-0.7130126953125,-87.0,15.0,69.0,101624.0,-2.4860000610351562,0,0
669.403995,0.352630615234375,0.343597412109375,-0.86151123046875,0.1239013671875,-0.18310546875,-0.1220703125,0.1220703125,0.6864013671875,0.0291748046875,-0.7119140625,-87.0,15.0,69.0,101624.0,-2.4860000610351562,0,0
669.408993,0.352630615234375,0.343597412109375,-0.86151123046875,0.1239013671875,0.0,-0.06103515625,-0.18310546875,0.6856689453125,0.0286865234375,-0.7115478515625,-87.0,15.0,69.0,101624.0,-2.4860000610351562,0,0
669.413993,0.352630615234375,0.343597412109375,-0.86151123046875,0.1239013671875,0.06103515625,0.1220703125,-0.1220703125,0.684326171875,0.0294189453125,-0.7115478515625,-87.0,15.0,69.0,101624.0,-2.4860000610351562,0,0
669.418993,0.352630615234375,0.343597412109375,-0.86151123046875,0.1239013671875,-0.1220703125,-0.244140625,-0.18310546875,0.685791015625,0.0299072265625,-0.7115478515625,-87.0,15.0,69.0,101624.0,-2.4860000610351562,0,0
669.423994,0.352630615234375,0.343597412109375,-0.86151123046875,0.1239013671875,-0.1220703125,0.1220703125,0.0,0.6846923828125,0.02783203125,-0.7127685546875,-87.0,15.0,69.0,101624.0,-2.4860000610351562,0,0
669.428024,0.352630615234375,0.343597412109375,-0.86151123046875,0.1239013671875,-0.1220703125,0.1220703125,0.0,0.6846923828125,0.02783203125,-0.7127685546875,-87.0,15.0,69.0,101624.0,-2.4860000610351562,0,0
669.432994,0.352630615234375,0.343597412109375,-0.86151123046875,0.1239013671875,-0.18310546875,-0.06103515625,-0.244140625,0.68310546875,0.029541015625,-0.7108154296875,-87.0,15.0,69.0,101624.0,-2.4860000610351562,0,0
669.437995,0.352630615234375,0.343597412109375,-0.86151123046875,0.1239013671875,0.0,0.0,-0.18310546875,0.6854248046875,0.028564453125,-0.710693359375,-87.0,15.0,69.0,101624.0,-2.4860000610351562,0,0
669.442993,0.352630615234375,0.343597412109375,-0.86151123046875,0.1239013671875,0.0,0.06103515625,0.18310546875,0.683349609375,0.027099609375,-0.7122802734375,-87.0,15.0,69.0,101624.0,-2.4860000610351562,0,0
669.447993,0.352630615234375,0.343597412109375,-0.86151123046875,0.1239013671875,-0.30517578125,0.1220703125,0.244140625,0.685546875,0.0277099609375,-0.712158203125,-87.0,15.0,69.0,101624.0,-2.4860000610351562,0,0
669.452995,0.352630615234375,0.343597412109375,-0.86151123046875,0.1239013671875,0.30517578125,0.1220703125,-0.1220703125,0.687744140625,0.0257568359375,-0.711669921875,-87.0,15.0,69.0,101624.0,-2.4860000610351562,0,0
669.457997,0.352630615234375,0.34356689453125,-0.86151123046875,0.1239013671875,-0.18310546875,-0.06103515625,-0.18310546875,0.6837158203125,0.028076171875,-0.7117919921875,-87.0,15.0,69.0,101624.0,-2.4860000610351562,0,0
669.462996,0.352630615234375,0.343597412109375,-0.86151123046875,0.1239013671875,0.18310546875,0.1220703125,-0.06103515625,0.68505859375,0.0281982421875,-0.711669921875,-87.0,15.0,69.0,101624.0,-2.4860000610351562,0,0
669.467994,0.352630615234375,0.343597412109375,-0.86151123046875,0.1239013671875,-0.3662109375,0.244140625,-0.18310546875,0.684814453125,0.029052734375,-0.7122802734375,-87.0,15.0,69.0,101624.0,-2.4860000610351562,0,0
669.472994,0.352630615234375,0.343597412109375,-0.86151123046875,0.1239013671875,-0.42724609375,0.06103515625,-0.1220703125,0.6839599609375,0.0281982421875,-0.7130126953125,-87.0,15.0,69.0,101624.0,-2.4860000610351562,0,0
669.477994,0.352630615234375,0.343597412109375,-0.86151123046875,0.1239013671875,0.0,0.0,-0.18310546875,0.68603515625,0.0289306640625,-0.7108154296875,-87.0,15.0,69.0,101624.0,-2.4860000610351562,0,0
669.492024,0.352630615234375,0.343597412109375,-0.86151123046875,0.1239013671875,-0.3662109375,-0.18310546875,-0.1220703125,0.6842041015625,0.029296875,-0.711181640625,-87.0,15.0,69.0,101624.0,-2.4860000610351562,0,0
669.496995,0.35302734375,0.340789794921875,-0.86260986328125,0.12274169921875,-0.1220703125,0.18310546875,-0.1220703125,0.6842041015625,0.028076171875,-0.712646484375,-86.0,16.0,69.0,101624.0,-2.4860000610351562,0,0
669.501994,0.353057861328125,0.340789794921875,-0.86260986328125,0.12274169921875,0.0,0.0,0.1220703125,0.684814453125,0.0283203125,-0.7113037109375,-86.0,16.0,69.0,101624.0,-2.4860000610351562,0,0
669.506995,0.353057861328125,0.340789794921875,-0.86260986328125,0.122772216796875,-0.1220703125,-0.1220703125,0.0,0.685546875,0.027099609375,-0.7115478515625,-86.0,16.0,69.0,101624.0,-2.4860000610351562,0,0
669.511997,0.353057861328125,0.340789794921875,-0.86260986328125,0.12274169921875,-0.18310546875,0.1220703125,0.06103515625,0.68505859375,0.030029296875,-0.7109375,-86.0,16.0,69.0,101624.0,-2.4860000610351562,0,0
669.516996,0.353057861328125,0.340789794921875,-0.86260986328125,0.12274169921875,0.3662109375,0.1220703125,0.1220703125,0.6866455078125,0.0289306640625,-0.7127685546875,-86.0,16.0,69.0,101624.0,-2.4860000610351562,0,0
669.521993,0.353057861328125,0.340789794921875,-0.86260986328125,0.12274169921875,0.0,0.18310546875,-0.06103515625,0.6861572265625,0.0283203125,-0.7132568359375,-86.0,16.0,69.0,101624.0,-2.4860000610351562,0,0
669.526993,0.353057861328125,0.340789794921875,-0.86260986328125,0.122772216796875,0.18310546875,0.0,-0.1220703125,0.68408203125,0.0283203125,-0.710205078125,-86.0,16.0,69.0,101624.0,-2.4860000610351562,0,0
669.531994,0.353057861328125,0.340789794921875,-0.86260986328125,0.122772216796875,-0.06103515625,0.0,-0.30517578125,0.684814453125,0.0286865234375,-0.7109375,-86.0,16.0,69.0,101624.0,-2.4860000610351562,0,0
669.536995,0.353057861328125,0.340789794921875,-0.86260986328125,0.122772216796875,-0.06103515625,0.06103515625,0.0,0.6851806640625,0.0279541015625,-0.7117919921875,-86.0,16.0,69.0,101624.0,-2.4860000610351562,0,0
669.541993,0.353057861328125,0.340789794921875,-0.86260986328125,0.122772216796875,-0.1220703125,0.0,-0.18310546875,0.684814453125,0.02783203125,-0.7119140625,-86.0,16.0,69.0,101624.0,-2.4860000610351562,0,0
669.556021,0.353057861328125,0.340789794921875,-0.86260986328125,0.12274169921875,-0.18310546875,0.1220703125,-0.18310546875,0.6845703125,0.0294189453125,-0.7119140625,-86.0,16.0,69.0,101624.0,-2.4860000610351562,0,0
669.560994,0.353057861328125,0.340789794921875,-0.86260986328125,0.122772216796875,0.06103515625,-0.06103515625,0.0,0.6859130859375,0.027099609375,-0.711669921875,-86.0,16.0,69.0,101624.0,-2.4860000610351562,0,0
669.565995,0.353057861328125,0.340789794921875,-0.86260986328125,0.122772216796875,0.18310546875,0.18310546875,0.1220703125,0.6837158203125,0.029052734375,-0.711181640625,-86.0,16.0,69.0,101624.0,-2.4860000610351562,0,0
669.570996,0.353057861328125,0.340789794921875,-0.86260986328125,0.12274169921875,0.1220703125,0.244140625,0.0,0.6865234375,0.0286865234375,-0.7117919921875,-86.0,16.0,69.0,101624.0,-2.4860000610351562,0,0
669.575993,0.353057861328125,0.340789794921875,-0.86260986328125,0.12274169921875,-0.30517578125,0.1220703125,0.06103515625,0.68408203125,0.028564453125,-0.7122802734375,-86.0,16.0,69.0,101624.0,-2.4860000610351562,0,0
669.580993,0.353057861328125,0.340789794921875,-0.86260986328125,0.122772216796875,0.0,0.244140625,0.06103515625,0.68408203125,0.02587890625,-0.712646484375,-86.0,16.0,69.0,101624.0,-2.4860000610351562,0,0
669.585994,0.353057861328125,0.340789794921875,-0.86260986328125,0.122772216796875,0.1220703125,0.18310546875,-0.06103515625,0.6876220703125,0.0272216796875,-0.7113037109375,-86.0,16.0,69.0,101624.0,-2.4860000610351562,0,0
669.590995,0.353057861328125,0.340789794921875,-0.86260986328125,0.122772216796875,-0.1220703125,0.1220703125,-0.3662109375,0.6837158203125,0.0286865234375,-0.7120361328125,-86.0,16.0,69.0,101624.0,-2.4860000610351562,0,0
669.595993,0.35321044921875,0.339752197265625,-0.863006591796875,0.122344970703125,-0.1220703125,0.1220703125,-0.3662109375,0.6837158203125,0.0286865234375,-0.7120361328125,-85.0,15.0,69.0,101624.0,-2.4860000610351562,0,0
669.600993,0.35321044921875,0.339752197265625,-0.863006591796875,0.122344970703125,0.06103515625,-0.18310546875,0.06103515625,0.6868896484375,0.0284423828125,-0.7130126953125,-85.0,15.0,69.0,101624.0,-2.4860000610351562,0,0
669.605994,0.35321044921875,0.339752197265625,-0.863006591796875,0.122344970703125,-0.244140625,-0.18310546875,-0.1220703125,0.683837890625,0.028076171875,-0.7105712890625,-85.0,15.0,69.0,101624.0,-2.4860000610351562,0,0
669.610995,0.35321044921875,0.339752197265625,-0.863006591796875,0.122344970703125,0.0,-0.06103515625,-0.30517578125,0.6829833984375,0.0283203125,-0.711669921875,-85.0,15.0,69.0,101624.0,-2.4860000610351562,0,0
669.615993,0.35321044921875,0.339752197265625,-0.863006591796875,0.122344970703125,-0.244140625,0.0,0.18310546875,0.685302734375,0.02880859375,-0.711669921875,-85.0,15.0,69.0,101624.0,-2.4860000610351562,0,0
669.620993,0.35321044921875,0.339752197265625,-0.863006591796875,0.122344970703125,0.18310546875,0.06103515625,-0.1220703125,0.684326171875,0.0286865234375,-0.7108154296875,-85.0,15.0,69.0,101624.0,-2.4860000610351562,0,0
669.625022,0.35321044921875,0.339752197265625,-0.863006591796875,0.122344970703125,0.18310546875,0.06103515625,-0.1220703125,0.684326171875,0.0286865234375,-0.7108154296875,-85.0,15.0,69.0,101624.0,-2.4860000610351562,0,0
669.629993,0.35321044921875,0.339752197265625,-0.863006591796875,0.122344970703125,-0.18310546875,-0.06103515625,-0.1220703125,0.6854248046875,0.0277099609375,-0.7127685546875,-85.0,15.0,69.0,101624.0,-2.4860000610351562,0,0
669.634993,0.35321044921875,0.339752197265625,-0.863006591796875,0.12237548828125,-0.244140625,0.1220703125,-0.18310546875,0.684814453125,0.0267333984375,-0.7108154296875,-85.0,15.0,69.0,101624.0,-2.4860000610351562,0,0
669.639994,0.35321044921875,0.339752197265625,-0.863006591796875,0.122344970703125,-0.244140625,0.1220703125,-0.18310546875,0.684814453125,0.0267333984375,-0.7108154296875,-85.0,15.0,69.0,101624.0,-2.4870002269744873,0,0
669.644995,0.35321044921875,0.339752197265625,-0.863006591796875,0.12237548828125,0.18310546875,0.18310546875,0.06103515625,0.687255859375,0.02783203125,-0.71337890625,-85.0,15.0,69.0,101624.0,-2.4870002269744873,0,0
669.649993,0.35321044921875,0.339752197265625,-0.863006591796875,0.122344970703125,0.67138671875,0.06103515625,-0.18310546875,0.6832275390625,0.0294189453125,-0.71044921875,-85.0,15.0,69.0,101624.0,-2.4870002269744873,0,0
669.654993,0.35321044921875,0.339752197265625,-0.863006591796875,0.12237548828125,-0.244140625,0.18310546875,-0.18310546875,0.6834716796875,0.02734375,-0.7110595703125,-85.0,15.0,69.0,101624.0,-2.4870002269744873,0,0
669.659994,0.35321044921875,0.339752197265625,-0.863006591796875,0.12237548828125,0.06103515625,0.06103515625,0.0,0.68310546875,0.02685546875,-0.7110595703125,-85.0,15.0,69.0,101624.0,-2.4870002269744873,0,0
669.664997,0.35321044921875,0.339752197265625,-0.863006591796875,0.12237548828125,0.1220703125,0.06103515625,0.0,0.6864013671875,0.0286865234375,-0.71337890625,-85.0,15.0,69.0,101624.0,-2.4870002269744873,0,0
669.679994,0.35321044921875,0.339752197265625,-0.863006591796875,0.12237548828125,-0.244140625,0.0,-0.06103515625,0.68408203125,0.0296630859375,-0.7120361328125,-85.0,15.0,69.0,101624.0,-2.4870002269744873,0,0
669.684994,0.35321044921875,0.339752197265625,-0.863006591796875,0.12237548828125,0.1220703125,0.06103515625,0.06103515625,0.6849365234375,0.0274658203125,-0.71142578125,-85.0,15.0,69.0,101624.0,-2.4870002269744873,0,0
669.689026,0.35321044921875,0.339752197265625,-0.863006591796875,0.12237548828125,0.1220703125,0.06103515625,0.06103515625,0.6849365234375,0.0274658203125,-0.71142578125,-85.0,15.0,69.0,101624.0,-2.4870002269744873,0,0
669.693994,0.35321044921875,0.339752197265625,-0.863006591796875,0.12237548828125,-0.1220703125,0.0,-0.30517578125,0.6849365234375,0.027587890625,-0.7110595703125,-85.0,15.0,69.0,101624.0,-2.4870002269744873,0,0
669.698996,0.353363037109375,0.338714599609375,-0.8634033203125,0.1219482421875,-0.18310546875,0.0,-0.244140625,0.68505859375,0.028076171875,-0.7117919921875,-85.0,15.0,69.0,101624.0,-2.4870002269744873,0,0
669.703994,0.353363037109375,0.338714599609375,-0.8634033203125,0.1219482421875,0.0,0.30517578125,0.244140625,0.6856689453125,0.0269775390625,-0.712890625,-85.0,15.0,69.0,101624.0,-2.4870002269744873,0,0
669.708994,0.353363037109375,0.338714599609375,-0.8634033203125,0.1219482421875,0.06103515625,-0.1220703125,0.0,0.6851806640625,0.0279541015625,-0.712890625,-85.0,15.0,69.0,101624.0,-2.4870002269744873,0,0
669.713995,0.353363037109375,0.338714599609375,-0.8634033203125,0.1219482421875,0.18310546875,0.30517578125,0.244140625,0.6846923828125,0.029052734375,-0.71240234375,-85.0,15.0,69.0,101624.0,-2.4870002269744873,0,0
669.718997,0.353363037109375,0.338714599609375,-0.8634033203125,0.1219482421875,-0.3662109375,0.3662109375,0.1220703125,0.6873779296875,0.0281982421875,-0.7117919921875,-85.0,15.0,69.0,101624.0,-2.4870002269744873,0,0
669.723996,0.353363037109375,0.338714599609375,-0.8634033203125,0.1219482421875,-0.18310546875,0.06103515625,-0.30517578125,0.686279296875,0.0274658203125,-0.7120361328125,-85.0,15.0,69.0,101624.0,-2.4870002269744873,0,0
669.738994,0.353363037109375,0.338714599609375,-0.8634033203125,0.1219482421875,0.42724609375,0.244140625,0.0,0.68310546875,0.029296875,-0.712158203125,-85.0,15.0,69.0,101623.0,-2.4850001335144043,0,0
669.743995,0.353363037109375,0.338714599609375,-0.8634033203125,0.1219482421875,0.06103515625,0.1220703125,-0.06103515625,0.68505859375,0.02734375,-0.7108154296875,-85.0,15.0,69.0,101623.0,-2.4850001335144043,0,0
669.748993,0.353363037109375,0.338714599609375,-0.8634033203125,0.1219482421875,-0.18310546875,0.06103515625,-0.1220703125,0.68408203125,0.0291748046875,-0.7127685546875,-85.0,15.0,69.0,101623.0,-2.4850001335144043,0,0
669.753993,0.353363037109375,0.338714599609375,-0.8634033203125,0.1219482421875,-0.244140625,0.1220703125,0.0,0.6845703125,0.0281982421875,-0.7120361328125,-85.0,15.0,69.0,101623.0,-2.4850001335144043,0,0
669.758022,0.353363037109375,0.338714599609375,-0.8634033203125,0.1219482421875,-0.244140625,0.1220703125,0.0,0.6845703125,0.0281982421875,-0.7120361328125,-85.0,15.0,69.0,101623.0,-2.4850001335144043,0,0
669.762993,0.353363037109375,0.338714599609375,-0.8634033203125,0.1219482421875,0.18310546875,0.06103515625,-0.06103515625,0.68505859375,0.0281982421875,-0.7103271484375,-85.0,15.0,69.0,101623.0,-2.4850001335144043,0,0
669.767994,0.353363037109375,0.338714599609375,-0.8634033203125,0.1219482421875,-0.1220703125,0.18310546875,-0.1220703125,0.6837158203125,0.0277099609375,-0.7108154296875,-85.0,15.0,69.0,101623.0,-2.4850001335144043,0,0
669.772995,0.353363037109375,0.338714599609375,-0.8634033203125,0.121978759765625,-0.1220703125,-0.1220703125,-0.18310546875,0.6846923828125,0.0277099609375,-0.71337890625,-85.0,15.0,69.0,101623.0,-2.4850001335144043,0,0
669.777993,0.353363037109375,0.338714599609375,-0.8634033203125,0.121978759765625,0.244140625,-0.06103515625,-0.1220703125,0.6868896484375,0.026611328125,-0.712158203125,-85.0,15.0,69.0,101623.0,-2.4850001335144043,0,0
669.782993,0.353363037109375,0.338714599609375,-0.8634033203125,0.121978759765625,-0.18310546875,-0.06103515625,-0.1220703125,0.6829833984375,0.0289306640625,-0.7113037109375,-85.0,15.0,69.0,101623.0,-2.4850001335144043,0,0
669.787993,0.353363037109375,0.338714599609375,-0.8634033203125,0.121978759765625,-0.244140625,0.18310546875,0.0,0.683837890625,0.02880859375,-0.7117919921875,-85.0,15.0,69.0,101623.0,-2.4850001335144043,0,0
669.792994,0.353363037109375,0.338714599609375,-0.8634033203125,0.121978759765625,0.18310546875,0.1220703125,0.0,0.6861572265625,0.0284423828125,-0.7110595703125,-85.0,15.0,70.0,101623.0,-2.4850001335144043,0,0
669.797995,0.353790283203125,0.335784912109375,-0.86456298828125,0.12078857421875,-0.244140625,0.06103515625,-0.30517578125,0.6864013671875,0.0302734375,-0.7119140625,-85.0,15.0,70.0,101623.0,-2.4850001335144043,0,0
669.802993,0.353790283203125,0.335784912109375,-0.86456298828125,0.12078857421875,0.06103515625,-0.18310546875,-0.244140625,0.6849365234375,0.0281982421875,-0.7110595703125,-85.0,15.0,70.0,101623.0,-2.4850001335144043,0,0
669.807993,0.353790283203125,0.335784912109375,-0.86456298828125,0.120758056640625,-0.244140625,0.1220703125,-0.1220703125,0.68408203125,0.0286865234375,-0.7115478515625,-85.0,15.0,70.0,101623.0,-2.4850001335144043,0,0
669.812994,0.353790283203125,0.335784912109375,-0.86456298828125,0.120758056640625,0.0,0.1220703125,-0.1220703125,0.6842041015625,0.0283203125,-0.7135009765625,-85.0,15.0,70.0,101623.0,-2.4850001335144043,0,0
669.817995,0.353790283203125,0.335784912109375,-0.86456298828125,0.120758056640625,0.06103515625,0.06103515625,-0.18310546875,0.68408203125,0.0272216796875,-0.711669921875,-85.0,15.0,70.0,101623.0,-2.4850001335144043,0,0
669.82202,0.353790283203125,0.335784912109375,-0.86456298828125,0.120758056640625,0.06103515625,0.06103515625,-0.18310546875,0.68408203125,0.0272216796875,-0.711669921875,-85.0,15.0,70.0,101623.0,-2.4850001335144043,0,0
669.826996,0.353790283203125,0.335784912109375,-0.86456298828125,0.120758056640625,0.244140625,0.1220703125,-0.06103515625,0.6829833984375,0.0286865234375,-0.7122802734375,-85.0,15.0,70.0,101623.0,-2.4850001335144043,0,0
669.831993,0.353790283203125,0.335784912109375,-0.86456298828125,0.120758056640625,-0.244140625,-0.54931640625,0.1220703125,0.6837158203125,0.02685546875,-0.7117919921875,-85.0,15.0,70.0,101623.0,-2.4850001335144043,0,0
669.836993,0.353790283203125,0.335784912109375,-0.86456298828125,0.120758056640625,0.30517578125,-0.18310546875,0.0,0.683837890625,0.02978515625,-0.7115478515625,-85.0,15.0,70.0,101623.0,-2.4850001335144043,0,0
669.841993,0.353790283203125,0.335784912109375,-0.86456298828125,0.120758056640625,0.42724609375,0.0,-0.1220703125,0.6845703125,0.0289306640625,-0.711181640625,-85.0,15.0,70.0,101623.0,-2.4850001335144043,0,0
669.846994,0.353790283203125,0.335784912109375,-0.86456298828125,0.120758056640625,-0.1220703125,0.06103515625,-0.18310546875,0.6866455078125,0.029541015625,-0.7100830078125,-85.0,15.0,70.0,101623.0,-2.4850001335144043,0,0
669.861993,0.353790283203125,0.335784912109375,-0.86456298828125,0.120758056640625,-0.42724609375,0.1220703125,-0.1220703125,0.6842041015625,0.0284423828125,-0.7127685546875,-85.0,15.0,70.0,101623.0,-2.4850001335144043,0,0
669.866994,0.353790283203125,0.335784912109375,-0.86456298828125,0.12078857421875,0.30517578125,0.18310546875,-0.3662109375,0.68505859375,0.02685546875,-0.710693359375,-85.0,15.0,70.0,101623.0,-2.4850001335144043,0,0
669.871995,0.353790283203125,0.335784912109375,-0.86456298828125,0.12078857421875,-0.18310546875,0.1220703125,-0.18310546875,0.68359375,0.02880859375,-0.7119140625,-85.0,15.0,70.0,101623.0,-2.4850001335144043,0,0
669.876996,0.353790283203125,0.335784912109375,-0.86456298828125,0.12078857421875,-0.06103515625,0.1220703125,0.0,0.68359375,0.027587890625,-0.711669921875,-85.0,15.0,70.0,101623.0,-2.4850001335144043,0,0
669.881994,0.353790283203125,0.335784912109375,-0.86456298828125,0.120758056640625,-0.18310546875,-0.06103515625,0.1220703125,0.684814453125,0.030517578125,-0.7108154296875,-85.0,15.0,70.0,101623.0,-2.4850001335144043,0,0
669.886994,0.353790283203125,0.335784912109375,-0.86456298828125,0.12078857421875,-0.06103515625,-0.06103515625,-0.06103515625,0.68408203125,0.02783203125,-0.712158203125,-85.0,15.0,70.0,101623.0,-2.4850001335144043,0,0
669.891024,0.353790283203125,0.335784912109375,-0.86456298828125,0.12078857421875,-0.06103515625,-0.06103515625,-0.06103515625,0.68408203125,0.02783203125,-0.712158203125,-85.0,15.0,70.0,101623.0,-2.4850001335144043,0,0
669.895994,0.354583740234375,0.33001708984375,-0.86676025390625,0.118408203125,-0.06103515625,-0.1220703125,-0.18310546875,0.6881103515625,0.028564453125,-0.711181640625,-84.0,16.0,71.0,101623.0,-2.4850001335144043,0,0
669.900994,0.354583740234375,0.33001708984375,-0.86676025390625,0.118408203125,0.1220703125,-0.3662109375,0.0,0.6827392578125,0.02783203125,-0.7120361328125,-84.0,16.0,71.0,101623.0,-2.4850001335144043,0,0
669.905996,0.354583740234375,0.33001708984375,-0.86676025390625,0.118408203125,-0.244140625,-0.30517578125,-0.42724609375,0.6851806640625,0.0286865234375,-0.7117919921875,-84.0,16.0,71.0,101623.0,-2.4850001335144043,0,0
669.910994,0.3546142578125,0.33001708984375,-0.86676025390625,0.118408203125,-0.1220703125,0.0,-0.1220703125,0.685791015625,0.029052734375,-0.7130126953125,-84.0,16.0,71.0,101623.0,-2.4850001335144043,0,0
669.925997,0.3546142578125,0.33001708984375,-0.86676025390625,0.118408203125,0.06103515625,0.06103515625,0.1220703125,0.6834716796875,0.0284423828125,-0.71240234375,-84.0,16.0,71.0,101623.0,-2.4850001335144043,0,0
669.930996,0.3546142578125,0.33001708984375,-0.86676025390625,0.118408203125,0.1220703125,0.06103515625,0.0,0.6842041015625,0.0306396484375,-0.711669921875,-84.0,16.0,71.0,101623.0,-2.4850001335144043,0,0
669.935994,0.3546142578125,0.33001708984375,-0.86676025390625,0.118408203125,-0.18310546875,0.06103515625,0.0,0.686279296875,0.0301513671875,-0.71044921875,-84.0,16.0,71.0,101623.0,-2.4850001335144043,0,0
669.940994,0.3546142578125,0.33001708984375,-0.86676025390625,0.118377685546875,-0.18310546875,0.06103515625,0.0,0.686279296875,0.0301513671875,-0.71044921875,-84.0,16.0,71.0,101624.0,-2.4870002269744873,0,0
669.945994,0.3546142578125,0.33001708984375,-0.86676025390625,0.118377685546875,-0.42724609375,-0.18310546875,-0.06103515625,0.6854248046875,0.0301513671875,-0.7103271484375,-84.0,16.0,71.0,101624.0,-2.4870002269744873,0,0
669.950995,0.3546142578125,0.33001708984375,-0.86676025390625,0.118377685546875,-0.244140625,-0.06103515625,-0.06103515625,0.6854248046875,0.029541015625,-0.7110595703125,-84.0,16.0,71.0,101624.0,-2.4870002269744873,0,0
669.955023,0.3546142578125,0.33001708984375,-0.86676025390625,0.118377685546875,-0.244140625,-0.06103515625,-0.06103515625,0.6854248046875,0.029541015625,-0.7110595703125,-84.0,16.0,71.0,101624.0,-2.4870002269744873,0,0
669.959995,0.354644775390625,0.33001708984375,-0.86676025390625,0.118377685546875,-0.18310546875,-0.1220703125,-0.30517578125,0.686767578125,0.0301513671875,-0.711669921875,-84.0,16.0,71.0,101624.0,-2.4870002269744873,0,0
669.964993,0.354644775390625,0.330047607421875,-0.86676025390625,0.118377685546875,0.0,0.42724609375,-0.06103515625,0.6868896484375,0.0291748046875,-0.7130126953125,-84.0,16.0,71.0,101624.0,-2.4870002269744873,0,0
669.969993,0.354644775390625,0.330047607421875,-0.86676025390625,0.118377685546875,-0.1220703125,0.06103515625,-0.18310546875,0.68408203125,0.0291748046875,-0.7119140625,-84.0,16.0,71.0,101624.0,-2.4870002269744873,0,0
669.974994,0.354644775390625,0.330047607421875,-0.86676025390625,0.118377685546875,-0.244140625,0.0,0.1220703125,0.6856689453125,0.02978515625,-0.714599609375,-84.0,16.0,71.0,101624.0,-2.4870002269744873,0,0
669.979995,0.354644775390625,0.330047607421875,-0.866729736328125,0.118377685546875,-0.18310546875,-0.06103515625,-0.1220703125,0.68603515625,0.0294189453125,-0.71240234375,-84.0,16.0,71.0,101624.0,-2.4870002269744873,0,0
669.984996,0.354644775390625,0.330047607421875,-0.866729736328125,0.118377685546875,-0.06103515625,-0.06103515625,-0.06103515625,0.6856689453125,0.0281982421875,-0.711181640625,-84.0,16.0,71.0,101624.0,-2.4870002269744873,0,0
669.989993,0.354644775390625,0.330047607421875,-0.866729736328125,0.118377685546875,-0.244140625,0.18310546875,-0.06103515625,0.684326171875,0.0279541015625,-0.7110595703125,-86.0,16.0,70.0,101624.0,-2.4870002269744873,0,0
670.048993,0.3551025390625,0.326446533203125,-0.86810302734375,0.116912841796875,0.06103515625,0.06103515625,-0.1220703125,0.6845703125,0.02783203125,-0.7132568359375,-86.0,16.0,70.0,101624.0,-2.4870002269744873,0,0
670.053994,0.355133056640625,0.326446533203125,-0.86810302734375,0.116912841796875,0.1220703125,0.0,-0.18310546875,0.6842041015625,0.02978515625,-0.7109375,-86.0,16.0,70.0,101624.0,-2.4870002269744873,0,0
670.058995,0.355133056640625,0.326446533203125,-0.86810302734375,0.116912841796875,-0.1220703125,0.06103515625,-0.06103515625,0.6851806640625,0.0277099609375,-0.71240234375,-86.0,16.0,70.0,101624.0,-2.4870002269744873,0,0
670.063993,0.355133056640625,0.326446533203125,-0.86810302734375,0.116912841796875,0.42724609375,0.3662109375,-0.18310546875,0.6868896484375,0.02978515625,-0.71337890625,-86.0,16.0,70.0,101624.0,-2.4870002269744873,0,0
670.068993,0.355133056640625,0.326446533203125,-0.86810302734375,0.116912841796875,-0.18310546875,0.0,0.0,0.684326171875,0.029541015625,-0.7110595703125,-86.0,16.0,70.0,101624.0,-2.4870002269744873,0,0
670.073994,0.355133056640625,0.326446533203125,-0.86810302734375,0.116912841796875,-0.42724609375,-0.06103515625,-0.06103515625,0.686279296875,0.0281982421875,-0.71044921875,-86.0,16.0,70.0,101624.0,-2.4870002269744873,0,0
670.078995,0.355133056640625,0.326446533203125,-0.86810302734375,0.116912841796875,0.06103515625,-0.06103515625,-0.06103515625,0.6842041015625,0.0264892578125,-0.7105712890625,-86.0,16.0,70.0,101624.0,-2.4870002269744873,0,0
670.083993,0.355133056640625,0.326446533203125,-0.86810302734375,0.116912841796875,-0.244140625,0.06103515625,0.06103515625,0.685791015625,0.0267333984375,-0.7113037109375,-86.0,16.0,70.0,101624.0,-2.4870002269744873,0,0
670.088022,0.355133056640625,0.326446533203125,-0.86810302734375,0.116912841796875,-0.244140625,0.06103515625,0.06103515625,0.685791015625,0.0267333984375,-0.7113037109375,-86.0,16.0,70.0,101624.0,-2.4870002269744873,0,0
670.092997,0.355133056640625,0.326446533203125,-0.86810302734375,0.116912841796875,0.18310546875,-0.244140625,-0.244140625,0.68505859375,0.0294189453125,-0.712890625,-86.0,14.0,69.0,101624.0,-2.4870002269744873,0,0
670.097994,0.355010986328125,0.327484130859375,-0.867706298828125,0.117340087890625,-0.30517578125,-0.06103515625,-0.1220703125,0.6865234375,0.0289306640625,-0.7109375,-86.0,14.0,69.0,101624.0,-2.4870002269744873,0,0
670.112996,0.355010986328125,0.327484130859375,-0.867706298828125,0.117340087890625,-0.30517578125,0.0,-0.1220703125,0.685546875,0.0301513671875,-0.7108154296875,-86.0,14.0,69.0,101624.0,-2.4870002269744873,0,0
670.117994,0.355010986328125,0.327484130859375,-0.867706298828125,0.117340087890625,0.30517578125,0.1220703125,0.0,0.685791015625,0.0296630859375,-0.711669921875,-86.0,14.0,69.0,101624.0,-2.4870002269744873,0,0
670.122994,0.355010986328125,0.327484130859375,-0.867706298828125,0.117340087890625,0.06103515625,-0.1220703125,-0.1220703125,0.6849365234375,0.0284423828125,-0.7122802734375,-86.0,14.0,69.0,101624.0,-2.4870002269744873,0,0
670.127995,0.355010986328125,0.327484130859375,-0.867706298828125,0.117340087890625,-0.244140625,0.06103515625,-0.06103515625,0.6866455078125,0.0289306640625,-0.7122802734375,-86.0,14.0,69.0,101624.0,-2.4870002269744873,0,0
670.132997,0.355010986328125,0.327484130859375,-0.867706298828125,0.117340087890625,0.06103515625,0.1220703125,-0.18310546875,0.6864013671875,0.03076171875,-0.7139892578125,-86.0,14.0,69.0,101624.0,-2.4870002269744873,0,0
670.137996,0.355010986328125,0.327484130859375,-0.867706298828125,0.117340087890625,0.1220703125,-0.06103515625,-0.1220703125,0.6851806640625,0.0281982421875,-0.7127685546875,-86.0,14.0,69.0,101624.0,-2.4870002269744873,0,0
670.142994,0.355010986328125,0.327484130859375,-0.867706298828125,0.117340087890625,-0.06103515625,-0.06103515625,-0.30517578125,0.6844482421875,0.02734375,-0.712158203125,-86.0,14.0,69.0,101623.0,-2.4840002059936523,0,0
670.147994,0.355010986328125,0.327484130859375,-0.867706298828125,0.117340087890625,0.48828125,0.6103515625,0.0,0.6834716796875,0.0277099609375,-0.711181640625,-86.0,14.0,69.0,101623.0,-2.4840002059936523,0,0
670.152994,0.355010986328125,0.327484130859375,-0.867706298828125,0.117340087890625,-0.244140625,0.0,0.06103515625,0.6845703125,0.0277099609375,-0.7100830078125,-86.0,14.0,69.0,101623.0,-2.4840002059936523,0,0
670.157025,0.355010986328125,0.327484130859375,-0.867706298828125,0.117340087890625,-0.244140625,0.0,0.06103515625,0.6845703125,0.0277099609375,-0.7100830078125,-86.0,14.0,69.0,101623.0,-2.4840002059936523,0,0
670.161994,0.355010986328125,0.327484130859375,-0.867706298828125,0.117340087890625,-0.06103515625,0.0,-0.18310546875,0.6849365234375,0.0294189453125,-0.7113037109375,-86.0,14.0,69.0,101623.0,-2.4840002059936523,0,0
670.166995,0.355010986328125,0.327484130859375,-0.867706298828125,0.117340087890625,0.0,0.06103515625,-0.18310546875,0.6844482421875,0.0283203125,-0.7125244140625,-86.0,14.0,69.0,101623.0,-2.4840002059936523,0,0
670.171993,0.355010986328125,0.327484130859375,-0.867706298828125,0.117340087890625,-0.1220703125,-0.06103515625,-0.1220703125,0.68603515625,0.027587890625,-0.713134765625,-86.0,14.0,69.0,101623.0,-2.4840002059936523,0,0
670.176993,0.355010986328125,0.327484130859375,-0.867706298828125,0.117340087890625,-0.1220703125,-0.18310546875,-0.06103515625,0.68408203125,0.0281982421875,-0.7108154296875,-86.0,14.0,69.0,101623.0,-2.4840002059936523,0,0
670.181994,0.355010986328125,0.327484130859375,-0.867706298828125,0.117340087890625,0.42724609375,0.0,0.06103515625,0.68603515625,0.028076171875,-0.7119140625,-86.0,14.0,69.0,101623.0,-2.4840002059936523,0,0
670.186995,0.355010986328125,0.327484130859375,-0.867706298828125,0.117340087890625,-0.244140625,0.18310546875,-0.244140625,0.683837890625,0.028564453125,-0.712158203125,-86.0,14.0,69.0,101623.0,-2.4840002059936523,0,0
670.191993,0.355010986328125,0.327484130859375,-0.867706298828125,0.117340087890625,-0.244140625,0.18310546875,-0.244140625,0.683837890625,0.028564453125,-0.712158203125,-87.0,13.0,68.0,101623.0,-2.4840002059936523,0,0
670.196993,0.354736328125,0.32952880859375,-0.866912841796875,0.118194580078125,-0.18310546875,0.06103515625,-0.06103515625,0.6861572265625,0.0291748046875,-0.7117919921875,-87.0,13.0,68.0,101623.0,-2.4840002059936523,0,0
670.201993,0.354736328125,0.32952880859375,-0.866912841796875,0.118194580078125,-0.244140625,-0.30517578125,-0.06103515625,0.6856689453125,0.0269775390625,-0.7117919921875,-87.0,13.0,68.0,101623.0,-2.4840002059936523,0,0
670.206994,0.354736328125,0.32952880859375,-0.866912841796875,0.118194580078125,-0.06103515625,0.0,0.0,0.685791015625,0.0283203125,-0.7127685546875,-87.0,13.0,68.0,101623.0,-2.4840002059936523,0,0
670.211995,0.354736328125,0.32952880859375,-0.866912841796875,0.118194580078125,0.1220703125,0.18310546875,-0.06103515625,0.68505859375,0.0289306640625,-0.711181640625,-87.0,13.0,68.0,101623.0,-2.4840002059936523,0,0
670.216993,0.354736328125,0.32952880859375,-0.866912841796875,0.118194580078125,-0.30517578125,0.0,0.1220703125,0.6837158203125,0.027587890625,-0.7113037109375,-87.0,13.0,68.0,101623.0,-2.4840002059936523,0,0
670.221021,0.354736328125,0.32952880859375,-0.866912841796875,0.118194580078125,-0.30517578125,0.0,0.1220703125,0.6837158203125,0.027587890625,-0.7113037109375,-87.0,13.0,68.0,101623.0,-2.4840002059936523,0,0
670.235994,0.354736328125,0.32952880859375,-0.866912841796875,0.118194580078125,0.244140625,-0.06103515625,0.06103515625,0.685791015625,0.0294189453125,-0.711669921875,-87.0,13.0,68.0,101623.0,-2.4840002059936523,0,0
670.240995,0.354736328125,0.32952880859375,-0.866912841796875,0.118194580078125,-0.06103515625,0.244140625,-0.18310546875,0.6866455078125,0.029296875,-0.7109375,-87.0,13.0,68.0,101623.0,-2.4840002059936523,0,0
670.245993,0.354736328125,0.32952880859375,-0.866912841796875,0.118194580078125,0.06103515625,0.30517578125,0.1220703125,0.684326171875,0.02783203125,-0.7120361328125,-87.0,13.0,68.0,101623.0,-2.4840002059936523,0,0
670.250993,0.354736328125,0.32952880859375,-0.866912841796875,0.118194580078125,-0.18310546875,0.3662109375,-0.30517578125,0.6871337890625,0.0286865234375,-0.7105712890625,-87.0,13.0,68.0,101623.0,-2.4840002059936523,0,0
670.255993,0.354736328125,0.32952880859375,-0.866912841796875,0.11822509765625,-0.244140625,-0.1220703125,-0.1220703125,0.684814453125,0.028564453125,-0.7105712890625,-87.0,13.0,68.0,101623.0,-2.4840002059936523,0,0
670.260994,0.354766845703125,0.32952880859375,-0.866912841796875,0.11822509765625,0.06103515625,-0.18310546875,-0.18310546875,0.6865234375,0.0264892578125,-0.7115478515625,-87.0,13.0,68.0,101623.0,-2.4840002059936523,0,0
670.265995,0.354736328125,0.32952880859375,-0.866912841796875,0.11822509765625,-0.18310546875,-0.30517578125,-0.06103515625,0.6851806640625,0.0277099609375,-0.710693359375,-87.0,13.0,68.0,101623.0,-2.4840002059936523,0,0
670.270993,0.354736328125,0.32952880859375,-0.866912841796875,0.11822509765625,-0.1220703125,-0.18310546875,-0.244140625,0.6839599609375,0.028564453125,-0.71240234375,-87.0,13.0,68.0,101623.0,-2.4840002059936523,0,0
670.275993,0.354736328125,0.32952880859375,-0.866912841796875,0.11822509765625,0.3662109375,-0.06103515625,0.0,0.6845703125,0.0299072265625,-0.71240234375,-87.0,13.0,68.0,101623.0,-2.4840002059936523,0,0
670.280994,0.354736328125,0.32952880859375,-0.866912841796875,0.11822509765625,0.06103515625,-0.48828125,0.0,0.68359375,0.0269775390625,-0.71044921875,-87.0,13.0,68.0,101623.0,-2.4840002059936523,0,0
670.285995,0.354736328125,0.32952880859375,-0.866912841796875,0.11822509765625,0.18310546875,0.06103515625,0.1220703125,0.68310546875,0.0296630859375,-0.7115478515625,-87.0,13.0,68.0,101623.0,-2.4840002059936523,0,0
670.299993,0.354583740234375,0.33062744140625,-0.86651611328125,0.11865234375,-0.06103515625,0.06103515625,-0.18310546875,0.686279296875,0.02880859375,-0.7127685546875,-86.0,13.0,69.0,101623.0,-2.4840002059936523,0,0
670.304994,0.354583740234375,0.33062744140625,-0.86651611328125,0.11865234375,-0.244140625,0.0,0.06103515625,0.68310546875,0.0281982421875,-0.7120361328125,-86.0,13.0,69.0,101623.0,-2.4840002059936523,0,0
670.309994,0.354583740234375,0.33062744140625,-0.86651611328125,0.11865234375,-0.30517578125,-0.06103515625,-0.06103515625,0.6824951171875,0.0286865234375,-0.711181640625,-86.0,13.0,69.0,101623.0,-2.4840002059936523,0,0
670.314994,0.354583740234375,0.33062744140625,-0.86651611328125,0.118621826171875,0.06103515625,0.1220703125,-0.1220703125,0.68310546875,0.02978515625,-0.7117919921875,-86.0,13.0,69.0,101623.0,-2.4840002059936523,0,0
670.319996,0.354583740234375,0.33062744140625,-0.86651611328125,0.11865234375,-0.3662109375,-0.1220703125,-0.18310546875,0.685791015625,0.0272216796875,-0.7130126953125,-86.0,13.0,69.0,101623.0,-2.4840002059936523,0,0
670.324994,0.354583740234375,0.33062744140625,-0.86651611328125,0.11865234375,-0.1220703125,0.1220703125,-0.06103515625,0.684814453125,0.02734375,-0.712646484375,-86.0,13.0,69.0,101623.0,-2.4840002059936523,0,0
670.329994,0.354583740234375,0.330596923828125,-0.86651611328125,0.11859130859375,-0.18310546875,-0.1220703125,0.0,0.684814453125,0.029541015625,-0.7110595703125,-86.0,13.0,69.0,101623.0,-2.4840002059936523,0,0
670.334995,0.354583740234375,0.330596923828125,-0.86651611328125,0.11859130859375,-1.3427734375,-0.42724609375,-0.1220703125,0.6859130859375,0.029296875,-0.7109375,-86.0,13.0,69.0,101623.0,-2.4840002059936523,0,0
670.339997,0.354583740234375,0.330596923828125,-0.86651611328125,0.11859130859375,0.79345703125,0.18310546875,-0.244140625,0.6875,0.027587890625,-0.712890625,-86.0,13.0,69.0,101624.0,-2.4860000610351562,0,0
670.344996,0.354583740234375,0.330596923828125,-0.86651611328125,0.11859130859375,-0.244140625,0.1220703125,-0.1220703125,0.685546875,0.0274658203125,-0.7120361328125,-86.0,13.0,69.0,101624.0,-2.4860000610351562,0,0
670.349994,0.354583740234375,0.330596923828125,-0.86651611328125,0.11859130859375,-0.18310546875,-0.06103515625,-0.244140625,0.6845703125,0.0284423828125,-0.711181640625,-86.0,13.0,69.0,101624.0,-2.4860000610351562,0,0
670.354024,0.354583740234375,0.330596923828125,-0.86651611328125,0.11859130859375,-0.18310546875,-0.06103515625,-0.244140625,0.6845703125,0.0284423828125,-0.711181640625,-86.0,13.0,69.0,101624.0,-2.4860000610351562,0,0
670.358995,0.354583740234375,0.330596923828125,-0.86651611328125,0.118621826171875,-0.30517578125,0.06103515625,-0.1220703125,0.6845703125,0.0286865234375,-0.712158203125,-86.0,13.0,69.0,101624.0,-2.4860000610351562,0,0
670.363994,0.354583740234375,0.330596923828125,-0.86651611328125,0.118621826171875,0.0,-0.1220703125,-0.06103515625,0.6864013671875,0.028564453125,-0.7137451171875,-86.0,13.0,69.0,101624.0,-2.4860000610351562,0,0
670.368994,0.354583740234375,0.330596923828125,-0.86651611328125,0.118621826171875,-0.18310546875,0.0,0.0,0.6849365234375,0.026123046875,-0.7127685546875,-86.0,13.0,69.0,101624.0,-2.4860000610351562,0,0
670.373995,0.354583740234375,0.330596923828125,-0.86651611328125,0.118621826171875,-0.1220703125,-0.244140625,0.06103515625,0.6845703125,0.0286865234375,-0.71142578125,-86.0,13.0,69.0,101624.0,-2.4860000610351562,0,0
670.378993,0.354583740234375,0.330596923828125,-0.86651611328125,0.118621826171875,0.18310546875,0.244140625,-0.244140625,0.6846923828125,0.02783203125,-0.711181640625,-86.0,13.0,69.0,101624.0,-2.4860000610351562,0,0
670.383993,0.354583740234375,0.330596923828125,-0.86651611328125,0.118621826171875,-0.48828125,0.1220703125,-0.18310546875,0.68505859375,0.0296630859375,-0.7127685546875,-86.0,13.0,69.0,101624.0,-2.4860000610351562,0,0
670.388994,0.3546142578125,0.330596923828125,-0.86651611328125,0.118621826171875,0.1220703125,0.1220703125,-0.06103515625,0.6878662109375,0.02783203125,-0.7099609375,-86.0,13.0,69.0,101624.0,-2.4860000610351562,0,0
670.393995,0.3546142578125,0.330596923828125,-0.86651611328125,0.118621826171875,0.3662109375,0.48828125,0.244140625,0.6873779296875,0.0274658203125,-0.7098388671875,-86.0,14.0,69.0,101624.0,-2.4860000610351562,0,0
670.398996,0.354461669921875,0.3316650390625,-0.866119384765625,0.119049072265625,-0.244140625,0.06103515625,-0.1220703125,0.6839599609375,0.0274658203125,-0.7122802734375,-86.0,14.0,69.0,101624.0,-2.4860000610351562,0,0
670.403993,0.354461669921875,0.3316650390625,-0.866119384765625,0.119049072265625,0.244140625,-0.06103515625,0.06103515625,0.6854248046875,0.0269775390625,-0.71142578125,-86.0,14.0,69.0,101624.0,-2.4860000610351562,0,0
670.408993,0.354461669921875,0.3316650390625,-0.8660888671875,0.119049072265625,-0.244140625,-0.1220703125,-0.30517578125,0.6864013671875,0.0302734375,-0.7113037109375,-86.0,14.0,69.0,101624.0,-2.4860000610351562,0,0
670.423023,0.354461669921875,0.3316650390625,-0.8660888671875,0.119049072265625,0.06103515625,-0.30517578125,0.06103515625,0.6871337890625,0.0286865234375,-0.712890625,-86.0,14.0,69.0,101624.0,-2.4860000610351562,0,0
670.427995,0.354461669921875,0.331634521484375,-0.8660888671875,0.11907958984375,0.1220703125,0.0,0.0,0.6837158203125,0.0269775390625,-0.7110595703125,-86.0,14.0,69.0,101624.0,-2.4860000610351562,0,0
670.442994,0.354461669921875,0.331634521484375,-0.8660888671875,0.11907958984375,0.0,0.1220703125,-0.244140625,0.686279296875,0.0286865234375,-0.713134765625,-86.0,14.0,69.0,101623.0,-2.4860000610351562,0,0
670.447995,0.354461669921875,0.331634521484375,-0.8660888671875,0.119049072265625,0.0,0.0,-0.18310546875,0.68505859375,0.0294189453125,-0.7135009765625,-86.0,14.0,69.0,101623.0,-2.4860000610351562,0,0
670.452996,0.354461669921875,0.331634521484375,-0.8660888671875,0.119049072265625,-0.18310546875,-0.06103515625,0.18310546875,0.6856689453125,0.02880859375,-0.7132568359375,-86.0,14.0,69.0,101623.0,-2.4860000610351562,0,0
670.457993,0.354461669921875,0.331634521484375,-0.866119384765625,0.11907958984375,-0.42724609375,0.1220703125,-0.18310546875,0.68603515625,0.0274658203125,-0.71337890625,-86.0,14.0,69.0,101623.0,-2.4860000610351562,0,0
670.462993,0.354461669921875,0.331634521484375,-0.866119384765625,0.11907958984375,0.0,0.18310546875,0.1220703125,0.6851806640625,0.02783203125,-0.713134765625,-86.0,14.0,69.0,101623.0,-2.4860000610351562,0,0
670.467994,0.354461669921875,0.3316650390625,-0.8660888671875,0.119049072265625,0.54931640625,0.54931640625,0.1220703125,0.685546875,0.030517578125,-0.71142578125,-86.0,14.0,69.0,101623.0,-2.4860000610351562,0,0
670.472995,0.354461669921875,0.3316650390625,-0.8660888671875,0.119049072265625,-0.732421875,0.1220703125,-0.1220703125,0.6842041015625,0.029052734375,-0.7113037109375,-86.0,14.0,69.0,101623.0,-2.4860000610351562,0,0
670.487022,0.354461669921875,0.3316650390625,-0.8660888671875,0.119049072265625,-0.244140625,-0.1220703125,-0.244140625,0.6873779296875,0.0283203125,-0.7135009765625,-86.0,14.0,69.0,101623.0,-2.4860000610351562,0,0
670.491993,0.3544921875,0.331634521484375,-0.8660888671875,0.119049072265625,0.48828125,-0.06103515625,-0.30517578125,0.68603515625,0.027587890625,-0.710205078125,-85.0,13.0,68.0,101623.0,-2.4860000610351562,0,0
670.496994,0.354339599609375,0.332733154296875,-0.865692138671875,0.1195068359375,0.0,-0.30517578125,-0.244140625,0.6849365234375,0.0299072265625,-0.7117919921875,-85.0,13.0,68.0,101623.0,-2.4860000610351562,0,0
670.501995,0.354339599609375,0.332733154296875,-0.865692138671875,0.1195068359375,-0.06103515625,0.0,-0.06103515625,0.6845703125,0.02783203125,-0.712646484375,-85.0,13.0,68.0,101623.0,-2.4860000610351562,0,0
670.506993,0.354339599609375,0.332733154296875,-0.865692138671875,0.1195068359375,-0.48828125,-0.3662109375,-0.48828125,0.6875,0.02685546875,-0.712646484375,-85.0,13.0,68.0,101623.0,-2.4860000610351562,0,0
670.511993,0.354339599609375,0.332733154296875,-0.865692138671875,0.1195068359375,-0.1220703125,-0.06103515625,-0.1220703125,0.686767578125,0.0269775390625,-0.7122802734375,-85.0,13.0,68.0,101623.0,-2.4860000610351562,0,0
670.516994,0.354339599609375,0.332733154296875,-0.865692138671875,0.1195068359375,-0.1220703125,0.1220703125,-0.244140625,0.6834716796875,0.02978515625,-0.711181640625,-85.0,13.0,68.0,101623.0,-2.4860000610351562,0,0
670.521994,0.354339599609375,0.332733154296875,-0.865692138671875,0.1195068359375,0.0,0.06103515625,-0.244140625,0.6846923828125,0.0283203125,-0.7110595703125,-85.0,13.0,68.0,101623.0,-2.4860000610351562,0,0
670.526996,0.354339599609375,0.332733154296875,-0.865692138671875,0.1195068359375,0.1220703125,0.18310546875,-0.3662109375,0.683837890625,0.028564453125,-0.7125244140625,-85.0,13.0,68.0,101623.0,-2.4860000610351562,0,0
670.531994,0.354339599609375,0.332733154296875,-0.865692138671875,0.1195068359375,-0.244140625,0.06103515625,0.18310546875,0.6859130859375,0.0269775390625,-0.7127685546875,-85.0,13.0,68.0,101623.0,-2.4860000610351562,0,0
670.536994,0.354339599609375,0.332733154296875,-0.865692138671875,0.1195068359375,0.30517578125,0.06103515625,-0.06103515625,0.6839599609375,0.0281982421875,-0.71240234375,-85.0,13.0,68.0,101623.0,-2.4860000610351562,0,0
670.541995,0.354339599609375,0.332733154296875,-0.865692138671875,0.1195068359375,0.30517578125,0.06103515625,-0.06103515625,0.6839599609375,0.0281982421875,-0.71240234375,-85.0,13.0,68.0,101623.0,-2.4850001335144043,0,0
670.546997,0.354339599609375,0.332733154296875,-0.865692138671875,0.1195068359375,0.0,-0.06103515625,-0.1220703125,0.68603515625,0.0284423828125,-0.7125244140625,-85.0,13.0,68.0,101623.0,-2.4850001335144043,0,0
670.551996,0.35430908203125,0.332733154296875,-0.865692138671875,0.1195068359375,0.06103515625,0.244140625,-0.244140625,0.68310546875,0.0262451171875,-0.7119140625,-85.0,13.0,68.0,101623.0,-2.4850001335144043,0,0
670.556023,0.35430908203125,0.332733154296875,-0.865692138671875,0.1195068359375,0.06103515625,0.244140625,-0.244140625,0.68310546875,0.0262451171875,-0.7119140625,-85.0,13.0,68.0,101623.0,-2.4850001335144043,0,0
670.560997,0.35430908203125,0.332733154296875,-0.865692138671875,0.1195068359375,-0.91552734375,-0.06103515625,0.1220703125,0.6815185546875,0.027099609375,-0.7127685546875,-85.0,13.0,68.0,101623.0,-2.4850001335144043,0,0
670.565994,0.35430908203125,0.332733154296875,-0.865692138671875,0.1195068359375,0.3662109375,0.0,-0.1220703125,0.68359375,0.027587890625,-0.713134765625,-85.0,13.0,68.0,101623.0,-2.4850001335144043,0,0
670.570994,0.35430908203125,0.332733154296875,-0.865692138671875,0.1195068359375,-0.3662109375,0.0,-0.1220703125,0.6849365234375,0.0281982421875,-0.7113037109375,-85.0,13.0,68.0,101623.0,-2.4850001335144043,0,0
670.575994,0.35430908203125,0.332733154296875,-0.865692138671875,0.1195068359375,0.06103515625,0.244140625,-0.30517578125,0.6834716796875,0.0283203125,-0.71142578125,-85.0,13.0,68.0,101623.0,-2.4850001335144043,0,0
670.580996,0.35430908203125,0.332733154296875,-0.865692138671875,0.1195068359375,-0.06103515625,-0.06103515625,0.0,0.6865234375,0.0289306640625,-0.7113037109375,-85.0,13.0,68.0,101623.0,-2.4850001335144043,0,0
670.585993,0.35430908203125,0.332733154296875,-0.865692138671875,0.1195068359375,-0.18310546875,0.06103515625,-0.244140625,0.68310546875,0.0289306640625,-0.711181640625,-85.0,13.0,68.0,101623.0,-2.4850001335144043,0,0
670.590993,0.35430908203125,0.332733154296875,-0.865692138671875,0.1195068359375,-0.30517578125,-0.30517578125,-0.06103515625,0.68505859375,0.0303955078125,-0.7108154296875,-87.0,14.0,69.0,101623.0,-2.4850001335144043,0,0
670.595994,0.35430908203125,0.332733154296875,-0.865692138671875,0.1195068359375,0.06103515625,-0.06103515625,-0.244140625,0.6856689453125,0.0279541015625,-0.711181640625,-87.0,14.0,69.0,101623.0,-2.4850001335144043,0,0
670.610993,0.354156494140625,0.333770751953125,-0.86529541015625,0.11993408203125,0.06103515625,-0.06103515625,-0.06103515625,0.685546875,0.0274658203125,-0.71337890625,-87.0,14.0,69.0,101623.0,-2.4850001335144043,0,0
670.615993,0.354156494140625,0.333770751953125,-0.86529541015625,0.11993408203125,0.1220703125,0.06103515625,0.0,0.6839599609375,0.0274658203125,-0.711669921875,-87.0,14.0,69.0,101623.0,-2.4850001335144043,0,0
670.620022,0.354156494140625,0.333770751953125,-0.86529541015625,0.11993408203125,0.1220703125,0.06103515625,0.0,0.6839599609375,0.0274658203125,-0.711669921875,-87.0,14.0,69.0,101623.0,-2.4850001335144043,0,0
670.624993,0.354156494140625,0.333740234375,-0.86529541015625,0.11993408203125,-0.244140625,0.1220703125,0.18310546875,0.685546875,0.0277099609375,-0.711669921875,-87.0,14.0,69.0,101623.0,-2.4850001335144043,0,0
670.629994,0.35418701171875,0.333740234375,-0.86529541015625,0.11993408203125,-0.1220703125,0.06103515625,-0.1220703125,0.684326171875,0.029052734375,-0.7122802734375,-87.0,14.0,69.0,101623.0,-2.4850001335144043,0,0
670.634995,0.354156494140625,0.333740234375,-0.86529541015625,0.11993408203125,-0.30517578125,0.06103515625,-0.1220703125,0.6842041015625,0.0283203125,-0.7135009765625,-87.0,14.0,69.0,101623.0,-2.4850001335144043,0,0
670.639993,0.354156494140625,0.333740234375,-0.86529541015625,0.11993408203125,-0.18310546875,0.1220703125,-0.18310546875,0.68505859375,0.0291748046875,-0.7119140625,-87.0,14.0,69.0,101623.0,-2.4850001335144043,0,0
670.644993,0.35418701171875,0.333740234375,-0.86529541015625,0.11993408203125,-0.18310546875,0.18310546875,-0.1220703125,0.68701171875,0.0284423828125,-0.71240234375,-87.0,14.0,69.0,101623.0,-2.4850001335144043,0,0
670.649994,0.354156494140625,0.333740234375,-0.86529541015625,0.11993408203125,-0.3662109375,0.18310546875,-0.1220703125,0.68408203125,0.029052734375,-0.712646484375,-87.0,14.0,69.0,101623.0,-2.4850001335144043,0,0
670.654995,0.354156494140625,0.333740234375,-0.86529541015625,0.11993408203125,0.06103515625,-0.06103515625,-0.244140625,0.6854248046875,0.029052734375,-0.7105712890625,-87.0,14.0,69.0,101623.0,-2.4850001335144043,0,0
670.669993,0.354156494140625,0.333770751953125,-0.86529541015625,0.11993408203125,-0.42724609375,0.0,0.06103515625,0.6822509765625,0.028564453125,-0.7113037109375,-87.0,14.0,69.0,101623.0,-2.4850001335144043,0,0
670.674994,0.354156494140625,0.333770751953125,-0.86529541015625,0.11993408203125,-0.30517578125,0.18310546875,-0.30517578125,0.684326171875,0.0277099609375,-0.7119140625,-87.0,14.0,69.0,101623.0,-2.4850001335144043,0,0
670.679995,0.354156494140625,0.333770751953125,-0.86529541015625,0.11993408203125,0.30517578125,0.18310546875,0.0,0.6856689453125,0.0279541015625,-0.7110595703125,-87.0,14.0,69.0,101623.0,-2.4850001335144043,0,0
670.684993,0.354156494140625,0.333770751953125,-0.86529541015625,0.11993408203125,-0.18310546875,0.1220703125,0.0,0.6844482421875,0.028564453125,-0.71142578125,-87.0,14.0,69.0,101623.0,-2.4850001335144043,0,0
670.689021,0.354156494140625,0.333770751953125,-0.86529541015625,0.11993408203125,-0.18310546875,0.1220703125,0.0,0.6844482421875,0.028564453125,-0.71142578125,-87.0,14.0,69.0,101623.0,-2.4850001335144043,0,0
670.693993,0.354156494140625,0.333770751953125,-0.86529541015625,0.11993408203125,0.06103515625,0.0,0.0,0.6837158203125,0.030517578125,-0.7115478515625,-86.0,13.0,70.0,101623.0,-2.4850001335144043,0,0
670.698993,0.35443115234375,0.331695556640625,-0.8660888671875,0.11907958984375,-0.244140625,0.06103515625,-0.1220703125,0.6837158203125,0.02880859375,-0.7139892578125,-86.0,13.0,70.0,101623.0,-2.4850001335144043,0,0
670.703994,0.35443115234375,0.331695556640625,-0.8660888671875,0.11907958984375,0.06103515625,0.1220703125,-0.30517578125,0.6832275390625,0.026611328125,-0.71240234375,-86.0,13.0,70.0,101623.0,-2.4850001335144043,0,0
670.708995,0.35443115234375,0.331695556640625,-0.8660888671875,0.11907958984375,0.244140625,0.0,-0.244140625,0.6861572265625,0.0284423828125,-0.7120361328125,-86.0,13.0,70.0,101623.0,-2.4850001335144043,0,0
670.713993,0.35443115234375,0.331695556640625,-0.8660888671875,0.11907958984375,-0.18310546875,0.06103515625,-0.18310546875,0.68310546875,0.0279541015625,-0.7119140625,-86.0,13.0,70.0,101623.0,-2.4850001335144043,0,0
670.718993,0.35443115234375,0.331695556640625,-0.8660888671875,0.11907958984375,0.1220703125,0.06103515625,-0.244140625,0.6845703125,0.0264892578125,-0.710205078125,-86.0,13.0,70.0,101623.0,-2.4850001335144043,0,0
670.723993,0.35443115234375,0.331695556640625,-0.8660888671875,0.119110107421875,-0.42724609375,0.06103515625,-0.3662109375,0.685791015625,0.0274658203125,-0.711181640625,-86.0,13.0,70.0,101623.0,-2.4850001335144043,0,0
670.728994,0.35443115234375,0.331695556640625,-0.8660888671875,0.119110107421875,-0.30517578125,-0.1220703125,-0.18310546875,0.6878662109375,0.029052734375,-0.71142578125,-86.0,13.0,70.0,101623.0,-2.4850001335144043,0,0
670.733996,0.354461669921875,0.331695556640625,-0.8660888671875,0.119110107421875,-0.1220703125,-0.06103515625,-0.244140625,0.6854248046875,0.028564453125,-0.7113037109375,-86.0,13.0,70.0,101623.0,-2.4850001335144043,0,0
670.738994,0.354461669921875,0.331695556640625,-0.8660888671875,0.119110107421875,-0.3662109375,0.1220703125,0.06103515625,0.685546875,0.0274658203125,-0.7109375,-86.0,13.0,70.0,101623.0,-2.4850001335144043,0,0
670.743994,0.354461669921875,0.331695556640625,-0.8660888671875,0.119110107421875,0.0,-0.244140625,0.06103515625,0.6849365234375,0.0284423828125,-0.7098388671875,-86.0,13.0,70.0,101623.0,-2.4850001335144043,0,0
670.748995,0.354461669921875,0.331695556640625,-0.8660888671875,0.119110107421875,0.0,-0.06103515625,-0.06103515625,0.685791015625,0.0277099609375,-0.71240234375,-86.0,13.0,70.0,101623.0,-2.4850001335144043,0,0
670.753025,0.354461669921875,0.331695556640625,-0.8660888671875,0.119110107421875,0.0,-0.06103515625,-0.06103515625,0.685791015625,0.0277099609375,-0.71240234375,-86.0,13.0,70.0,101623.0,-2.4850001335144043,0,0
670.757995,0.354461669921875,0.331695556640625,-0.8660888671875,0.119110107421875,0.06103515625,0.1220703125,-0.1220703125,0.68505859375,0.0277099609375,-0.7132568359375,-86.0,13.0,70.0,101623.0,-2.4850001335144043,0,0
670.762997,0.35443115234375,0.331695556640625,-0.8660888671875,0.119110107421875,-0.06103515625,0.0,0.06103515625,0.683349609375,0.02685546875,-0.7125244140625,-86.0,13.0,70.0,101623.0,-2.4850001335144043,0,0
670.767996,0.35443115234375,0.331695556640625,-0.8660888671875,0.119110107421875,0.244140625,0.1220703125,-0.06103515625,0.68505859375,0.028076171875,-0.7113037109375,-86.0,13.0,70.0,101623.0,-2.4850001335144043,0,0
670.772994,0.35443115234375,0.331695556640625,-0.8660888671875,0.119110107421875,-0.1220703125,-0.1220703125,-0.18310546875,0.6845703125,0.02783203125,-0.71240234375,-86.0,13.0,70.0,101623.0,-2.4850001335144043,0,0
670.777994,0.35443115234375,0.331695556640625,-0.8660888671875,0.119110107421875,-0.06103515625,0.06103515625,0.06103515625,0.684814453125,0.030517578125,-0.7113037109375,-86.0,13.0,70.0,101623.0,-2.4850001335144043,0,0
670.792994,0.35443115234375,0.331695556640625,-0.8660888671875,0.119110107421875,-0.06103515625,0.0,-0.18310546875,0.685546875,0.0283203125,-0.7132568359375,-87.0,13.0,70.0,101623.0,-2.4850001335144043,0,0
670.797993,0.354278564453125,0.332733154296875,-0.865692138671875,0.119537353515625,0.1220703125,-0.06103515625,-0.1220703125,0.685302734375,0.0274658203125,-0.71142578125,-87.0,13.0,70.0,101623.0,-2.4850001335144043,0,0
670.802994,0.35430908203125,0.332733154296875,-0.865692138671875,0.119537353515625,0.06103515625,-0.1220703125,-0.244140625,0.6849365234375,0.0272216796875,-0.713134765625,-87.0,13.0,70.0,101623.0,-2.4850001335144043,0,0
670.807995,0.35430908203125,0.332733154296875,-0.865692138671875,0.119537353515625,-0.06103515625,-0.06103515625,-0.244140625,0.6861572265625,0.030029296875,-0.711669921875,-87.0,13.0,70.0,101623.0,-2.4850001335144043,0,0
670.812993,0.35430908203125,0.332733154296875,-0.865692138671875,0.119537353515625,0.06103515625,0.06103515625,-0.1220703125,0.6865234375,0.027587890625,-0.7127685546875,-87.0,13.0,70.0,101623.0,-2.4850001335144043,0,0
670.817021,0.35430908203125,0.332733154296875,-0.865692138671875,0.119537353515625,0.06103515625,0.06103515625,-0.1220703125,0.6865234375,0.027587890625,-0.7127685546875,-87.0,13.0,70.0,101623.0,-2.4850001335144043,0,0
670.821993,0.35430908203125,0.332733154296875,-0.865692138671875,0.119537353515625,0.0,-0.1220703125,-0.3662109375,0.68359375,0.0289306640625,-0.713134765625,-87.0,13.0,70.0,101623.0,-2.4850001335144043,0,0
670.826993,0.35430908203125,0.332733154296875,-0.865692138671875,0.119537353515625,0.1220703125,-0.1220703125,0.18310546875,0.6846923828125,0.0283203125,-0.7120361328125,-87.0,13.0,70.0,101623.0,-2.4850001335144043,0,0
670.831993,0.35430908203125,0.332733154296875,-0.865692138671875,0.119537353515625,-0.18310546875,0.0,-0.18310546875,0.6865234375,0.0281982421875,-0.711181640625,-87.0,13.0,70.0,101623.0,-2.4850001335144043,0,0
670.836994,0.35430908203125,0.332733154296875,-0.865692138671875,0.119537353515625,0.30517578125,0.3662109375,0.0,0.68359375,0.029541015625,-0.7115478515625,-87.0,13.0,70.0,101623.0,-2.4850001335144043,0,0
670.841995,0.35430908203125,0.332733154296875,-0.865692138671875,0.119537353515625,-0.18310546875,0.1220703125,-0.244140625,0.685546875,0.03076171875,-0.7120361328125,-87.0,13.0,70.0,101623.0,-2.4850001335144043,0,0
670.856994,0.35430908203125,0.332733154296875,-0.865692138671875,0.119537353515625,-0.244140625,0.1220703125,0.1220703125,0.68408203125,0.0296630859375,-0.7105712890625,-87.0,13.0,70.0,101623.0,-2.4850001335144043,0,0
670.861995,0.35430908203125,0.332733154296875,-0.865692138671875,0.1195068359375,0.1220703125,0.0,0.1220703125,0.684814453125,0.0277099609375,-0.711181640625,-87.0,13.0,70.0,101623.0,-2.4850001335144043,0,0
670.866996,0.35430908203125,0.332733154296875,-0.865692138671875,0.1195068359375,-0.6103515625,-0.244140625,-0.06103515625,0.682861328125,0.029052734375,-0.7115478515625,-87.0,13.0,70.0,101623.0,-2.4850001335144043,0,0
670.871993,0.35430908203125,0.332733154296875,-0.865692138671875,0.1195068359375,-0.06103515625,0.1220703125,0.1220703125,0.6839599609375,0.0277099609375,-0.7119140625,-87.0,13.0,70.0,101623.0,-2.4850001335144043,0,0
670.876993,0.35430908203125,0.332733154296875,-0.865692138671875,0.1195068359375,0.18310546875,-0.06103515625,0.244140625,0.685302734375,0.0289306640625,-0.7120361328125,-87.0,13.0,70.0,101623.0,-2.4850001335144043,0,0
670.881994,0.354278564453125,0.332733154296875,-0.865692138671875,0.1195068359375,-0.18310546875,-0.06103515625,0.06103515625,0.684326171875,0.0284423828125,-0.7139892578125,-87.0,13.0,70.0,101623.0,-2.4850001335144043,0,0
670.886024,0.354278564453125,0.332733154296875,-0.865692138671875,0.1195068359375,-0.18310546875,-0.06103515625,0.06103515625,0.684326171875,0.0284423828125,-0.7139892578125,-87.0,13.0,70.0,101623.0,-2.4850001335144043,0,0
670.890994,0.354278564453125,0.332733154296875,-0.865692138671875,0.1195068359375,0.06103515625,0.244140625,0.0,0.68359375,0.0252685546875,-0.712890625,-87.0,13.0,70.0,101623.0,-2.4840002059936523,0,0
670.895995,0.3541259765625,0.33380126953125,-0.86529541015625,0.119964599609375,0.1220703125,-0.06103515625,0.06103515625,0.6866455078125,0.0272216796875,-0.7130126953125,-86.0,13.0,69.0,101623.0,-2.4840002059936523,0,0
670.900993,0.3541259765625,0.33380126953125,-0.86529541015625,0.119964599609375,-0.1220703125,-0.1220703125,0.0,0.6865234375,0.0294189453125,-0.712646484375,-86.0,13.0,69.0,101623.0,-2.4840002059936523,0,0
670.905993,0.3541259765625,0.33380126953125,-0.86529541015625,0.119964599609375,-0.18310546875,0.18310546875,-0.1220703125,0.684814453125,0.0267333984375,-0.7109375,-86.0,13.0,69.0,101623.0,-2.4840002059936523,0,0
670.910994,0.3541259765625,0.33380126953125,-0.86529541015625,0.119964599609375,-0.244140625,-0.244140625,-0.244140625,0.685302734375,0.02734375,-0.7109375,-86.0,13.0,69.0,101623.0,-2.4840002059936523,0,0
670.915995,0.3541259765625,0.33380126953125,-0.86529541015625,0.119964599609375,-0.1220703125,0.06103515625,-0.1220703125,0.682373046875,0.02734375,-0.712158203125,-86.0,13.0,69.0,101623.0,-2.4840002059936523,0,0
670.920996,0.3541259765625,0.33380126953125,-0.86529541015625,0.119964599609375,-0.244140625,-0.06103515625,-0.18310546875,0.6844482421875,0.02783203125,-0.7115478515625,-86.0,13.0,69.0,101623.0,-2.4840002059936523,0,0
670.925993,0.3541259765625,0.33380126953125,-0.86529541015625,0.1199951171875,-0.1220703125,-0.1220703125,-0.06103515625,0.68701171875,0.0279541015625,-0.7122802734375,-86.0,13.0,69.0,101623.0,-2.4840002059936523,0,0
670.930993,0.3541259765625,0.33380126953125,-0.86529541015625,0.1199951171875,0.0,0.1220703125,-0.06103515625,0.6866455078125,0.0272216796875,-0.710693359375,-86.0,13.0,69.0,101623.0,-2.4840002059936523,0,0
670.935994,0.3541259765625,0.33380126953125,-0.86529541015625,0.1199951171875,-0.1220703125,0.0,0.0,0.6834716796875,0.027099609375,-0.7127685546875,-86.0,13.0,69.0,101623.0,-2.4840002059936523,0,0
670.940996,0.3541259765625,0.33380126953125,-0.86529541015625,0.1199951171875,0.06103515625,0.0,0.0,0.684326171875,0.0302734375,-0.7120361328125,-86.0,13.0,69.0,101623.0,-2.4840002059936523,0,0
670.945994,0.3541259765625,0.33380126953125,-0.86529541015625,0.1199951171875,-0.48828125,0.0,-0.1220703125,0.6826171875,0.028076171875,-0.712158203125,-86.0,13.0,69.0,101623.0,-2.4840002059936523,0,0
670.950024,0.3541259765625,0.33380126953125,-0.86529541015625,0.1199951171875,-0.48828125,0.0,-0.1220703125,0.6826171875,0.028076171875,-0.712158203125,-86.0,13.0,69.0,101623.0,-2.4840002059936523,0,0
670.954995,0.3541259765625,0.33380126953125,-0.86529541015625,0.1199951171875,-0.1220703125,0.0,-0.18310546875,0.6837158203125,0.0263671875,-0.711669921875,-86.0,13.0,69.0,101623.0,-2.4840002059936523,0,0
670.959994,0.3541259765625,0.33380126953125,-0.86529541015625,0.1199951171875,-0.244140625,0.0,-0.244140625,0.6849365234375,0.0286865234375,-0.7125244140625,-86.0,13.0,69.0,101623.0,-2.4840002059936523,0,0
670.964995,0.3541259765625,0.33380126953125,-0.86529541015625,0.1199951171875,0.06103515625,0.06103515625,0.06103515625,0.68408203125,0.03076171875,-0.7110595703125,-86.0,13.0,69.0,101623.0,-2.4840002059936523,0,0
670.979994,0.3541259765625,0.33380126953125,-0.86529541015625,0.119964599609375,-0.1220703125,0.18310546875,-0.18310546875,0.68603515625,0.0303955078125,-0.7109375,-86.0,13.0,69.0,101623.0,-2.4840002059936523,0,0
670.984994,0.3541259765625,0.33380126953125,-0.86529541015625,0.119964599609375,-0.244140625,-0.1220703125,-0.1220703125,0.6839599609375,0.029296875,-0.7125244140625,-86.0,13.0,69.0,101623.0,-2.4840002059936523,0,0
