Time stamp(sec),adc1,adc2,roll_angular_rate,pitch_angular_rate,yaw_angular_rate,acc_X,acc_Y,acc_Z,mag_X,mag_Y,mag_Z,pressure,altitude
0.051238400003057905,0.375701904296875,-0.45318603515625,0.30859375,-0.74713134765625,0.0,-0.06103515625,0.0,0.44580078125,-0.8004150390625,0.4005126953125,-299.0,149.0,-150.0,101701.0,-3.126000165939331,0,0
0.0513072000030661,0.375701904296875,-0.45318603515625,0.30859375,-0.74713134765625,0.18310546875,0.06103515625,-0.1220703125,0.4466552734375,-0.8013916015625,0.4007568359375,-299.0,149.0,-150.0,101701.0,-3.126000165939331,0,0
0.05136399999901187,0.375701904296875,-0.45318603515625,0.30859375,-0.74713134765625,0.0,-0.06103515625,0.0,0.4453125,-0.8011474609375,0.3990478515625,-299.0,149.0,-150.0,101701.0,-3.126000165939331,0,0
0.05141919999732636,0.375701904296875,-0.453155517578125,0.308563232421875,-0.74713134765625,0.244140625,0.06103515625,0.18310546875,0.4454345703125,-0.80078125,0.3995361328125,-299.0,149.0,-150.0,101701.0,-3.126000165939331,0,0
0.05147430000943132,0.375701904296875,-0.453155517578125,0.308563232421875,-0.74713134765625,-0.06103515625,-0.06103515625,0.0,0.4456787109375,-0.80224609375,0.401123046875,-299.0,149.0,-150.0,101701.0,-3.126000165939331,0,0
0.051528500000131316,0.375701904296875,-0.453155517578125,0.308563232421875,-0.74713134765625,-0.06103515625,-0.06103515625,0.0,0.4456787109375,-0.80224609375,0.401123046875,-299.0,149.0,-150.0,101701.0,-3.126000165939331,0,0
0.051615999997011386,0.375701904296875,-0.453155517578125,0.308563232421875,-0.747161865234375,-0.1220703125,0.18310546875,0.1220703125,0.44775390625,-0.8026123046875,0.4010009765625,-299.0,149.0,-150.0,101701.0,-3.126000165939331,0,0
0.05168650000996422,0.375701904296875,-0.453155517578125,0.308563232421875,-0.747161865234375,-0.1220703125,0.1220703125,0.06103515625,0.4454345703125,-0.8016357421875,0.4000244140625,-299.0,149.0,-150.0,101701.0,-3.126000165939331,0,0
0.05173940000531729,0.375701904296875,-0.453155517578125,0.308563232421875,-0.747161865234375,0.1220703125,-0.1220703125,-0.42724609375,0.4462890625,-0.8011474609375,0.398681640625,-299.0,149.0,-150.0,101701.0,-3.126000165939331,0,0
0.05179340000904631,0.375701904296875,-0.453155517578125,0.308563232421875,-0.747161865234375,0.1220703125,-0.06103515625,-0.1220703125,0.4459228515625,-0.8009033203125,0.3973388671875,-299.0,149.0,-150.0,101701.0,-3.126000165939331,0,0
0.05184660000668373,0.375701904296875,-0.453155517578125,0.308563232421875,-0.747161865234375,0.0,-0.1220703125,-0.18310546875,0.4453125,-0.8028564453125,0.3997802734375,-299.0,149.0,-150.0,101701.0,-3.126000165939331,0,0
0.05189980000432115,0.375701904296875,-0.453155517578125,0.308563232421875,-0.747161865234375,-0.1220703125,-0.06103515625,-0.18310546875,0.44384765625,-0.8009033203125,0.39990234375,-299.0,149.0,-150.0,101701.0,-3.126000165939331,0,0
0.051951900008134544,0.375701904296875,-0.453155517578125,0.308563232421875,-0.747161865234375,-0.244140625,-0.1220703125,-0.244140625,0.44482421875,-0.80224609375,0.39892578125,-299.0,149.0,-150.0,101701.0,-3.126000165939331,0,0
0.11800000000221189,0.375701904296875,-0.453155517578125,0.30853271484375,-0.747161865234375,0.1220703125,0.0,0.0,0.446044921875,-0.802978515625,0.39892578125,-299.0,149.0,-150.0,101701.0,-3.126000165939331,0,0
0.1180711000051815,0.375701904296875,-0.453155517578125,0.30853271484375,-0.747161865234375,0.1220703125,0.0,0.0,0.446044921875,-0.802978515625,0.39892578125,-298.0,148.0,-151.0,101700.0,-3.125000238418579,0,0
0.1181298000010429,0.37530517578125,-0.4530029296875,0.30877685546875,-0.747344970703125,0.1220703125,0.1220703125,0.18310546875,0.4444580078125,-0.8013916015625,0.3985595703125,-298.0,148.0,-151.0,101700.0,-3.125000238418579,0,0
0.11818580000544898,0.37530517578125,-0.4530029296875,0.30877685546875,-0.74737548828125,0.42724609375,0.18310546875,0.06103515625,0.44775390625,-0.8031005859375,0.39990234375,-298.0,148.0,-151.0,101700.0,-3.125000238418579,0,0
0.11824350000824779,0.37530517578125,-0.452972412109375,0.30877685546875,-0.74737548828125,-0.1220703125,0.1220703125,0.1220703125,0.4449462890625,-0.8004150390625,0.40087890625,-298.0,148.0,-151.0,101700.0,-3.125000238418579,0,0
0.11920980000286363,0.37530517578125,-0.452972412109375,0.30877685546875,-0.74737548828125,-0.244140625,-0.06103515625,-0.06103515625,0.4471435546875,-0.8031005859375,0.3994140625,-298.0,148.0,-151.0,101700.0,-3.125000238418579,0,0
0.11927090000244789,0.37530517578125,-0.4530029296875,0.30877685546875,-0.74737548828125,-0.18310546875,-0.06103515625,-0.18310546875,0.44482421875,-0.8018798828125,0.3990478515625,-298.0,148.0,-151.0,101700.0,-3.125000238418579,0,0
0.11932640000304673,0.37530517578125,-0.4530029296875,0.30877685546875,-0.74737548828125,0.3662109375,0.0,-0.06103515625,0.447509765625,-0.8023681640625,0.3983154296875,-298.0,148.0,-151.0,101700.0,-3.125000238418579,0,0
0.11938090001058299,0.37530517578125,-0.4530029296875,0.30877685546875,-0.74737548828125,0.06103515625,-0.06103515625,-0.18310546875,0.446533203125,-0.8045654296875,0.4017333984375,-298.0,148.0,-151.0,101700.0,-3.125000238418579,0,0
0.11943210000754334,0.37530517578125,-0.4530029296875,0.30877685546875,-0.74737548828125,0.06103515625,-0.06103515625,-0.18310546875,0.446533203125,-0.8045654296875,0.4017333984375,-298.0,148.0,-151.0,101700.0,-3.125000238418579,0,0
0.11948400000983384,0.37530517578125,-0.4530029296875,0.30877685546875,-0.74737548828125,0.244140625,-0.18310546875,-0.18310546875,0.4468994140625,-0.802490234375,0.3992919921875,-298.0,148.0,-151.0,101700.0,-3.125000238418579,0,0
0.17847090000577737,0.37530517578125,-0.4530029296875,0.30877685546875,-0.74737548828125,-0.18310546875,-0.1220703125,0.0,0.4453125,-0.8004150390625,0.3984375,-298.0,148.0,-151.0,101700.0,-3.125000238418579,0,0
0.1785331999999471,0.37530517578125,-0.452972412109375,0.30877685546875,-0.74737548828125,0.1220703125,-0.244140625,0.06103515625,0.44580078125,-0.80322265625,0.3988037109375,-298.0,148.0,-151.0,101700.0,-3.125000238418579,0,0
0.1788966000021901,0.37530517578125,-0.4530029296875,0.30877685546875,-0.74737548828125,0.1220703125,-0.244140625,0.0,0.441650390625,-0.7994384765625,0.399169921875,-298.0,148.0,-151.0,101700.0,-3.125000238418579,0,0
0.17896000000473578,0.37530517578125,-0.452972412109375,0.30877685546875,-0.74737548828125,0.06103515625,0.0,0.18310546875,0.4468994140625,-0.80224609375,0.39892578125,-298.0,148.0,-151.0,101700.0,-3.125000238418579,0,0
0.17909980000695214,0.37530517578125,-0.452972412109375,0.30877685546875,-0.74737548828125,0.06103515625,0.06103515625,-0.18310546875,0.443115234375,-0.802001953125,0.3984375,-298.0,148.0,-151.0,101700.0,-3.125000238418579,0,0
0.17927860000054352,0.37530517578125,-0.452972412109375,0.30877685546875,-0.74737548828125,0.06103515625,0.06103515625,-0.18310546875,0.443115234375,-0.802001953125,0.3984375,-298.0,148.0,-151.0,101700.0,-3.125000238418579,0,0
0.17933590000029653,0.37530517578125,-0.452972412109375,0.30877685546875,-0.74737548828125,-0.06103515625,-0.06103515625,-0.30517578125,0.444091796875,-0.802001953125,0.401611328125,-298.0,148.0,-151.0,101700.0,-3.125000238418579,0,0
0.17939150000165682,0.37530517578125,-0.452972412109375,0.30877685546875,-0.74737548828125,-0.06103515625,0.06103515625,-0.1220703125,0.4456787109375,-0.80029296875,0.4007568359375,-298.0,148.0,-151.0,101700.0,-3.125000238418579,0,0
0.1794454000046244,0.37530517578125,-0.452972412109375,0.30877685546875,-0.74737548828125,-0.1220703125,-0.06103515625,-0.06103515625,0.4437255859375,-0.80126953125,0.3984375,-298.0,148.0,-151.0,101700.0,-3.124000072479248,0,0
0.17949890000454616,0.37530517578125,-0.452972412109375,0.30877685546875,-0.74737548828125,-0.06103515625,0.0,-0.06103515625,0.4429931640625,-0.7994384765625,0.4007568359375,-297.0,149.0,-150.0,101700.0,-3.124000072479248,0,0
0.17955250000522938,0.375213623046875,-0.452911376953125,0.308837890625,-0.7474365234375,-0.244140625,0.0,-0.1220703125,0.44384765625,-0.8043212890625,0.4000244140625,-297.0,149.0,-150.0,101700.0,-3.124000072479248,0,0
0.24182830000063404,0.375213623046875,-0.452911376953125,0.308837890625,-0.747406005859375,0.0,-0.3662109375,-0.42724609375,0.4437255859375,-0.80224609375,0.39697265625,-297.0,149.0,-150.0,101700.0,-3.124000072479248,0,0
0.24189109999861103,0.375213623046875,-0.452911376953125,0.308837890625,-0.7474365234375,0.06103515625,0.0,-0.30517578125,0.445556640625,-0.798828125,0.3985595703125,-297.0,149.0,-150.0,101700.0,-3.124000072479248,0,0
0.24194819999684114,0.375213623046875,-0.45294189453125,0.308837890625,-0.7474365234375,-0.18310546875,-0.18310546875,-0.1220703125,0.4468994140625,-0.7994384765625,0.3978271484375,-297.0,149.0,-150.0,101700.0,-3.124000072479248,0,0
0.24200280000513885,0.375213623046875,-0.45294189453125,0.308837890625,-0.7474365234375,-0.18310546875,-0.06103515625,-0.06103515625,0.4451904296875,-0.7994384765625,0.398681640625,-297.0,149.0,-150.0,101700.0,-3.124000072479248,0,0
0.24205739999888465,0.375213623046875,-0.45294189453125,0.308837890625,-0.7474365234375,-0.18310546875,-0.06103515625,-0.06103515625,0.4451904296875,-0.7994384765625,0.398681640625,-297.0,149.0,-150.0,101700.0,-3.124000072479248,0,0
0.24211040000955109,0.375213623046875,-0.45294189453125,0.308837890625,-0.7474365234375,-0.30517578125,0.18310546875,0.1220703125,0.445556640625,-0.8013916015625,0.3997802734375,-297.0,149.0,-150.0,101700.0,-3.124000072479248,0,0
0.2421641999972053,0.375213623046875,-0.45294189453125,0.308837890625,-0.7474365234375,-0.06103515625,0.0,0.18310546875,0.4454345703125,-0.8028564453125,0.3983154296875,-297.0,149.0,-150.0,101700.0,-3.124000072479248,0,0
0.24240410000493284,0.375213623046875,-0.45294189453125,0.308837890625,-0.7474365234375,0.0,0.1220703125,0.06103515625,0.4439697265625,-0.802490234375,0.3995361328125,-297.0,149.0,-150.0,101700.0,-3.124000072479248,0,0
0.242455700004939,0.375213623046875,-0.45294189453125,0.308837890625,-0.7474365234375,-0.1220703125,0.18310546875,-0.18310546875,0.4478759765625,-0.8018798828125,0.3988037109375,-297.0,149.0,-150.0,101700.0,-3.124000072479248,0,0
0.24250980000942945,0.375213623046875,-0.45294189453125,0.308837890625,-0.7474365234375,0.0,-0.06103515625,-0.06103515625,0.4442138671875,-0.799560546875,0.3973388671875,-297.0,149.0,-150.0,101700.0,-3.124000072479248,0,0
0.24256189999869093,0.375213623046875,-0.45294189453125,0.308837890625,-0.747406005859375,0.18310546875,-0.18310546875,-0.42724609375,0.44482421875,-0.8026123046875,0.3983154296875,-297.0,149.0,-150.0,101700.0,-3.124000072479248,0,0
0.24261510001088027,0.375213623046875,-0.45294189453125,0.308837890625,-0.747406005859375,0.244140625,-0.1220703125,0.244140625,0.445556640625,-0.8043212890625,0.3984375,-297.0,149.0,-150.0,101700.0,-3.124000072479248,0,0
0.24266699999861885,0.375213623046875,-0.45294189453125,0.308837890625,-0.747406005859375,0.0,-0.244140625,-0.1220703125,0.447998046875,-0.802978515625,0.3988037109375,-297.0,149.0,-150.0,101700.0,-3.124000072479248,0,0
0.31014450000657234,0.375213623046875,-0.452911376953125,0.308837890625,-0.747406005859375,-0.18310546875,-0.1220703125,-0.244140625,0.4439697265625,-0.8028564453125,0.400634765625,-297.0,149.0,-150.0,101700.0,-3.124000072479248,0,0
0.3102081000106409,0.375213623046875,-0.452911376953125,0.308837890625,-0.747406005859375,0.0,-0.1220703125,-0.1220703125,0.4459228515625,-0.8040771484375,0.398193359375,-297.0,149.0,-150.0,101700.0,-3.124000072479248,0,0
0.3102623000013409,0.375213623046875,-0.452911376953125,0.308837890625,-0.747406005859375,-0.244140625,-0.06103515625,-0.3662109375,0.4466552734375,-0.7979736328125,0.3990478515625,-297.0,149.0,-150.0,101700.0,-3.124000072479248,0,0
0.3103172999981325,0.375213623046875,-0.45294189453125,0.308837890625,-0.747406005859375,-0.244140625,-0.06103515625,-0.3662109375,0.4466552734375,-0.7979736328125,0.3990478515625,-296.0,150.0,-150.0,101701.0,-3.125000238418579,0,0
0.31037240001023747,0.375,-0.452850341796875,0.3089599609375,-0.747528076171875,0.18310546875,-0.1220703125,-0.1220703125,0.4461669921875,-0.79931640625,0.3968505859375,-296.0,150.0,-150.0,101701.0,-3.125000238418579,0,0
0.31044280000787694,0.375,-0.452850341796875,0.3089599609375,-0.747528076171875,0.0,0.18310546875,0.0,0.4462890625,-0.798828125,0.3983154296875,-296.0,150.0,-150.0,101701.0,-3.125000238418579,0,0
0.31049640000856016,0.375,-0.452850341796875,0.3089599609375,-0.747528076171875,0.06103515625,-0.06103515625,-0.06103515625,0.445556640625,-0.7998046875,0.3988037109375,-296.0,150.0,-150.0,101701.0,-3.125000238418579,0,0
0.31054970000695903,0.375,-0.452850341796875,0.3089599609375,-0.747528076171875,0.18310546875,0.0,0.1220703125,0.446533203125,-0.802490234375,0.400146484375,-296.0,150.0,-150.0,101701.0,-3.125000238418579,0,0
0.3106039999984205,0.375,-0.452850341796875,0.3089599609375,-0.747528076171875,0.18310546875,0.0,0.1220703125,0.446533203125,-0.802490234375,0.400146484375,-296.0,150.0,-150.0,101701.0,-3.125000238418579,0,0
0.310656800007564,0.375,-0.452850341796875,0.3089599609375,-0.747528076171875,0.18310546875,0.3662109375,0.18310546875,0.441650390625,-0.8028564453125,0.3992919921875,-296.0,150.0,-150.0,101701.0,-3.125000238418579,0,0
0.31071170000359416,0.375,-0.452850341796875,0.3089599609375,-0.74749755859375,-0.244140625,-0.06103515625,0.18310546875,0.4454345703125,-0.804443359375,0.399169921875,-296.0,150.0,-150.0,101701.0,-3.125000238418579,0,0
0.3700126000039745,0.375,-0.452850341796875,0.308990478515625,-0.74749755859375,0.30517578125,0.18310546875,-0.30517578125,0.4449462890625,-0.8017578125,0.3955078125,-296.0,150.0,-150.0,101701.0,-3.125000238418579,0,0
0.3700728999974672,0.375,-0.452850341796875,0.308990478515625,-0.74749755859375,0.06103515625,-0.18310546875,0.0,0.446533203125,-0.802734375,0.3983154296875,-296.0,150.0,-150.0,101701.0,-3.125000238418579,0,0
0.370127300004242,0.375,-0.452850341796875,0.308990478515625,-0.74749755859375,-0.06103515625,-0.1220703125,0.0,0.44482421875,-0.8023681640625,0.3975830078125,-296.0,150.0,-150.0,101701.0,-3.125000238418579,0,0
0.37018220000027213,0.375,-0.452850341796875,0.308990478515625,-0.74749755859375,0.06103515625,-0.06103515625,-0.30517578125,0.445068359375,-0.8006591796875,0.39794921875,-296.0,150.0,-150.0,101701.0,-3.125000238418579,0,0
0.370234400004847,0.375,-0.452850341796875,0.308990478515625,-0.74749755859375,0.06103515625,-0.06103515625,-0.30517578125,0.445068359375,-0.8006591796875,0.39794921875,-296.0,150.0,-150.0,101701.0,-3.125000238418579,0,0
0.3703008000011323,0.375,-0.452850341796875,0.3089599609375,-0.74749755859375,0.244140625,-0.1220703125,-0.1220703125,0.44775390625,-0.798583984375,0.4017333984375,-296.0,150.0,-150.0,101701.0,-3.125000238418579,0,0
0.3703546000033384,0.375,-0.452880859375,0.3089599609375,-0.74749755859375,0.1220703125,0.1220703125,0.06103515625,0.4462890625,-0.801513671875,0.3980712890625,-296.0,150.0,-150.0,101701.0,-3.125000238418579,0,0
0.37043970001104753,0.375,-0.452850341796875,0.3089599609375,-0.74749755859375,0.244140625,0.0,0.06103515625,0.4459228515625,-0.80078125,0.398681640625,-296.0,150.0,-150.0,101701.0,-3.125000238418579,0,0
0.37049230000411626,0.375,-0.452850341796875,0.3089599609375,-0.74749755859375,-0.244140625,-0.1220703125,-0.18310546875,0.4439697265625,-0.800048828125,0.3988037109375,-296.0,150.0,-150.0,101701.0,-3.125000238418579,0,0
0.37054519999946933,0.375,-0.452880859375,0.308990478515625,-0.74749755859375,0.0,-0.06103515625,-0.06103515625,0.4434814453125,-0.80126953125,0.3966064453125,-296.0,150.0,-150.0,101701.0,-3.125000238418579,0,0
0.3705970000009984,0.375,-0.452880859375,0.308990478515625,-0.74749755859375,0.1220703125,-0.1220703125,-0.3662109375,0.4449462890625,-0.80078125,0.3974609375,-295.0,152.0,-149.0,101701.0,-3.126000165939331,0,0
0.4363164000096731,0.375,-0.452880859375,0.308990478515625,-0.74749755859375,0.0,-0.06103515625,0.0,0.4454345703125,-0.801513671875,0.399169921875,-295.0,152.0,-149.0,101701.0,-3.126000165939331,0,0
0.43638140000985004,0.374908447265625,-0.45281982421875,0.309051513671875,-0.74755859375,0.30517578125,0.1220703125,-0.244140625,0.4449462890625,-0.8013916015625,0.3992919921875,-295.0,152.0,-149.0,101701.0,-3.126000165939331,0,0
0.43643870000960305,0.374908447265625,-0.45281982421875,0.309051513671875,-0.74755859375,0.06103515625,-0.18310546875,0.1220703125,0.4464111328125,-0.8033447265625,0.3975830078125,-295.0,152.0,-149.0,101701.0,-3.126000165939331,0,0
0.4364946999994572,0.374908447265625,-0.45281982421875,0.309051513671875,-0.74755859375,0.06103515625,-0.18310546875,0.1220703125,0.4464111328125,-0.8033447265625,0.3975830078125,-295.0,152.0,-149.0,101701.0,-3.126000165939331,0,0
0.4365523000014946,0.374908447265625,-0.452850341796875,0.309051513671875,-0.747528076171875,0.1220703125,-0.06103515625,-0.06103515625,0.4462890625,-0.801025390625,0.3975830078125,-295.0,152.0,-149.0,101701.0,-3.126000165939331,0,0
0.4366071000113152,0.374908447265625,-0.452850341796875,0.309051513671875,-0.747528076171875,-0.18310546875,-0.3662109375,-0.1220703125,0.445068359375,-0.8023681640625,0.3968505859375,-295.0,152.0,-149.0,101701.0,-3.126000165939331,0,0
0.43666040000971407,0.374908447265625,-0.452850341796875,0.309051513671875,-0.747528076171875,0.3662109375,0.0,-0.18310546875,0.445068359375,-0.80126953125,0.3984375,-295.0,152.0,-149.0,101701.0,-3.126000165939331,0,0
0.43762550000974443,0.374908447265625,-0.452850341796875,0.309051513671875,-0.747528076171875,-0.18310546875,-0.06103515625,0.06103515625,0.4439697265625,-0.8009033203125,0.396484375,-295.0,152.0,-149.0,101701.0,-3.126000165939331,0,0
0.4376849999971455,0.374908447265625,-0.452850341796875,0.309051513671875,-0.747528076171875,0.1220703125,-0.244140625,0.0,0.445556640625,-0.7991943359375,0.39697265625,-295.0,152.0,-149.0,101701.0,-3.126000165939331,0,0
0.43773869999859016,0.3748779296875,-0.452850341796875,0.309051513671875,-0.747528076171875,0.0,-0.30517578125,-0.244140625,0.4478759765625,-0.80029296875,0.3994140625,-295.0,152.0,-149.0,101701.0,-3.126000165939331,0,0
0.4377925000007963,0.374908447265625,-0.452850341796875,0.309051513671875,-0.747528076171875,-0.244140625,-0.06103515625,0.06103515625,0.443359375,-0.802001953125,0.399169921875,-295.0,152.0,-149.0,101701.0,-3.126000165939331,0,0
0.4378454999969108,0.374908447265625,-0.452850341796875,0.309051513671875,-0.747528076171875,0.06103515625,-0.30517578125,0.244140625,0.4449462890625,-0.8013916015625,0.3984375,-295.0,152.0,-149.0,101701.0,-3.126000165939331,0,0
0.4378970000107074,0.374908447265625,-0.452850341796875,0.309051513671875,-0.747528076171875,0.06103515625,-0.30517578125,0.244140625,0.4449462890625,-0.8013916015625,0.3984375,-295.0,152.0,-149.0,101701.0,-3.126000165939331,0,0
0.5012529000086943,0.3748779296875,-0.452850341796875,0.30908203125,-0.747528076171875,0.0,0.0,-0.244140625,0.4449462890625,-0.8006591796875,0.3988037109375,-295.0,152.0,-149.0,101701.0,-3.126000165939331,0,0
0.5013250000047265,0.374908447265625,-0.452850341796875,0.30908203125,-0.747528076171875,0.18310546875,-0.06103515625,0.0,0.4449462890625,-0.802001953125,0.3983154296875,-295.0,152.0,-149.0,101701.0,-3.126000165939331,0,0
0.5072768000100041,0.374786376953125,-0.45281982421875,0.30914306640625,-0.74755859375,0.244140625,-0.06103515625,-0.06103515625,0.4453125,-0.8013916015625,0.39794921875,-294.0,152.0,-150.0,101701.0,-3.126000165939331,0,0
0.5073489000060363,0.374786376953125,-0.452850341796875,0.309173583984375,-0.74755859375,0.06103515625,-0.18310546875,0.06103515625,0.445556640625,-0.8040771484375,0.39794921875,-294.0,152.0,-150.0,101701.0,-3.126000165939331,0,0
0.5074082000064664,0.374786376953125,-0.452850341796875,0.309173583984375,-0.74755859375,-0.06103515625,-0.06103515625,-0.1220703125,0.4449462890625,-0.8016357421875,0.3958740234375,-294.0,152.0,-150.0,101701.0,-3.126000165939331,0,0
0.5074648000008892,0.374786376953125,-0.452850341796875,0.309173583984375,-0.74755859375,0.30517578125,0.06103515625,-0.06103515625,0.4442138671875,-0.7994384765625,0.3955078125,-294.0,152.0,-150.0,101701.0,-3.126000165939331,0,0
0.5650202999968315,0.374786376953125,-0.452850341796875,0.309173583984375,-0.74755859375,0.06103515625,0.06103515625,-0.1220703125,0.445068359375,-0.800537109375,0.3985595703125,-294.0,152.0,-150.0,101701.0,-3.126000165939331,0,0
0.5650954000011552,0.374786376953125,-0.452850341796875,0.309173583984375,-0.74755859375,0.18310546875,0.0,0.06103515625,0.4451904296875,-0.8018798828125,0.39697265625,-294.0,152.0,-150.0,101701.0,-3.126000165939331,0,0
0.5651532000047155,0.374786376953125,-0.452850341796875,0.309173583984375,-0.747528076171875,0.18310546875,0.0,0.06103515625,0.4451904296875,-0.8018798828125,0.39697265625,-294.0,152.0,-150.0,101701.0,-3.126000165939331,0,0
0.5652095999976154,0.374786376953125,-0.452850341796875,0.309173583984375,-0.747528076171875,0.18310546875,0.0,0.06103515625,0.4451904296875,-0.8018798828125,0.39697265625,-294.0,152.0,-150.0,101701.0,-3.126000165939331,0,0
0.5652650999982143,0.374786376953125,-0.452850341796875,0.309173583984375,-0.747528076171875,-0.1220703125,-0.06103515625,0.06103515625,0.44482421875,-0.80224609375,0.3973388671875,-294.0,152.0,-150.0,101701.0,-3.126000165939331,0,0
0.5653351000073599,0.374786376953125,-0.452850341796875,0.309173583984375,-0.747528076171875,0.0,-0.18310546875,-0.18310546875,0.44580078125,-0.8006591796875,0.3970947265625,-294.0,152.0,-150.0,101701.0,-3.126000165939331,0,0
0.5653883000049973,0.374786376953125,-0.452880859375,0.309173583984375,-0.747528076171875,0.1220703125,0.0,-0.1220703125,0.4476318359375,-0.8031005859375,0.3966064453125,-294.0,152.0,-150.0,101701.0,-3.126000165939331,0,0
0.5654418000049191,0.374786376953125,-0.452880859375,0.309173583984375,-0.747528076171875,-0.18310546875,0.0,-0.18310546875,0.446044921875,-0.8046875,0.3980712890625,-294.0,152.0,-150.0,101701.0,-3.126000165939331,0,0
0.5654934000049252,0.374786376953125,-0.452880859375,0.309173583984375,-0.747528076171875,0.06103515625,-0.244140625,-0.244140625,0.44482421875,-0.8013916015625,0.4000244140625,-294.0,152.0,-150.0,101701.0,-3.126000165939331,0,0
0.5655450000049314,0.374786376953125,-0.452850341796875,0.309173583984375,-0.747528076171875,-0.06103515625,-0.06103515625,-0.244140625,0.4442138671875,-0.8028564453125,0.3984375,-294.0,152.0,-150.0,101701.0,-3.126000165939331,0,0
0.565596700005699,0.374786376953125,-0.452880859375,0.3092041015625,-0.747528076171875,0.06103515625,-0.18310546875,-0.06103515625,0.4429931640625,-0.80029296875,0.3984375,-294.0,152.0,-150.0,101701.0,-3.126000165939331,0,0
0.6272106999967946,0.374786376953125,-0.452880859375,0.3092041015625,-0.747528076171875,0.0,-0.06103515625,-0.06103515625,0.4464111328125,-0.8021240234375,0.39599609375,-294.0,152.0,-150.0,101701.0,-3.126000165939331,0,0
0.6272911999985809,0.374786376953125,-0.452880859375,0.3092041015625,-0.747528076171875,0.244140625,-0.1220703125,-0.1220703125,0.444580078125,-0.8009033203125,0.397216796875,-294.0,151.0,-150.0,101701.0,-3.126000165939331,0,0
0.6273504999990109,0.374786376953125,-0.452880859375,0.3092041015625,-0.747528076171875,0.244140625,-0.1220703125,-0.1220703125,0.444580078125,-0.8009033203125,0.397216796875,-294.0,151.0,-150.0,101701.0,-3.126000165939331,0,0
0.6274100000009639,0.374664306640625,-0.45281982421875,0.30926513671875,-0.74755859375,-0.06103515625,-0.18310546875,-0.06103515625,0.4447021484375,-0.802490234375,0.3974609375,-294.0,151.0,-150.0,101701.0,-3.126000165939331,0,0
0.6274694000021555,0.374664306640625,-0.452850341796875,0.30926513671875,-0.74755859375,0.244140625,-0.18310546875,-0.18310546875,0.447509765625,-0.8013916015625,0.3980712890625,-294.0,151.0,-150.0,101701.0,-3.126000165939331,0,0
0.6275258000096073,0.374664306640625,-0.452850341796875,0.309234619140625,-0.74755859375,-0.06103515625,0.1220703125,0.06103515625,0.4462890625,-0.7999267578125,0.3974609375,-294.0,151.0,-150.0,101701.0,-3.126000165939331,0,0
0.6275792000087677,0.374664306640625,-0.452850341796875,0.30926513671875,-0.74755859375,0.18310546875,-0.06103515625,-0.1220703125,0.445556640625,-0.804443359375,0.3951416015625,-294.0,151.0,-150.0,101701.0,-3.126000165939331,0,0
0.6276951000036206,0.374664306640625,-0.452850341796875,0.30926513671875,-0.74755859375,0.244140625,0.18310546875,-0.18310546875,0.4454345703125,-0.8009033203125,0.3953857421875,-294.0,151.0,-150.0,101701.0,-3.126000165939331,0,0
0.6277517999988049,0.374664306640625,-0.452850341796875,0.30926513671875,-0.74755859375,0.18310546875,-0.18310546875,-0.3662109375,0.4451904296875,-0.801025390625,0.3975830078125,-294.0,151.0,-150.0,101701.0,-3.126000165939331,0,0
0.6278072999994038,0.374664306640625,-0.452850341796875,0.30926513671875,-0.74755859375,0.1220703125,-0.1220703125,-0.1220703125,0.445556640625,-0.8011474609375,0.3978271484375,-294.0,151.0,-150.0,101701.0,-3.126000165939331,0,0
0.6278610000008484,0.374664306640625,-0.452880859375,0.30926513671875,-0.74755859375,-0.244140625,-0.06103515625,0.06103515625,0.447265625,-0.8026123046875,0.396484375,-294.0,151.0,-150.0,101701.0,-3.126000165939331,0,0
0.6279152000061003,0.374664306640625,-0.452880859375,0.30926513671875,-0.74755859375,-0.244140625,-0.06103515625,0.06103515625,0.447265625,-0.8026123046875,0.396484375,-294.0,151.0,-150.0,101701.0,-3.126000165939331,0,0
0.6279685000044992,0.374664306640625,-0.452880859375,0.30926513671875,-0.74755859375,0.0,-0.1220703125,-0.1220703125,0.4453125,-0.8018798828125,0.3994140625,-294.0,151.0,-150.0,101700.0,-3.123000144958496,0,0
0.6922791000106372,0.3746337890625,-0.452880859375,0.30926513671875,-0.74755859375,0.30517578125,-0.06103515625,-0.06103515625,0.447021484375,-0.8021240234375,0.397216796875,-294.0,151.0,-150.0,101700.0,-3.123000144958496,0,0
0.6923447000008309,0.3746337890625,-0.452880859375,0.30926513671875,-0.74755859375,-0.1220703125,-0.06103515625,-0.1220703125,0.447265625,-0.799072265625,0.3975830078125,-294.0,151.0,-150.0,101700.0,-3.123000144958496,0,0
0.6924033000104828,0.3746337890625,-0.452911376953125,0.30926513671875,-0.74755859375,-0.1220703125,-0.30517578125,-0.18310546875,0.4482421875,-0.803466796875,0.3970947265625,-294.0,151.0,-150.0,101700.0,-3.123000144958496,0,0
0.6924609999987297,0.3746337890625,-0.452911376953125,0.30926513671875,-0.74755859375,0.06103515625,0.0,-0.1220703125,0.4473876953125,-0.801025390625,0.3968505859375,-294.0,151.0,-150.0,101700.0,-3.123000144958496,0,0
0.6925185000000056,0.3746337890625,-0.452911376953125,0.30926513671875,-0.74755859375,-0.06103515625,0.1220703125,0.06103515625,0.4454345703125,-0.802734375,0.3980712890625,-294.0,151.0,-150.0,101700.0,-3.123000144958496,0,0
0.6925970000011148,0.3746337890625,-0.452911376953125,0.30926513671875,-0.74755859375,-0.06103515625,0.1220703125,0.06103515625,0.4454345703125,-0.802734375,0.3980712890625,-294.0,151.0,-150.0,101700.0,-3.123000144958496,0,0
0.692653899997822,0.3746337890625,-0.452911376953125,0.30926513671875,-0.747528076171875,0.244140625,0.18310546875,0.18310546875,0.4443359375,-0.802734375,0.397216796875,-294.0,151.0,-150.0,101700.0,-3.123000144958496,0,0
0.6927548000094248,0.3746337890625,-0.452911376953125,0.30926513671875,-0.747528076171875,0.244140625,0.18310546875,0.18310546875,0.4443359375,-0.802734375,0.397216796875,-294.0,152.0,-151.0,101700.0,-3.123000144958496,0,0
0.6928104999969946,0.37432861328125,-0.452789306640625,0.309478759765625,-0.7476806640625,0.06103515625,-0.06103515625,-0.06103515625,0.4449462890625,-0.8037109375,0.3990478515625,-294.0,152.0,-151.0,101700.0,-3.123000144958496,0,0
0.6928664000006393,0.37432861328125,-0.452789306640625,0.309478759765625,-0.7476806640625,-0.18310546875,-0.1220703125,0.0,0.44287109375,-0.8026123046875,0.3973388671875,-294.0,152.0,-151.0,101700.0,-3.123000144958496,0,0
0.6929214999981923,0.37432861328125,-0.452789306640625,0.309478759765625,-0.7476806640625,-0.1220703125,0.0,-0.06103515625,0.4442138671875,-0.802001953125,0.396484375,-294.0,152.0,-151.0,101700.0,-3.123000144958496,0,0
0.7528923000063514,0.37432861328125,-0.452789306640625,0.309478759765625,-0.7476806640625,0.06103515625,0.0,-0.244140625,0.4453125,-0.8009033203125,0.3973388671875,-294.0,152.0,-151.0,101700.0,-3.123000144958496,0,0
0.7529611000063596,0.37432861328125,-0.45281982421875,0.309478759765625,-0.7476806640625,0.18310546875,0.0,0.0,0.4456787109375,-0.80419921875,0.3961181640625,-294.0,152.0,-151.0,101700.0,-3.123000144958496,0,0
0.7530225000082282,0.37432861328125,-0.45281982421875,0.309478759765625,-0.7476806640625,0.18310546875,0.0,0.0,0.4456787109375,-0.80419921875,0.3961181640625,-294.0,152.0,-151.0,101700.0,-3.123000144958496,0,0
0.7536897000099998,0.37432861328125,-0.45281982421875,0.309478759765625,-0.7476806640625,-0.244140625,-0.1220703125,-0.18310546875,0.44580078125,-0.8018798828125,0.3966064453125,-294.0,152.0,-151.0,101700.0,-3.123000144958496,0,0
0.7537665999989258,0.37432861328125,-0.45281982421875,0.309478759765625,-0.7476806640625,-0.18310546875,-0.1220703125,-0.06103515625,0.447998046875,-0.8021240234375,0.3980712890625,-294.0,152.0,-151.0,101701.0,-3.126000165939331,0,0
0.7622250999993412,0.37432861328125,-0.45281982421875,0.309478759765625,-0.747650146484375,0.18310546875,-0.1220703125,-0.18310546875,0.4461669921875,-0.802001953125,0.398193359375,-294.0,152.0,-151.0,101701.0,-3.126000165939331,0,0
0.7622877000103472,0.37432861328125,-0.45281982421875,0.309478759765625,-0.747650146484375,-0.06103515625,-0.18310546875,-0.06103515625,0.4454345703125,-0.8013916015625,0.3963623046875,-294.0,152.0,-151.0,101701.0,-3.126000165939331,0,0
0.762446100008674,0.37432861328125,-0.45281982421875,0.309478759765625,-0.747650146484375,-0.06103515625,-0.06103515625,-0.3662109375,0.4466552734375,-0.8017578125,0.3978271484375,-294.0,152.0,-151.0,101701.0,-3.126000165939331,0,0
0.7625096999981906,0.37432861328125,-0.45281982421875,0.309478759765625,-0.747650146484375,0.0,-0.1220703125,0.06103515625,0.444091796875,-0.80126953125,0.3978271484375,-294.0,152.0,-151.0,101701.0,-3.126000165939331,0,0
0.7625703000085196,0.37432861328125,-0.45281982421875,0.309478759765625,-0.747650146484375,-0.244140625,-0.244140625,-0.244140625,0.445068359375,-0.7999267578125,0.3970947265625,-294.0,152.0,-151.0,101701.0,-3.126000165939331,0,0
0.7669753000081982,0.37432861328125,-0.452850341796875,0.309478759765625,-0.747650146484375,0.244140625,-0.18310546875,-0.06103515625,0.4451904296875,-0.8021240234375,0.3974609375,-294.0,152.0,-151.0,101701.0,-3.126000165939331,0,0
0.7670469000004232,0.37432861328125,-0.452850341796875,0.309478759765625,-0.747650146484375,0.244140625,-0.18310546875,-0.06103515625,0.4451904296875,-0.8021240234375,0.3974609375,-294.0,152.0,-151.0,101701.0,-3.126000165939331,0,0
0.8182078000099864,0.374298095703125,-0.452850341796875,0.309478759765625,-0.747650146484375,0.0,-0.06103515625,0.06103515625,0.4453125,-0.8016357421875,0.39599609375,-294.0,152.0,-151.0,101701.0,-3.126000165939331,0,0
0.8182697000011103,0.374298095703125,-0.452850341796875,0.309478759765625,-0.747650146484375,-0.1220703125,-0.1220703125,-0.18310546875,0.4464111328125,-0.80126953125,0.3974609375,-294.0,152.0,-151.0,101701.0,-3.126000165939331,0,0
0.8183254000032321,0.374298095703125,-0.452850341796875,0.309478759765625,-0.747650146484375,0.0,0.06103515625,-0.06103515625,0.4447021484375,-0.80126953125,0.39794921875,-294.0,152.0,-151.0,101701.0,-3.126000165939331,0,0
0.8183800999977393,0.373992919921875,-0.45269775390625,0.309661865234375,-0.747802734375,0.1220703125,0.0,-0.06103515625,0.4449462890625,-0.7998046875,0.3988037109375,-294.0,152.0,-151.0,101701.0,-3.126000165939331,0,0
0.8184376999997767,0.373992919921875,-0.452728271484375,0.309661865234375,-0.747802734375,-0.06103515625,-0.1220703125,-0.06103515625,0.445556640625,-0.8018798828125,0.3980712890625,-294.0,152.0,-151.0,101701.0,-3.126000165939331,0,0
0.8184948999987682,0.373992919921875,-0.45269775390625,0.309661865234375,-0.747802734375,0.0,-0.18310546875,-0.18310546875,0.4454345703125,-0.80224609375,0.3988037109375,-294.0,152.0,-151.0,101701.0,-3.126000165939331,0,0
0.8185621000011452,0.373992919921875,-0.452728271484375,0.309661865234375,-0.747802734375,0.1220703125,0.0,0.1220703125,0.44482421875,-0.801025390625,0.396240234375,-294.0,152.0,-151.0,101701.0,-3.126000165939331,0,0
0.8186145000072429,0.373992919921875,-0.452728271484375,0.309661865234375,-0.747802734375,-0.244140625,0.0,0.1220703125,0.4453125,-0.800537109375,0.3975830078125,-294.0,152.0,-151.0,101701.0,-3.126000165939331,0,0
0.8186666000110563,0.373992919921875,-0.452728271484375,0.309661865234375,-0.747802734375,-0.18310546875,-0.06103515625,0.0,0.4453125,-0.8023681640625,0.3984375,-294.0,152.0,-151.0,101701.0,-3.126000165939331,0,0
0.8187177000072552,0.373992919921875,-0.452728271484375,0.309661865234375,-0.747802734375,-0.18310546875,-0.06103515625,0.0,0.4453125,-0.8023681640625,0.3984375,-294.0,152.0,-151.0,101701.0,-3.126000165939331,0,0
0.8188086000009207,0.373992919921875,-0.452728271484375,0.309661865234375,-0.747802734375,0.244140625,-0.1220703125,-0.1220703125,0.44580078125,-0.8023681640625,0.3975830078125,-294.0,152.0,-151.0,101701.0,-3.126000165939331,0,0
0.8188608000054955,0.373992919921875,-0.452728271484375,0.309661865234375,-0.747802734375,0.06103515625,-0.3662109375,0.0,0.4447021484375,-0.8013916015625,0.3980712890625,-294.0,152.0,-151.0,101701.0,-3.126000165939331,0,0
0.8840857000031974,0.373992919921875,-0.452728271484375,0.309661865234375,-0.747802734375,0.0,-0.18310546875,-0.244140625,0.4449462890625,-0.801513671875,0.3995361328125,-294.0,152.0,-151.0,101700.0,-3.124000072479248,0,0
0.8841497000103118,0.373992919921875,-0.452728271484375,0.309661865234375,-0.747802734375,-0.1220703125,-0.1220703125,0.06103515625,0.44677734375,-0.8035888671875,0.3973388671875,-294.0,152.0,-151.0,101700.0,-3.124000072479248,0,0
0.884207700000843,0.373992919921875,-0.452728271484375,0.309661865234375,-0.747802734375,0.18310546875,0.0,-0.06103515625,0.447509765625,-0.80126953125,0.3984375,-294.0,152.0,-151.0,101700.0,-3.124000072479248,0,0
0.8842628999991575,0.373992919921875,-0.452728271484375,0.309661865234375,-0.747802734375,0.06103515625,0.0,-0.18310546875,0.4451904296875,-0.7994384765625,0.3973388671875,-294.0,152.0,-151.0,101700.0,-3.124000072479248,0,0
0.8843177000089781,0.373992919921875,-0.452728271484375,0.309661865234375,-0.747802734375,0.06103515625,0.0,-0.18310546875,0.4451904296875,-0.7994384765625,0.3973388671875,-294.0,152.0,-151.0,101700.0,-3.124000072479248,0,0
0.8843826000083936,0.373992919921875,-0.452728271484375,0.309661865234375,-0.747802734375,-0.1220703125,0.0,0.244140625,0.44482421875,-0.8013916015625,0.3963623046875,-294.0,152.0,-151.0,101700.0,-3.124000072479248,0,0
0.884436000007554,0.373992919921875,-0.452728271484375,0.309661865234375,-0.747802734375,-0.06103515625,-0.06103515625,0.1220703125,0.4449462890625,-0.8026123046875,0.39794921875,-294.0,152.0,-151.0,101700.0,-3.124000072479248,0,0
0.8845242000097642,0.373992919921875,-0.452728271484375,0.309661865234375,-0.747802734375,0.18310546875,-0.06103515625,0.06103515625,0.445068359375,-0.80224609375,0.399169921875,-294.0,152.0,-151.0,101700.0,-3.124000072479248,0,0
0.8845765000005485,0.373992919921875,-0.452728271484375,0.309661865234375,-0.747802734375,0.18310546875,-0.06103515625,0.06103515625,0.445068359375,-0.80224609375,0.399169921875,-294.0,152.0,-151.0,101700.0,-3.124000072479248,0,0
0.8846298999997089,0.373992919921875,-0.452728271484375,0.309661865234375,-0.747802734375,-0.1220703125,-0.1220703125,0.1220703125,0.4459228515625,-0.802490234375,0.3975830078125,-294.0,151.0,-149.0,101700.0,-3.124000072479248,0,0
0.884681499999715,0.373992919921875,-0.452728271484375,0.309661865234375,-0.747802734375,0.244140625,0.06103515625,0.0,0.4471435546875,-0.8026123046875,0.3974609375,-294.0,151.0,-149.0,101700.0,-3.124000072479248,0,0
0.884733500002767,0.373992919921875,-0.452728271484375,0.309661865234375,-0.747802734375,-0.1220703125,-0.1220703125,-0.06103515625,0.4443359375,-0.8028564453125,0.3994140625,-294.0,151.0,-149.0,101700.0,-3.124000072479248,0,0
0.9421387000038521,0.373992919921875,-0.452728271484375,0.3096923828125,-0.747802734375,0.3662109375,0.06103515625,0.06103515625,0.4456787109375,-0.802978515625,0.3975830078125,-294.0,151.0,-149.0,101700.0,-3.124000072479248,0,0
0.9422008000110509,0.373992919921875,-0.452728271484375,0.3096923828125,-0.747802734375,0.1220703125,-0.1220703125,-0.30517578125,0.443115234375,-0.800048828125,0.396484375,-294.0,151.0,-149.0,101700.0,-3.124000072479248,0,0
0.942257000002428,0.373992919921875,-0.452728271484375,0.3096923828125,-0.747772216796875,0.244140625,0.0,-0.30517578125,0.4451904296875,-0.8013916015625,0.39697265625,-294.0,151.0,-149.0,101700.0,-3.124000072479248,0,0
0.9423103000008268,0.373992919921875,-0.4527587890625,0.3096923828125,-0.747772216796875,0.30517578125,0.0,-0.18310546875,0.4451904296875,-0.80126953125,0.3946533203125,-294.0,151.0,-149.0,101700.0,-3.124000072479248,0,0
0.9581709000049159,0.373992919921875,-0.4527587890625,0.3096923828125,-0.747772216796875,0.30517578125,-0.06103515625,-0.06103515625,0.4443359375,-0.800537109375,0.3946533203125,-294.0,151.0,-149.0,101700.0,-3.123000144958496,0,0
0.9582360000058543,0.373992919921875,-0.4527587890625,0.3096923828125,-0.747772216796875,-0.06103515625,-0.1220703125,0.1220703125,0.44580078125,-0.7982177734375,0.396728515625,-294.0,151.0,-149.0,101700.0,-3.123000144958496,0,0
0.9582905999996001,0.373992919921875,-0.4527587890625,0.3096923828125,-0.747772216796875,0.1220703125,-0.06103515625,0.0,0.445068359375,-0.801025390625,0.397216796875,-294.0,151.0,-149.0,101700.0,-3.123000144958496,0,0
0.9583455000101821,0.373992919921875,-0.4527587890625,0.3096923828125,-0.747772216796875,0.18310546875,0.0,0.0,0.44580078125,-0.8011474609375,0.3956298828125,-294.0,151.0,-149.0,101700.0,-3.123000144958496,0,0
0.9583993999985978,0.373992919921875,-0.4527587890625,0.309722900390625,-0.747772216796875,-0.244140625,-0.1220703125,0.0,0.445068359375,-0.8037109375,0.3948974609375,-294.0,151.0,-149.0,101700.0,-3.123000144958496,0,0
0.9584521000069799,0.373992919921875,-0.4527587890625,0.309722900390625,-0.747772216796875,-0.244140625,-0.1220703125,0.0,0.445068359375,-0.8037109375,0.3948974609375,-294.0,151.0,-149.0,101700.0,-3.123000144958496,0,0
0.9585052000038559,0.373992919921875,-0.452789306640625,0.309722900390625,-0.747772216796875,0.0,-0.18310546875,0.0,0.44580078125,-0.802001953125,0.3963623046875,-294.0,151.0,-149.0,101700.0,-3.123000144958496,0,0
1.0097910000040429,0.373992919921875,-0.452789306640625,0.309722900390625,-0.74774169921875,0.0,-0.18310546875,0.06103515625,0.444091796875,-0.803466796875,0.396728515625,-294.0,151.0,-149.0,101700.0,-3.123000144958496,0,0
1.0098555000004126,0.373992919921875,-0.452789306640625,0.309722900390625,-0.74774169921875,0.1220703125,-0.1220703125,-0.1220703125,0.443359375,-0.8033447265625,0.3956298828125,-294.0,151.0,-149.0,101700.0,-3.123000144958496,0,0
1.0099147000000812,0.373992919921875,-0.452789306640625,0.309722900390625,-0.74774169921875,-0.06103515625,-0.06103515625,-0.1220703125,0.4451904296875,-0.80126953125,0.39501953125,-294.0,151.0,-149.0,101700.0,-3.123000144958496,0,0
1.0099707000044873,0.373992919921875,-0.452789306640625,0.309722900390625,-0.74774169921875,0.1220703125,-0.1220703125,-0.06103515625,0.4464111328125,-0.80126953125,0.3963623046875,-294.0,151.0,-149.0,101700.0,-3.123000144958496,0,0
1.0100260000035632,0.37396240234375,-0.45281982421875,0.30975341796875,-0.74774169921875,0.1220703125,-0.1220703125,-0.06103515625,0.4473876953125,-0.8018798828125,0.3966064453125,-296.0,151.0,-148.0,101700.0,-3.123000144958496,0,0
1.010079300001962,0.374176025390625,-0.452911376953125,0.30963134765625,-0.74761962890625,0.30517578125,0.06103515625,-0.3662109375,0.4473876953125,-0.8016357421875,0.396240234375,-296.0,151.0,-148.0,101700.0,-3.123000144958496,0,0
1.0101482000027318,0.374176025390625,-0.452911376953125,0.30963134765625,-0.74761962890625,0.1220703125,-0.18310546875,-0.18310546875,0.44580078125,-0.80126953125,0.3966064453125,-296.0,151.0,-148.0,101700.0,-3.123000144958496,0,0
1.0102021000056993,0.374176025390625,-0.452911376953125,0.30963134765625,-0.74761962890625,0.06103515625,-0.06103515625,-0.06103515625,0.443115234375,-0.802001953125,0.3948974609375,-296.0,151.0,-148.0,101700.0,-3.123000144958496,0,0
1.0102541000087513,0.374176025390625,-0.452911376953125,0.30963134765625,-0.74761962890625,0.06103515625,-0.06103515625,-0.06103515625,0.443115234375,-0.802001953125,0.3948974609375,-296.0,151.0,-148.0,101700.0,-3.123000144958496,0,0
1.0103072000056272,0.374176025390625,-0.452911376953125,0.30963134765625,-0.74761962890625,0.244140625,0.0,0.06103515625,0.447021484375,-0.7998046875,0.396240234375,-296.0,151.0,-148.0,101700.0,-3.123000144958496,0,0
1.010359799998696,0.374176025390625,-0.452911376953125,0.30963134765625,-0.74761962890625,-0.18310546875,0.18310546875,-0.244140625,0.4439697265625,-0.802490234375,0.39697265625,-296.0,151.0,-148.0,101700.0,-3.123000144958496,0,0
1.0104141000047093,0.374176025390625,-0.452911376953125,0.30963134765625,-0.74761962890625,0.244140625,0.0,0.1220703125,0.4434814453125,-0.8023681640625,0.39501953125,-296.0,151.0,-148.0,101700.0,-3.123000144958496,0,0
1.0104665999970166,0.374176025390625,-0.45294189453125,0.30963134765625,-0.74761962890625,0.0,-0.18310546875,-0.244140625,0.4451904296875,-0.8006591796875,0.3935546875,-296.0,151.0,-148.0,101700.0,-3.123000144958496,0,0
1.0730999000079464,0.3741455078125,-0.45294189453125,0.30963134765625,-0.747589111328125,-0.06103515625,-0.06103515625,-0.18310546875,0.446044921875,-0.799560546875,0.393310546875,-296.0,151.0,-148.0,101700.0,-3.123000144958496,0,0
1.0731627000059234,0.3741455078125,-0.45294189453125,0.309661865234375,-0.747589111328125,-0.06103515625,0.0,0.1220703125,0.4447021484375,-0.8009033203125,0.3948974609375,-296.0,151.0,-148.0,101700.0,-3.123000144958496,0,0
1.0732181000057608,0.3741455078125,-0.452972412109375,0.309661865234375,-0.747589111328125,0.18310546875,-0.1220703125,0.0,0.446044921875,-0.8006591796875,0.39453125,-296.0,151.0,-148.0,101700.0,-3.123000144958496,0,0
1.0732751000032295,0.3741455078125,-0.452972412109375,0.309661865234375,-0.747589111328125,0.18310546875,-0.1220703125,0.0,0.446044921875,-0.8006591796875,0.39453125,-296.0,151.0,-148.0,101700.0,-3.123000144958496,0,0
1.0733354999974836,0.3741455078125,-0.452972412109375,0.309661865234375,-0.747589111328125,-0.06103515625,-0.1220703125,-0.1220703125,0.4447021484375,-0.8017578125,0.39453125,-296.0,151.0,-148.0,101700.0,-3.123000144958496,0,0
1.0734701000037603,0.3741455078125,-0.452972412109375,0.309661865234375,-0.747589111328125,0.18310546875,0.0,-0.1220703125,0.44482421875,-0.801513671875,0.3968505859375,-296.0,151.0,-148.0,101700.0,-3.123000144958496,0,0
1.073544300001231,0.3741455078125,-0.452972412109375,0.309661865234375,-0.74755859375,0.0,-0.30517578125,-0.18310546875,0.445556640625,-0.802490234375,0.396240234375,-296.0,151.0,-148.0,101700.0,-3.123000144958496,0,0
1.0736031999986153,0.3741455078125,-0.4530029296875,0.3096923828125,-0.74755859375,0.1220703125,-0.18310546875,-0.1220703125,0.4464111328125,-0.8037109375,0.395263671875,-296.0,151.0,-148.0,101700.0,-3.123000144958496,0,0
1.07365980000759,0.3741455078125,-0.4530029296875,0.3096923828125,-0.74755859375,0.06103515625,-0.1220703125,0.06103515625,0.4454345703125,-0.802490234375,0.393798828125,-296.0,151.0,-148.0,101700.0,-3.123000144958496,0,0
1.0737138999975286,0.3741455078125,-0.4530029296875,0.3096923828125,-0.74755859375,-0.06103515625,0.1220703125,-0.1220703125,0.4449462890625,-0.80322265625,0.3955078125,-296.0,151.0,-148.0,101700.0,-3.123000144958496,0,0
1.0737689000088722,0.3741455078125,-0.4530029296875,0.3096923828125,-0.74755859375,-0.06103515625,0.1220703125,-0.1220703125,0.4449462890625,-0.80322265625,0.3955078125,-296.0,152.0,-148.0,101700.0,-3.123000144958496,0,0
1.0738221000065096,0.374237060546875,-0.45306396484375,0.30963134765625,-0.74749755859375,0.1220703125,-0.06103515625,0.0,0.4454345703125,-0.8028564453125,0.3936767578125,-296.0,152.0,-148.0,101700.0,-3.123000144958496,0,0
1.1363313000038033,0.374237060546875,-0.453094482421875,0.309661865234375,-0.747467041015625,-0.18310546875,0.0,0.18310546875,0.4456787109375,-0.8011474609375,0.39501953125,-296.0,152.0,-148.0,101700.0,-3.123000144958496,0,0
1.1363964000047417,0.374237060546875,-0.453094482421875,0.309661865234375,-0.747467041015625,0.18310546875,-0.1220703125,0.06103515625,0.4456787109375,-0.804443359375,0.3944091796875,-296.0,152.0,-148.0,101700.0,-3.123000144958496,0,0
1.136629400003585,0.374237060546875,-0.453094482421875,0.309661865234375,-0.747467041015625,0.244140625,0.06103515625,-0.1220703125,0.443359375,-0.802734375,0.3941650390625,-296.0,152.0,-148.0,101700.0,-3.123000144958496,0,0
1.1366963000036776,0.374237060546875,-0.453094482421875,0.309661865234375,-0.747467041015625,-0.1220703125,0.1220703125,-0.06103515625,0.4449462890625,-0.802001953125,0.3953857421875,-296.0,152.0,-148.0,101700.0,-3.123000144958496,0,0
1.1369587000081083,0.37420654296875,-0.453094482421875,0.3096923828125,-0.747467041015625,0.0,-0.244140625,-0.30517578125,0.4449462890625,-0.80322265625,0.3944091796875,-296.0,152.0,-148.0,101700.0,-3.123000144958496,0,0
1.1450182999979006,0.37420654296875,-0.453094482421875,0.3096923828125,-0.747467041015625,0.0,-0.18310546875,-0.1220703125,0.445556640625,-0.8026123046875,0.3944091796875,-296.0,152.0,-148.0,101700.0,-3.123000144958496,0,0
1.1450948999990942,0.37420654296875,-0.453094482421875,0.3096923828125,-0.747467041015625,0.244140625,-0.18310546875,-0.30517578125,0.4444580078125,-0.802490234375,0.3946533203125,-296.0,152.0,-148.0,101700.0,-3.121000051498413,0,0
1.14515609999944,0.37420654296875,-0.453125,0.3096923828125,-0.7474365234375,0.18310546875,0.0,-0.1220703125,0.4444580078125,-0.8028564453125,0.39453125,-296.0,152.0,-148.0,101700.0,-3.121000051498413,0,0
1.145572399997036,0.37420654296875,-0.453125,0.3096923828125,-0.7474365234375,0.18310546875,0.0,-0.1220703125,0.4444580078125,-0.8028564453125,0.39453125,-296.0,152.0,-148.0,101700.0,-3.121000051498413,0,0
1.1456538000056753,0.37420654296875,-0.453125,0.3096923828125,-0.7474365234375,0.1220703125,0.0,-0.1220703125,0.445068359375,-0.8023681640625,0.3958740234375,-296.0,152.0,-148.0,101700.0,-3.121000051498413,0,0
1.1457190000073751,0.37420654296875,-0.453125,0.3096923828125,-0.7474365234375,-0.18310546875,0.06103515625,0.1220703125,0.4461669921875,-0.801513671875,0.3953857421875,-296.0,152.0,-148.0,101700.0,-3.121000051498413,0,0
1.2016551999986405,0.37420654296875,-0.453125,0.3096923828125,-0.7474365234375,0.06103515625,0.0,0.1220703125,0.4456787109375,-0.8001708984375,0.3956298828125,-296.0,152.0,-148.0,101700.0,-3.121000051498413,0,0
1.2017326000059256,0.37420654296875,-0.453125,0.3096923828125,-0.7474365234375,0.06103515625,0.06103515625,-0.06103515625,0.4461669921875,-0.802490234375,0.396484375,-296.0,152.0,-148.0,101700.0,-3.121000051498413,0,0
1.201796800000011,0.37420654296875,-0.453125,0.3096923828125,-0.7474365234375,0.30517578125,0.06103515625,-0.18310546875,0.4447021484375,-0.8001708984375,0.3970947265625,-296.0,152.0,-148.0,101700.0,-3.121000051498413,0,0
1.201854300001287,0.37420654296875,-0.453125,0.3096923828125,-0.7474365234375,0.06103515625,-0.06103515625,-0.1220703125,0.4449462890625,-0.802490234375,0.3944091796875,-296.0,152.0,-148.0,101700.0,-3.121000051498413,0,0
1.2019143000070471,0.37420654296875,-0.453125,0.309722900390625,-0.7474365234375,0.18310546875,0.1220703125,-0.30517578125,0.4451904296875,-0.8013916015625,0.3958740234375,-296.0,152.0,-148.0,101700.0,-3.121000051498413,0,0
1.2019730000029085,0.37420654296875,-0.453125,0.309722900390625,-0.7474365234375,0.06103515625,-0.18310546875,0.06103515625,0.4447021484375,-0.8018798828125,0.3975830078125,-296.0,152.0,-148.0,101700.0,-3.121000051498413,0,0
1.202843600010965,0.37420654296875,-0.453155517578125,0.309722900390625,-0.7474365234375,0.42724609375,0.1220703125,0.30517578125,0.44482421875,-0.801513671875,0.39599609375,-296.0,151.0,-148.0,101700.0,-3.121000051498413,0,0
1.2029611000034492,0.37420654296875,-0.453155517578125,0.309722900390625,-0.7474365234375,0.42724609375,0.1220703125,0.30517578125,0.44482421875,-0.801513671875,0.39599609375,-296.0,151.0,-148.0,101700.0,-3.121000051498413,0,0
1.203020100001595,0.37432861328125,-0.45318603515625,0.309661865234375,-0.74737548828125,0.0,-0.244140625,-0.06103515625,0.4449462890625,-0.802978515625,0.3970947265625,-296.0,151.0,-148.0,101700.0,-3.121000051498413,0,0
1.203079600003548,0.374298095703125,-0.45318603515625,0.309661865234375,-0.74737548828125,-0.18310546875,-0.244140625,-0.1220703125,0.4459228515625,-0.800048828125,0.3963623046875,-296.0,151.0,-148.0,101700.0,-3.121000051498413,0,0
1.2031379000109155,0.374298095703125,-0.45318603515625,0.309661865234375,-0.74737548828125,0.06103515625,-0.30517578125,-0.244140625,0.446044921875,-0.80224609375,0.3956298828125,-296.0,151.0,-148.0,101700.0,-3.121000051498413,0,0
1.2031955999991624,0.374298095703125,-0.45318603515625,0.309661865234375,-0.74737548828125,0.1220703125,-0.06103515625,-0.06103515625,0.447265625,-0.8033447265625,0.398681640625,-296.0,151.0,-148.0,101700.0,-3.121000051498413,0,0
1.2032544000103371,0.374298095703125,-0.45318603515625,0.30963134765625,-0.74737548828125,0.30517578125,0.1220703125,-0.244140625,0.4490966796875,-0.8021240234375,0.3970947265625,-296.0,151.0,-148.0,101700.0,-3.121000051498413,0,0
1.2641315000073519,0.374298095703125,-0.45318603515625,0.30963134765625,-0.74737548828125,-0.1220703125,-0.06103515625,0.06103515625,0.444091796875,-0.8009033203125,0.3975830078125,-296.0,151.0,-148.0,101700.0,-3.121000051498413,0,0
1.264197199998307,0.374298095703125,-0.45318603515625,0.30963134765625,-0.74737548828125,-0.1220703125,-0.06103515625,0.06103515625,0.444091796875,-0.8009033203125,0.3975830078125,-296.0,151.0,-148.0,101700.0,-3.121000051498413,0,0
1.2642588000016985,0.374298095703125,-0.453216552734375,0.30963134765625,-0.74737548828125,0.0,-0.18310546875,0.0,0.44580078125,-0.803466796875,0.397216796875,-296.0,151.0,-148.0,101700.0,-3.122000217437744,0,0
1.264390900003491,0.374298095703125,-0.453216552734375,0.30963134765625,-0.74737548828125,-0.06103515625,-0.18310546875,0.06103515625,0.44677734375,-0.80029296875,0.3975830078125,-296.0,151.0,-148.0,101700.0,-3.122000217437744,0,0
1.2768535000068368,0.374298095703125,-0.453216552734375,0.30963134765625,-0.74737548828125,0.18310546875,0.1220703125,0.0,0.44482421875,-0.80029296875,0.3956298828125,-296.0,151.0,-148.0,101700.0,-3.122000217437744,0,0
1.2769318000064231,0.374298095703125,-0.453216552734375,0.30963134765625,-0.74737548828125,0.1220703125,-0.244140625,0.06103515625,0.44482421875,-0.8037109375,0.3963623046875,-296.0,151.0,-148.0,101700.0,-3.122000217437744,0,0
1.2769927000044845,0.374298095703125,-0.453216552734375,0.30963134765625,-0.74737548828125,0.06103515625,-0.1220703125,-0.30517578125,0.4451904296875,-0.800537109375,0.39794921875,-296.0,151.0,-148.0,101700.0,-3.122000217437744,0,0
1.2770526000094833,0.374298095703125,-0.45318603515625,0.30963134765625,-0.74737548828125,0.1220703125,0.0,0.1220703125,0.4442138671875,-0.8013916015625,0.3975830078125,-296.0,151.0,-148.0,101700.0,-3.122000217437744,0,0
1.2771095000061905,0.374298095703125,-0.453216552734375,0.30963134765625,-0.74737548828125,0.1220703125,-0.06103515625,-0.3662109375,0.446044921875,-0.8011474609375,0.397216796875,-296.0,151.0,-148.0,101700.0,-3.122000217437744,0,0
1.2771676999982446,0.374298095703125,-0.45318603515625,0.30963134765625,-0.74737548828125,0.06103515625,-0.18310546875,-0.18310546875,0.442138671875,-0.8028564453125,0.39697265625,-296.0,151.0,-148.0,101700.0,-3.122000217437744,0,0
1.2772251999995206,0.374298095703125,-0.45318603515625,0.30963134765625,-0.74737548828125,0.18310546875,0.06103515625,-0.30517578125,0.446044921875,-0.80126953125,0.3985595703125,-296.0,151.0,-148.0,101700.0,-3.122000217437744,0,0
1.3285490999987815,0.37420654296875,-0.453155517578125,0.3096923828125,-0.7474365234375,0.1220703125,-0.06103515625,-0.3662109375,0.4451904296875,-0.8013916015625,0.3985595703125,-296.0,152.0,-149.0,101700.0,-3.122000217437744,0,0
1.3286156000103801,0.37420654296875,-0.453155517578125,0.3096923828125,-0.7474365234375,-0.18310546875,-0.1220703125,-0.30517578125,0.444580078125,-0.8037109375,0.3975830078125,-296.0,152.0,-149.0,101700.0,-3.122000217437744,0,0
1.328677500001504,0.37420654296875,-0.453155517578125,0.3096923828125,-0.7474365234375,0.244140625,-0.1220703125,0.1220703125,0.448486328125,-0.8018798828125,0.3975830078125,-296.0,152.0,-149.0,101700.0,-3.122000217437744,0,0
1.3287332000036258,0.37420654296875,-0.453155517578125,0.309661865234375,-0.7474365234375,-0.18310546875,0.18310546875,0.18310546875,0.44580078125,-0.8004150390625,0.398193359375,-296.0,152.0,-149.0,101700.0,-3.122000217437744,0,0
1.3287886000034632,0.37420654296875,-0.453155517578125,0.309661865234375,-0.7474365234375,-0.18310546875,0.06103515625,-0.06103515625,0.4476318359375,-0.8006591796875,0.3985595703125,-296.0,152.0,-149.0,101700.0,-3.122000217437744,0,0
1.3296235000016168,0.37420654296875,-0.453125,0.309661865234375,-0.747467041015625,0.18310546875,0.0,0.0,0.4439697265625,-0.802490234375,0.3983154296875,-296.0,152.0,-149.0,101700.0,-3.122000217437744,0,0
1.3296904000017093,0.37420654296875,-0.453125,0.309661865234375,-0.747467041015625,0.1220703125,0.0,-0.06103515625,0.445068359375,-0.8006591796875,0.39990234375,-296.0,152.0,-149.0,101700.0,-3.122000217437744,0,0
1.3297503000067081,0.37420654296875,-0.453125,0.309661865234375,-0.747467041015625,0.1220703125,0.0,-0.06103515625,0.445068359375,-0.8006591796875,0.39990234375,-296.0,152.0,-149.0,101700.0,-3.122000217437744,0,0
1.3298076000064611,0.37420654296875,-0.453125,0.309661865234375,-0.747467041015625,0.0,0.0,-0.1220703125,0.444580078125,-0.8017578125,0.399169921875,-296.0,152.0,-149.0,101700.0,-3.119000196456909,0,0
1.3298635000101058,0.37420654296875,-0.453125,0.309661865234375,-0.747467041015625,0.0,0.0,-0.3662109375,0.4449462890625,-0.8017578125,0.39697265625,-296.0,152.0,-149.0,101700.0,-3.119000196456909,0,0
1.3299196000007214,0.37420654296875,-0.453125,0.309661865234375,-0.747467041015625,0.0,-0.1220703125,-0.06103515625,0.44580078125,-0.80224609375,0.399658203125,-296.0,152.0,-149.0,101700.0,-3.119000196456909,0,0
1.39457720000064,0.37420654296875,-0.453125,0.309661865234375,-0.747467041015625,-0.06103515625,-0.18310546875,-0.18310546875,0.4468994140625,-0.80322265625,0.3983154296875,-296.0,152.0,-149.0,101700.0,-3.119000196456909,0,0
1.3946491000097012,0.37420654296875,-0.453125,0.309661865234375,-0.747467041015625,0.18310546875,0.0,-0.06103515625,0.446044921875,-0.8021240234375,0.39892578125,-296.0,152.0,-149.0,101700.0,-3.119000196456909,0,0
1.394705900005647,0.374237060546875,-0.453094482421875,0.3096923828125,-0.747467041015625,-0.06103515625,-0.06103515625,-0.30517578125,0.446044921875,-0.8018798828125,0.3978271484375,-296.0,152.0,-149.0,101700.0,-3.119000196456909,0,0
1.3947595000063302,0.374237060546875,-0.453094482421875,0.3096923828125,-0.747467041015625,0.06103515625,-0.1220703125,-0.18310546875,0.4420166015625,-0.8018798828125,0.397216796875,-296.0,152.0,-149.0,101700.0,-3.119000196456909,0,0
1.3948148000054061,0.374237060546875,-0.453094482421875,0.3096923828125,-0.747467041015625,0.06103515625,-0.30517578125,0.0,0.444580078125,-0.80029296875,0.3961181640625,-296.0,152.0,-149.0,101700.0,-3.119000196456909,0,0
1.3948731999989832,0.374237060546875,-0.453094482421875,0.3096923828125,-0.747467041015625,-0.3662109375,-0.1220703125,0.06103515625,0.443115234375,-0.799560546875,0.3983154296875,-296.0,152.0,-149.0,101700.0,-3.119000196456909,0,0
1.3949416000104975,0.374237060546875,-0.453094482421875,0.3096923828125,-0.747467041015625,-0.3662109375,-0.1220703125,0.06103515625,0.443115234375,-0.799560546875,0.3983154296875,-296.0,152.0,-149.0,101700.0,-3.119000196456909,0,0
1.3957222000026377,0.374237060546875,-0.453094482421875,0.309661865234375,-0.747467041015625,0.1220703125,-0.18310546875,0.1220703125,0.446533203125,-0.8017578125,0.399169921875,-296.0,152.0,-149.0,101700.0,-3.119000196456909,0,0
1.3957795000023907,0.374237060546875,-0.453094482421875,0.309661865234375,-0.747467041015625,0.3662109375,-0.1220703125,-0.244140625,0.4444580078125,-0.80126953125,0.3978271484375,-296.0,151.0,-150.0,101700.0,-3.119000196456909,0,0
1.3958336000068812,0.3741455078125,-0.453033447265625,0.309722900390625,-0.747528076171875,0.06103515625,0.0,-0.06103515625,0.4437255859375,-0.800537109375,0.39990234375,-296.0,151.0,-150.0,101700.0,-3.119000196456909,0,0
1.3959286000026623,0.3741455078125,-0.453033447265625,0.309722900390625,-0.747528076171875,0.1220703125,0.0,0.06103515625,0.445068359375,-0.800048828125,0.3983154296875,-296.0,151.0,-150.0,101700.0,-3.119000196456909,0,0
1.3959814999980154,0.3741455078125,-0.453033447265625,0.309722900390625,-0.747528076171875,0.1220703125,0.0,0.1220703125,0.4442138671875,-0.80322265625,0.3975830078125,-296.0,151.0,-150.0,101700.0,-3.119000196456909,0,0
1.3960348999971757,0.3741455078125,-0.453033447265625,0.309722900390625,-0.747528076171875,0.06103515625,-0.18310546875,-0.18310546875,0.4456787109375,-0.802490234375,0.3990478515625,-296.0,151.0,-150.0,101700.0,-3.119000196456909,0,0
1.4628514000069117,0.3741455078125,-0.453033447265625,0.309722900390625,-0.747528076171875,0.244140625,-0.1220703125,0.06103515625,0.4439697265625,-0.8023681640625,0.3980712890625,-296.0,151.0,-150.0,101700.0,-3.119000196456909,0,0
1.4629150000109803,0.3741455078125,-0.453033447265625,0.309722900390625,-0.747528076171875,-0.06103515625,0.06103515625,-0.18310546875,0.445556640625,-0.8004150390625,0.39892578125,-296.0,151.0,-150.0,101700.0,-3.119000196456909,0,0
1.4629714000038803,0.3741455078125,-0.453033447265625,0.309722900390625,-0.747528076171875,0.18310546875,-0.06103515625,0.06103515625,0.4481201171875,-0.802490234375,0.3984375,-296.0,151.0,-150.0,101700.0,-3.119000196456909,0,0
1.4630286000028718,0.3741455078125,-0.453033447265625,0.309722900390625,-0.747528076171875,0.0,-0.18310546875,-0.06103515625,0.4453125,-0.802490234375,0.396484375,-296.0,151.0,-150.0,101700.0,-3.123000144958496,0,0
1.4630837000004249,0.3741455078125,-0.453033447265625,0.309722900390625,-0.747528076171875,0.06103515625,-0.1220703125,0.0,0.4429931640625,-0.7999267578125,0.397216796875,-296.0,151.0,-150.0,101700.0,-3.123000144958496,0,0
1.46376600000076,0.3741455078125,-0.453033447265625,0.309722900390625,-0.747528076171875,0.1220703125,0.06103515625,0.18310546875,0.445068359375,-0.8026123046875,0.39892578125,-296.0,151.0,-150.0,101700.0,-3.123000144958496,0,0
1.4638249999989057,0.3741455078125,-0.4530029296875,0.309722900390625,-0.747528076171875,0.06103515625,0.0,0.06103515625,0.4432373046875,-0.8016357421875,0.398681640625,-296.0,151.0,-150.0,101700.0,-3.123000144958496,0,0
1.4638834000070347,0.3741455078125,-0.4530029296875,0.309722900390625,-0.747528076171875,0.18310546875,0.1220703125,-0.06103515625,0.4442138671875,-0.803466796875,0.39794921875,-296.0,151.0,-150.0,101700.0,-3.123000144958496,0,0
1.4639414999983273,0.3741455078125,-0.4530029296875,0.309722900390625,-0.747528076171875,-0.18310546875,-0.1220703125,0.18310546875,0.4468994140625,-0.803466796875,0.398193359375,-296.0,151.0,-150.0,101700.0,-3.123000144958496,0,0
1.4639955000020564,0.3741455078125,-0.4530029296875,0.309722900390625,-0.747528076171875,0.6103515625,0.0,-0.1220703125,0.445068359375,-0.802001953125,0.3990478515625,-296.0,151.0,-150.0,101700.0,-3.123000144958496,0,0
1.4640497000073083,0.3741455078125,-0.4530029296875,0.309722900390625,-0.747528076171875,0.6103515625,0.0,-0.1220703125,0.445068359375,-0.802001953125,0.3990478515625,-296.0,151.0,-150.0,101700.0,-3.123000144958496,0,0
1.5218749000050593,0.3741455078125,-0.4530029296875,0.3096923828125,-0.74755859375,0.0,0.06103515625,-0.18310546875,0.4461669921875,-0.7999267578125,0.3992919921875,-298.0,151.0,-148.0,101700.0,-3.123000144958496,0,0
1.5219379000045592,0.374359130859375,-0.45306396484375,0.3095703125,-0.747467041015625,-0.18310546875,-0.30517578125,-0.1220703125,0.4462890625,-0.8009033203125,0.3994140625,-298.0,151.0,-148.0,101700.0,-3.123000144958496,0,0
1.5219940000097267,0.374359130859375,-0.45306396484375,0.3095703125,-0.747467041015625,0.0,-0.18310546875,-0.06103515625,0.4444580078125,-0.80029296875,0.398193359375,-298.0,151.0,-148.0,101700.0,-3.123000144958496,0,0
1.522270400004345,0.374359130859375,-0.45306396484375,0.3095703125,-0.747467041015625,-0.06103515625,0.0,0.0,0.4488525390625,-0.801513671875,0.3975830078125,-298.0,151.0,-148.0,101700.0,-3.123000144958496,0,0
1.5223522000014782,0.374359130859375,-0.45306396484375,0.3095703125,-0.747467041015625,0.0,0.0,-0.06103515625,0.4449462890625,-0.802490234375,0.39697265625,-298.0,151.0,-148.0,101700.0,-3.123000144958496,0,0
1.5278409000020474,0.374359130859375,-0.45306396484375,0.3095703125,-0.747467041015625,0.06103515625,0.0,0.06103515625,0.4461669921875,-0.8018798828125,0.3980712890625,-298.0,151.0,-148.0,101700.0,-3.123000144958496,0,0
1.5279081000044243,0.374359130859375,-0.45306396484375,0.3095703125,-0.747467041015625,0.06103515625,0.0,0.06103515625,0.4461669921875,-0.8018798828125,0.3980712890625,-298.0,151.0,-148.0,101700.0,-3.123000144958496,0,0
1.527968399997917,0.374359130859375,-0.45306396484375,0.3095703125,-0.747467041015625,-0.18310546875,0.06103515625,-0.30517578125,0.4454345703125,-0.80078125,0.3985595703125,-298.0,151.0,-148.0,101700.0,-3.123000144958496,0,0
1.5280254000099376,0.37432861328125,-0.45306396484375,0.309539794921875,-0.747467041015625,0.06103515625,-0.1220703125,0.0,0.4437255859375,-0.8016357421875,0.3975830078125,-298.0,151.0,-148.0,101700.0,-3.123000144958496,0,0
1.5281405999994604,0.37432861328125,-0.45306396484375,0.309539794921875,-0.747467041015625,0.06103515625,-0.1220703125,-0.3662109375,0.447021484375,-0.7999267578125,0.3990478515625,-298.0,151.0,-148.0,101700.0,-3.123000144958496,0,0
1.5282013000105508,0.37432861328125,-0.45306396484375,0.309539794921875,-0.747467041015625,0.30517578125,-0.30517578125,0.1220703125,0.4451904296875,-0.8011474609375,0.3990478515625,-298.0,151.0,-148.0,101700.0,-3.122000217437744,0,0
1.5829784000088694,0.374359130859375,-0.45306396484375,0.309539794921875,-0.747467041015625,-0.18310546875,0.0,-0.18310546875,0.444580078125,-0.7999267578125,0.3966064453125,-298.0,151.0,-148.0,101700.0,-3.122000217437744,0,0
1.5830461000005016,0.374359130859375,-0.45306396484375,0.309539794921875,-0.747467041015625,-0.06103515625,0.0,0.18310546875,0.4425048828125,-0.8006591796875,0.3990478515625,-298.0,151.0,-148.0,101700.0,-3.122000217437744,0,0
1.583108100006939,0.374359130859375,-0.45306396484375,0.309539794921875,-0.747467041015625,0.18310546875,0.1220703125,0.1220703125,0.44580078125,-0.8004150390625,0.3975830078125,-298.0,151.0,-148.0,101700.0,-3.122000217437744,0,0
1.5831657000089763,0.374359130859375,-0.45306396484375,0.309539794921875,-0.747467041015625,-0.1220703125,-0.1220703125,-0.1220703125,0.445068359375,-0.80224609375,0.3985595703125,-298.0,151.0,-148.0,101700.0,-3.122000217437744,0,0
1.5832231000094907,0.374359130859375,-0.45306396484375,0.309539794921875,-0.747467041015625,0.18310546875,-0.06103515625,-0.06103515625,0.4434814453125,-0.8040771484375,0.398193359375,-298.0,151.0,-148.0,101700.0,-3.122000217437744,0,0
1.5832795000023907,0.374359130859375,-0.45306396484375,0.309539794921875,-0.747467041015625,0.18310546875,-0.06103515625,-0.06103515625,0.4434814453125,-0.8040771484375,0.398193359375,-298.0,151.0,-148.0,101700.0,-3.122000217437744,0,0
1.5833355000067968,0.374359130859375,-0.453033447265625,0.3095703125,-0.747467041015625,0.0,-0.06103515625,-0.3662109375,0.4437255859375,-0.802490234375,0.398681640625,-298.0,151.0,-148.0,101700.0,-3.122000217437744,0,0
1.5836945000046398,0.374359130859375,-0.45306396484375,0.3095703125,-0.747467041015625,-0.1220703125,-0.1220703125,-0.30517578125,0.442138671875,-0.8011474609375,0.3974609375,-298.0,151.0,-148.0,101700.0,-3.122000217437744,0,0
1.583761300003971,0.374359130859375,-0.45306396484375,0.3095703125,-0.747467041015625,-0.06103515625,-0.244140625,0.18310546875,0.4453125,-0.802001953125,0.3961181640625,-298.0,151.0,-148.0,101700.0,-3.122000217437744,0,0
1.5838222000020323,0.374359130859375,-0.45306396484375,0.3095703125,-0.747467041015625,0.244140625,-0.06103515625,-0.1220703125,0.4476318359375,-0.80224609375,0.3968505859375,-298.0,151.0,-148.0,101700.0,-3.122000217437744,0,0
1.5838810999994166,0.374359130859375,-0.45306396484375,0.309539794921875,-0.747467041015625,0.0,0.06103515625,-0.1220703125,0.4471435546875,-0.8018798828125,0.400146484375,-298.0,152.0,-149.0,101700.0,-3.122000217437744,0,0
1.5839405000006082,0.374359130859375,-0.45306396484375,0.3095703125,-0.747467041015625,0.06103515625,0.06103515625,0.0,0.4447021484375,-0.8040771484375,0.398193359375,-298.0,152.0,-149.0,101700.0,-3.122000217437744,0,0
1.5841074000054505,0.374359130859375,-0.45306396484375,0.3095703125,-0.747467041015625,0.244140625,0.0,0.1220703125,0.4453125,-0.8026123046875,0.3988037109375,-298.0,152.0,-149.0,101700.0,-3.122000217437744,0,0
1.6523916000005556,0.374359130859375,-0.453033447265625,0.3095703125,-0.747467041015625,-0.1220703125,-0.06103515625,0.0,0.44482421875,-0.8018798828125,0.3975830078125,-298.0,152.0,-149.0,101700.0,-3.122000217437744,0,0
1.65245780000987,0.374359130859375,-0.453033447265625,0.309539794921875,-0.747467041015625,-0.06103515625,-0.30517578125,-0.30517578125,0.44580078125,-0.8018798828125,0.3997802734375,-298.0,152.0,-149.0,101700.0,-3.122000217437744,0,0
1.657555500001763,0.374359130859375,-0.453033447265625,0.309539794921875,-0.747467041015625,-0.1220703125,-0.244140625,-0.06103515625,0.44482421875,-0.8017578125,0.3968505859375,-298.0,152.0,-149.0,101700.0,-3.122000217437744,0,0
1.6576408999972045,0.374359130859375,-0.453033447265625,0.3095703125,-0.747467041015625,0.06103515625,0.0,-0.06103515625,0.444580078125,-0.8021240234375,0.3966064453125,-298.0,152.0,-149.0,101700.0,-3.122000217437744,0,0
1.6577011000044877,0.374359130859375,-0.453033447265625,0.3095703125,-0.747467041015625,0.0,0.0,0.18310546875,0.4453125,-0.8016357421875,0.3990478515625,-298.0,152.0,-149.0,101700.0,-3.122000217437744,0,0
1.6578109999973094,0.374359130859375,-0.453033447265625,0.3095703125,-0.747467041015625,0.0,0.0,0.0,0.4442138671875,-0.8004150390625,0.398193359375,-298.0,152.0,-149.0,101700.0,-3.122000217437744,0,0
1.6578710000030696,0.374359130859375,-0.453033447265625,0.309539794921875,-0.74749755859375,0.1220703125,-0.06103515625,-0.06103515625,0.4449462890625,-0.802978515625,0.3997802734375,-298.0,152.0,-149.0,101700.0,-3.122000217437744,0,0
1.6579272000089986,0.374359130859375,-0.453033447265625,0.309539794921875,-0.74749755859375,0.06103515625,0.06103515625,0.1220703125,0.4459228515625,-0.8021240234375,0.3988037109375,-298.0,152.0,-149.0,101700.0,-3.122000217437744,0,0
1.6581650000007357,0.3743896484375,-0.4530029296875,0.309539794921875,-0.74749755859375,0.54931640625,-0.18310546875,-0.244140625,0.44482421875,-0.801513671875,0.399169921875,-298.0,152.0,-149.0,101700.0,-3.122000217437744,0,0
1.6582282000017585,0.3743896484375,-0.4530029296875,0.309539794921875,-0.74749755859375,0.54931640625,-0.18310546875,-0.244140625,0.44482421875,-0.801513671875,0.399169921875,-298.0,152.0,-149.0,101700.0,-3.122000217437744,0,0
1.658284500008449,0.3743896484375,-0.4530029296875,0.309539794921875,-0.74749755859375,-0.06103515625,-0.1220703125,-0.18310546875,0.444091796875,-0.7998046875,0.4005126953125,-298.0,152.0,-149.0,101700.0,-3.122000217437744,0,0
1.7147706000105245,0.374359130859375,-0.4530029296875,0.309539794921875,-0.74749755859375,0.244140625,0.0,-0.06103515625,0.4468994140625,-0.801025390625,0.400146484375,-298.0,152.0,-149.0,101700.0,-3.122000217437744,0,0
1.7148337000107858,0.374359130859375,-0.4530029296875,0.30950927734375,-0.74749755859375,0.06103515625,0.06103515625,0.30517578125,0.4447021484375,-0.802001953125,0.3988037109375,-298.0,152.0,-149.0,101700.0,-3.122000217437744,0,0
1.7148909000097774,0.374267578125,-0.452972412109375,0.3095703125,-0.74755859375,0.06103515625,0.06103515625,0.30517578125,0.4447021484375,-0.802001953125,0.3988037109375,-297.0,151.0,-149.0,101700.0,-3.122000217437744,0,0
1.7149975000065751,0.374267578125,-0.452972412109375,0.3095703125,-0.74755859375,0.06103515625,-0.06103515625,-0.18310546875,0.4461669921875,-0.80078125,0.3978271484375,-297.0,151.0,-149.0,101700.0,-3.122000217437744,0,0
1.7150562000024365,0.374267578125,-0.452972412109375,0.3095703125,-0.74755859375,-0.244140625,0.06103515625,-0.06103515625,0.4464111328125,-0.801513671875,0.3973388671875,-297.0,151.0,-149.0,101700.0,-3.122000217437744,0,0
1.7154485000064597,0.374267578125,-0.452972412109375,0.3095703125,-0.74755859375,-0.244140625,0.06103515625,-0.06103515625,0.4464111328125,-0.801513671875,0.3973388671875,-297.0,151.0,-149.0,101700.0,-3.122000217437744,0,0
1.7155080000084126,0.374267578125,-0.452972412109375,0.3095703125,-0.74755859375,-0.06103515625,-0.42724609375,0.0,0.4451904296875,-0.8026123046875,0.3990478515625,-297.0,151.0,-149.0,101700.0,-3.122000217437744,0,0
1.7155641999997897,0.374267578125,-0.452972412109375,0.3095703125,-0.74755859375,0.0,0.0,-0.1220703125,0.4461669921875,-0.8035888671875,0.3983154296875,-297.0,151.0,-149.0,101700.0,-3.122000217437744,0,0
1.715618700007326,0.374267578125,-0.452972412109375,0.3095703125,-0.74755859375,0.06103515625,-0.18310546875,-0.244140625,0.446044921875,-0.8023681640625,0.3975830078125,-297.0,151.0,-149.0,101700.0,-3.122000217437744,0,0
1.7156746000109706,0.374267578125,-0.452972412109375,0.3095703125,-0.74755859375,0.0,-0.06103515625,0.1220703125,0.4451904296875,-0.8016357421875,0.3966064453125,-297.0,151.0,-149.0,101700.0,-3.122000217437744,0,0
1.715729800009285,0.374267578125,-0.452972412109375,0.3095703125,-0.74755859375,-0.30517578125,-0.06103515625,0.1220703125,0.4466552734375,-0.803466796875,0.3990478515625,-297.0,151.0,-149.0,101700.0,-3.122000217437744,0,0
1.7745329000026686,0.374267578125,-0.452972412109375,0.3095703125,-0.74755859375,-0.30517578125,-0.06103515625,0.06103515625,0.4464111328125,-0.80322265625,0.3975830078125,-297.0,151.0,-149.0,101700.0,-3.122000217437744,0,0
1.7745985000074143,0.374267578125,-0.452972412109375,0.3095703125,-0.74755859375,0.30517578125,-0.06103515625,-0.06103515625,0.4461669921875,-0.801513671875,0.3984375,-297.0,151.0,-149.0,101700.0,-3.122000217437744,0,0
1.774656399997184,0.374267578125,-0.452972412109375,0.3095703125,-0.74755859375,0.18310546875,-0.18310546875,-0.06103515625,0.4482421875,-0.8031005859375,0.4002685546875,-297.0,151.0,-149.0,101700.0,-3.122000217437744,0,0
1.7747103000001516,0.374267578125,-0.452972412109375,0.3095703125,-0.74755859375,0.1220703125,-0.30517578125,0.18310546875,0.446044921875,-0.7994384765625,0.3988037109375,-297.0,151.0,-149.0,101700.0,-3.122000217437744,0,0
1.7747628000070108,0.374267578125,-0.452972412109375,0.3095703125,-0.74755859375,0.1220703125,-0.30517578125,0.18310546875,0.446044921875,-0.7994384765625,0.3988037109375,-297.0,151.0,-149.0,101700.0,-3.122000217437744,0,0
1.7748156000016024,0.374267578125,-0.452972412109375,0.3095703125,-0.74755859375,0.244140625,-0.06103515625,0.06103515625,0.4466552734375,-0.80126953125,0.3970947265625,-297.0,151.0,-149.0,101700.0,-3.122000217437744,0,0
1.7748692000022857,0.374267578125,-0.452972412109375,0.3095703125,-0.74755859375,0.1220703125,0.06103515625,0.06103515625,0.4449462890625,-0.8013916015625,0.3978271484375,-297.0,151.0,-149.0,101700.0,-3.122000217437744,0,0
1.7749942000082228,0.374267578125,-0.452972412109375,0.3095703125,-0.74755859375,0.30517578125,0.0,0.1220703125,0.443359375,-0.80078125,0.398193359375,-297.0,151.0,-149.0,101700.0,-3.122000217437744,0,0
1.775047800008906,0.374267578125,-0.452972412109375,0.3095703125,-0.74755859375,0.18310546875,-0.06103515625,0.06103515625,0.4454345703125,-0.79931640625,0.3992919921875,-297.0,151.0,-149.0,101700.0,-3.122000217437744,0,0
1.7751683000096818,0.374267578125,-0.452972412109375,0.3095703125,-0.74755859375,0.1220703125,0.06103515625,-0.06103515625,0.4444580078125,-0.8018798828125,0.3988037109375,-297.0,151.0,-149.0,101700.0,-3.122000217437744,0,0
1.7752238000102807,0.374267578125,-0.452972412109375,0.3095703125,-0.74755859375,-0.48828125,-0.30517578125,-0.1220703125,0.4432373046875,-0.8023681640625,0.3983154296875,-297.0,151.0,-149.0,101700.0,-3.122000217437744,0,0
1.77535209999769,0.374267578125,-0.452972412109375,0.3095703125,-0.74755859375,0.06103515625,0.244140625,-0.1220703125,0.446044921875,-0.8023681640625,0.396728515625,-296.0,151.0,-149.0,101700.0,-3.122000217437744,0,0
1.775433000002522,0.374176025390625,-0.452911376953125,0.30963134765625,-0.74761962890625,0.244140625,-0.244140625,-0.18310546875,0.446044921875,-0.8035888671875,0.3983154296875,-296.0,151.0,-149.0,101700.0,-3.122000217437744,0,0
1.8406704000080936,0.374176025390625,-0.452911376953125,0.30963134765625,-0.74761962890625,-0.1220703125,-0.244140625,-0.244140625,0.446533203125,-0.8021240234375,0.398193359375,-296.0,151.0,-149.0,101700.0,-3.122000217437744,0,0
1.8407429000071716,0.374176025390625,-0.452911376953125,0.30963134765625,-0.74761962890625,0.1220703125,0.06103515625,-0.18310546875,0.4456787109375,-0.801513671875,0.3975830078125,-296.0,151.0,-149.0,101700.0,-3.122000217437744,0,0
1.8408047999982955,0.374176025390625,-0.452911376953125,0.30963134765625,-0.74761962890625,0.06103515625,0.0,-0.06103515625,0.4459228515625,-0.801513671875,0.3970947265625,-296.0,151.0,-149.0,101700.0,-3.122000217437744,0,0
1.8408638000109931,0.374176025390625,-0.452911376953125,0.30963134765625,-0.74761962890625,-0.1220703125,0.06103515625,-0.06103515625,0.4449462890625,-0.79931640625,0.3974609375,-296.0,151.0,-149.0,101700.0,-3.122000217437744,0,0
1.8409211000107462,0.374176025390625,-0.452911376953125,0.30963134765625,-0.74761962890625,0.18310546875,-0.1220703125,-0.244140625,0.443603515625,-0.8001708984375,0.3980712890625,-296.0,151.0,-149.0,101700.0,-3.122000217437744,0,0
1.8424273999989964,0.374176025390625,-0.452911376953125,0.30963134765625,-0.74761962890625,-0.244140625,-0.06103515625,0.18310546875,0.4453125,-0.80078125,0.399169921875,-296.0,151.0,-149.0,101700.0,-3.122000217437744,0,0
1.8424841000087326,0.374176025390625,-0.452911376953125,0.30963134765625,-0.74761962890625,0.06103515625,0.0,-0.1220703125,0.4443359375,-0.80078125,0.398193359375,-296.0,151.0,-149.0,101700.0,-3.122000217437744,0,0
1.8425381999986712,0.374176025390625,-0.452911376953125,0.309600830078125,-0.74761962890625,0.67138671875,0.244140625,0.1220703125,0.445556640625,-0.8001708984375,0.397216796875,-296.0,151.0,-149.0,101700.0,-3.122000217437744,0,0
1.8425902000017231,0.374176025390625,-0.452911376953125,0.309600830078125,-0.74761962890625,0.67138671875,0.244140625,0.1220703125,0.445556640625,-0.8001708984375,0.397216796875,-296.0,151.0,-149.0,101700.0,-3.122000217437744,0,0
1.8426428000093438,0.374176025390625,-0.452911376953125,0.30963134765625,-0.74761962890625,0.244140625,-0.06103515625,-0.06103515625,0.4442138671875,-0.8021240234375,0.39697265625,-296.0,151.0,-149.0,101700.0,-3.122000217437744,0,0
1.8426946999970824,0.374176025390625,-0.452911376953125,0.30963134765625,-0.74761962890625,-0.1220703125,-0.06103515625,0.0,0.4439697265625,-0.8004150390625,0.3966064453125,-296.0,151.0,-149.0,101700.0,-3.122000217437744,0,0
1.900380100007169,0.374176025390625,-0.452911376953125,0.30963134765625,-0.74761962890625,-0.06103515625,-0.06103515625,-0.06103515625,0.4454345703125,-0.80322265625,0.3984375,-296.0,151.0,-149.0,101700.0,-3.122000217437744,0,0
1.9004425000021001,0.374176025390625,-0.452911376953125,0.30963134765625,-0.74761962890625,0.30517578125,0.18310546875,-0.244140625,0.4442138671875,-0.8018798828125,0.3980712890625,-296.0,151.0,-149.0,101700.0,-3.122000217437744,0,0
1.901827300011064,0.374176025390625,-0.452911376953125,0.30963134765625,-0.74761962890625,0.244140625,-0.06103515625,0.18310546875,0.4451904296875,-0.8001708984375,0.3970947265625,-296.0,151.0,-149.0,101700.0,-3.122000217437744,0,0
1.9019006000016816,0.374176025390625,-0.452911376953125,0.30963134765625,-0.74761962890625,0.244140625,-0.06103515625,0.18310546875,0.4451904296875,-0.8001708984375,0.3970947265625,-296.0,151.0,-149.0,101700.0,-3.122000217437744,0,0
1.9019597000005888,0.374176025390625,-0.452911376953125,0.30963134765625,-0.74761962890625,0.244140625,-0.06103515625,0.18310546875,0.4451904296875,-0.8001708984375,0.3970947265625,-296.0,151.0,-149.0,101700.0,-3.122000217437744,0,0
1.9025990000081947,0.37408447265625,-0.452850341796875,0.3096923828125,-0.7476806640625,0.30517578125,0.1220703125,0.0,0.444580078125,-0.80224609375,0.3984375,-297.0,151.0,-149.0,101700.0,-3.122000217437744,0,0
1.9026555000018561,0.37408447265625,-0.452850341796875,0.3096923828125,-0.7476806640625,0.30517578125,0.1220703125,0.0,0.444580078125,-0.80224609375,0.3984375,-297.0,151.0,-149.0,101700.0,-3.122000217437744,0,0
1.9027626000024611,0.37408447265625,-0.452850341796875,0.3096923828125,-0.7476806640625,-0.1220703125,-0.1220703125,0.0,0.4459228515625,-0.8004150390625,0.3995361328125,-297.0,151.0,-149.0,101700.0,-3.122000217437744,0,0
1.9028161000023829,0.37408447265625,-0.452850341796875,0.309661865234375,-0.7476806640625,0.06103515625,-0.30517578125,-0.06103515625,0.4459228515625,-0.8006591796875,0.3975830078125,-297.0,151.0,-149.0,101700.0,-3.122000217437744,0,0
1.9028710999991745,0.37408447265625,-0.452850341796875,0.309661865234375,-0.7476806640625,-0.48828125,-0.3662109375,0.06103515625,0.4473876953125,-0.801025390625,0.3983154296875,-297.0,151.0,-149.0,101700.0,-3.122000217437744,0,0
1.9029237000067951,0.37408447265625,-0.452850341796875,0.309661865234375,-0.7476806640625,0.06103515625,-0.06103515625,-0.1220703125,0.4442138671875,-0.804443359375,0.3984375,-297.0,151.0,-149.0,101700.0,-3.122000217437744,0,0
1.96835419999843,0.37408447265625,-0.452850341796875,0.309661865234375,-0.7476806640625,0.1220703125,-0.18310546875,0.06103515625,0.445556640625,-0.8021240234375,0.3988037109375,-297.0,151.0,-149.0,101700.0,-3.122000217437744,0,0
1.96842010000546,0.37408447265625,-0.452850341796875,0.309661865234375,-0.7476806640625,-0.1220703125,-0.06103515625,0.06103515625,0.4451904296875,-0.801513671875,0.3975830078125,-297.0,151.0,-149.0,101700.0,-3.122000217437744,0,0
1.9684753000037745,0.37408447265625,-0.452850341796875,0.309661865234375,-0.7476806640625,-0.1220703125,-0.06103515625,0.06103515625,0.4451904296875,-0.801513671875,0.3975830078125,-297.0,151.0,-149.0,101700.0,-3.122000217437744,0,0
1.9685300999990432,0.37408447265625,-0.452850341796875,0.309661865234375,-0.7476806640625,0.06103515625,-0.244140625,-0.06103515625,0.44580078125,-0.7991943359375,0.39794921875,-297.0,151.0,-149.0,101700.0,-3.122000217437744,0,0
1.968586700008018,0.37408447265625,-0.452850341796875,0.309661865234375,-0.7476806640625,-0.06103515625,-0.3662109375,-0.1220703125,0.4449462890625,-0.801025390625,0.3975830078125,-297.0,151.0,-149.0,101700.0,-3.122000217437744,0,0
1.9686393000010867,0.37408447265625,-0.452850341796875,0.309661865234375,-0.7476806640625,-0.06103515625,-0.1220703125,-0.1220703125,0.4459228515625,-0.800537109375,0.3974609375,-297.0,151.0,-149.0,101700.0,-3.122000217437744,0,0
1.9687147000076948,0.37408447265625,-0.452850341796875,0.309661865234375,-0.7476806640625,-0.06103515625,-0.244140625,0.1220703125,0.4476318359375,-0.802734375,0.401123046875,-297.0,151.0,-149.0,101700.0,-3.122000217437744,0,0
1.9687864000006812,0.37408447265625,-0.452850341796875,0.309661865234375,-0.7476806640625,-0.06103515625,-0.244140625,0.06103515625,0.44384765625,-0.801513671875,0.3980712890625,-297.0,151.0,-149.0,101700.0,-3.122000217437744,0,0
1.9688460000033956,0.37408447265625,-0.452850341796875,0.309661865234375,-0.7476806640625,0.06103515625,-0.06103515625,0.1220703125,0.446044921875,-0.8021240234375,0.3997802734375,-297.0,151.0,-149.0,101700.0,-3.122000217437744,0,0
1.9688995000033174,0.37408447265625,-0.452850341796875,0.309661865234375,-0.7476806640625,0.1220703125,-0.3662109375,0.06103515625,0.44482421875,-0.8006591796875,0.3990478515625,-297.0,151.0,-149.0,101700.0,-3.122000217437744,0,0
1.9689526000001933,0.37408447265625,-0.452850341796875,0.309661865234375,-0.747711181640625,-0.06103515625,0.1220703125,-0.18310546875,0.4447021484375,-0.79931640625,0.3990478515625,-297.0,151.0,-149.0,101700.0,-3.122000217437744,0,0
1.9690054000093369,0.37408447265625,-0.452850341796875,0.309661865234375,-0.747711181640625,0.18310546875,0.18310546875,0.18310546875,0.4459228515625,-0.801025390625,0.3983154296875,-297.0,151.0,-149.0,101700.0,-3.122000217437744,0,0
1.969057000009343,0.37408447265625,-0.452850341796875,0.309661865234375,-0.747711181640625,0.18310546875,0.18310546875,0.18310546875,0.4459228515625,-0.801025390625,0.3983154296875,-297.0,151.0,-149.0,101700.0,-3.122000217437744,0,0
2.034531600002083,0.373992919921875,-0.452789306640625,0.309722900390625,-0.74774169921875,0.3662109375,-0.244140625,-0.1220703125,0.4456787109375,-0.8026123046875,0.398681640625,-295.0,151.0,-150.0,101700.0,-3.123000144958496,0,0
2.0345920999970986,0.373992919921875,-0.452789306640625,0.309722900390625,-0.74774169921875,0.0,0.06103515625,-0.1220703125,0.4447021484375,-0.80078125,0.3997802734375,-295.0,151.0,-150.0,101700.0,-3.123000144958496,0,0
2.034649300010642,0.373992919921875,-0.452789306640625,0.309722900390625,-0.747772216796875,0.3662109375,-0.06103515625,-0.244140625,0.44580078125,-0.8011474609375,0.3980712890625,-295.0,151.0,-150.0,101700.0,-3.123000144958496,0,0
2.0347050999989733,0.373992919921875,-0.452789306640625,0.309722900390625,-0.747772216796875,0.18310546875,0.0,-0.244140625,0.44384765625,-0.8006591796875,0.3978271484375,-295.0,151.0,-150.0,101700.0,-3.123000144958496,0,0
2.034761900009471,0.373992919921875,-0.452789306640625,0.309722900390625,-0.747772216796875,-0.18310546875,0.1220703125,0.06103515625,0.446044921875,-0.8006591796875,0.3975830078125,-295.0,151.0,-150.0,101700.0,-3.123000144958496,0,0
2.0348385000106646,0.373992919921875,-0.452789306640625,0.3096923828125,-0.747772216796875,0.18310546875,-0.06103515625,0.1220703125,0.4459228515625,-0.80126953125,0.3988037109375,-295.0,151.0,-150.0,101700.0,-3.123000144958496,0,0
2.0348947000020416,0.373992919921875,-0.452789306640625,0.3096923828125,-0.747772216796875,0.18310546875,-0.06103515625,0.1220703125,0.4459228515625,-0.80126953125,0.3988037109375,-295.0,151.0,-150.0,101700.0,-3.123000144958496,0,0
2.0349480000004405,0.373992919921875,-0.452789306640625,0.3096923828125,-0.747772216796875,0.06103515625,-0.1220703125,-0.1220703125,0.444580078125,-0.79833984375,0.3992919921875,-295.0,151.0,-150.0,101700.0,-3.123000144958496,0,0
2.034999499999685,0.373992919921875,-0.452789306640625,0.3096923828125,-0.747772216796875,0.06103515625,0.06103515625,-0.06103515625,0.44482421875,-0.80078125,0.3985595703125,-295.0,151.0,-150.0,101700.0,-3.123000144958496,0,0
2.0350510999996914,0.373992919921875,-0.4527587890625,0.3096923828125,-0.747772216796875,0.0,-0.18310546875,0.18310546875,0.4442138671875,-0.8001708984375,0.3978271484375,-295.0,151.0,-150.0,101700.0,-3.123000144958496,0,0
2.0351087000017287,0.373992919921875,-0.452789306640625,0.3096923828125,-0.747772216796875,-0.1220703125,-0.3662109375,-0.1220703125,0.4454345703125,-0.801025390625,0.398681640625,-295.0,151.0,-150.0,101700.0,-3.123000144958496,0,0
2.0926680999982636,0.373992919921875,-0.4527587890625,0.3096923828125,-0.747772216796875,0.0,-0.06103515625,0.1220703125,0.4444580078125,-0.8031005859375,0.39990234375,-295.0,151.0,-150.0,101700.0,-3.123000144958496,0,0
2.092729000010877,0.373992919921875,-0.4527587890625,0.3096923828125,-0.747772216796875,-0.06103515625,-0.244140625,-0.1220703125,0.4462890625,-0.802001953125,0.3994140625,-295.0,151.0,-150.0,101700.0,-3.123000144958496,0,0
2.0927844000107143,0.373992919921875,-0.4527587890625,0.3096923828125,-0.747772216796875,0.06103515625,-0.18310546875,-0.1220703125,0.443603515625,-0.7987060546875,0.3980712890625,-295.0,151.0,-150.0,101700.0,-3.123000144958496,0,0
2.092837400006829,0.373992919921875,-0.4527587890625,0.3096923828125,-0.747772216796875,0.06103515625,-0.18310546875,-0.1220703125,0.443603515625,-0.7987060546875,0.3980712890625,-295.0,151.0,-150.0,101700.0,-3.123000144958496,0,0
2.0928916999982903,0.373992919921875,-0.4527587890625,0.3096923828125,-0.747772216796875,-0.1220703125,-0.06103515625,-0.244140625,0.44775390625,-0.801025390625,0.4005126953125,-295.0,151.0,-150.0,101700.0,-3.123000144958496,0,0
2.09295839999686,0.373992919921875,-0.4527587890625,0.3096923828125,-0.747772216796875,-0.1220703125,-0.06103515625,-0.244140625,0.44775390625,-0.801025390625,0.4005126953125,-295.0,151.0,-150.0,101700.0,-3.122000217437744,0,0
2.093012900004396,0.373992919921875,-0.4527587890625,0.3096923828125,-0.747772216796875,0.18310546875,-0.1220703125,0.06103515625,0.4461669921875,-0.8026123046875,0.3984375,-294.0,151.0,-149.0,101700.0,-3.122000217437744,0,0
2.093066200002795,0.373992919921875,-0.4527587890625,0.309661865234375,-0.747802734375,-0.06103515625,0.244140625,-0.1220703125,0.4461669921875,-0.8033447265625,0.3995361328125,-294.0,151.0,-149.0,101700.0,-3.122000217437744,0,0
2.09311840000737,0.373992919921875,-0.4527587890625,0.309661865234375,-0.747802734375,0.0,0.0,-0.06103515625,0.447021484375,-0.80126953125,0.3988037109375,-294.0,151.0,-149.0,101700.0,-3.122000217437744,0,0
2.0931721000088146,0.373992919921875,-0.4527587890625,0.309661865234375,-0.747802734375,0.30517578125,0.0,0.244140625,0.4454345703125,-0.8013916015625,0.39892578125,-294.0,151.0,-149.0,101700.0,-3.122000217437744,0,0
2.0932236000080593,0.373992919921875,-0.4527587890625,0.309661865234375,-0.747802734375,0.1220703125,0.0,0.0,0.447021484375,-0.8017578125,0.3995361328125,-294.0,151.0,-149.0,101700.0,-3.122000217437744,0,0
2.093276900006458,0.373992919921875,-0.4527587890625,0.309661865234375,-0.747802734375,0.1220703125,0.06103515625,-0.18310546875,0.4425048828125,-0.803466796875,0.3994140625,-294.0,151.0,-149.0,101700.0,-3.122000217437744,0,0
2.1599248999991687,0.373992919921875,-0.4527587890625,0.309661865234375,-0.747802734375,0.1220703125,0.06103515625,-0.18310546875,0.4425048828125,-0.803466796875,0.3994140625,-294.0,151.0,-149.0,101700.0,-3.122000217437744,0,0
2.1599940000014612,0.373992919921875,-0.4527587890625,0.309661865234375,-0.747802734375,0.1220703125,0.0,0.244140625,0.4447021484375,-0.80126953125,0.398681640625,-294.0,151.0,-149.0,101700.0,-3.122000217437744,0,0
2.160052600011113,0.373992919921875,-0.4527587890625,0.309661865234375,-0.747802734375,-0.18310546875,0.06103515625,0.1220703125,0.4447021484375,-0.801025390625,0.3973388671875,-294.0,151.0,-149.0,101700.0,-3.122000217437744,0,0
2.160107000003336,0.373992919921875,-0.4527587890625,0.309661865234375,-0.747802734375,0.1220703125,-0.244140625,-0.244140625,0.444580078125,-0.8031005859375,0.396484375,-294.0,151.0,-149.0,101700.0,-3.122000217437744,0,0
2.160162500003935,0.373992919921875,-0.4527587890625,0.3096923828125,-0.747802734375,0.18310546875,0.06103515625,0.06103515625,0.4449462890625,-0.8028564453125,0.3995361328125,-294.0,151.0,-149.0,101700.0,-3.122000217437744,0,0
2.1602155000000494,0.373992919921875,-0.452728271484375,0.309661865234375,-0.747802734375,0.0,-0.1220703125,-0.30517578125,0.4444580078125,-0.8017578125,0.398193359375,-294.0,151.0,-149.0,101700.0,-3.122000217437744,0,0
2.1630125000083353,0.373992919921875,-0.452728271484375,0.309661865234375,-0.747802734375,0.1220703125,0.0,-0.18310546875,0.446044921875,-0.80126953125,0.39892578125,-294.0,151.0,-149.0,101700.0,-3.122000217437744,0,0
2.163122800004203,0.373992919921875,-0.452728271484375,0.309661865234375,-0.747802734375,-0.1220703125,-0.1220703125,-0.1220703125,0.4442138671875,-0.8009033203125,0.3995361328125,-294.0,151.0,-149.0,101700.0,-3.122000217437744,0,0
2.1631882000074256,0.373992919921875,-0.452728271484375,0.309661865234375,-0.747802734375,0.1220703125,-0.1220703125,-0.30517578125,0.4468994140625,-0.8018798828125,0.39794921875,-294.0,151.0,-149.0,101700.0,-3.122000217437744,0,0
2.163245100004133,0.373992919921875,-0.452728271484375,0.309661865234375,-0.747802734375,0.06103515625,-0.06103515625,0.18310546875,0.4459228515625,-0.80126953125,0.398681640625,-294.0,151.0,-149.0,101700.0,-3.122000217437744,0,0
2.1632992000086233,0.373992919921875,-0.452728271484375,0.309661865234375,-0.747802734375,0.06103515625,-0.06103515625,0.18310546875,0.4459228515625,-0.80126953125,0.398681640625,-294.0,151.0,-149.0,101700.0,-3.122000217437744,0,0
2.163354000003892,0.373992919921875,-0.452728271484375,0.3096923828125,-0.747802734375,-0.1220703125,-0.244140625,0.06103515625,0.44482421875,-0.80224609375,0.398193359375,-294.0,151.0,-149.0,101700.0,-3.122000217437744,0,0
2.234251800007769,0.373992919921875,-0.4527587890625,0.309661865234375,-0.747802734375,0.30517578125,-0.06103515625,0.1220703125,0.4449462890625,-0.8006591796875,0.39794921875,-294.0,152.0,-148.0,101700.0,-3.123000144958496,0,0
2.2343150000087917,0.37420654296875,-0.45281982421875,0.309539794921875,-0.7476806640625,0.1220703125,-0.06103515625,0.0,0.4434814453125,-0.80078125,0.3975830078125,-294.0,152.0,-148.0,101700.0,-3.123000144958496,0,0
2.234369900004822,0.37420654296875,-0.45281982421875,0.309539794921875,-0.7476806640625,0.06103515625,0.18310546875,-0.18310546875,0.4456787109375,-0.8017578125,0.3978271484375,-294.0,152.0,-148.0,101700.0,-3.123000144958496,0,0
2.234425300004659,0.37420654296875,-0.45281982421875,0.3095703125,-0.7476806640625,-0.06103515625,-0.18310546875,-0.18310546875,0.4444580078125,-0.8033447265625,0.396728515625,-294.0,152.0,-148.0,101700.0,-3.123000144958496,0,0
2.2344793000083882,0.37420654296875,-0.45281982421875,0.309539794921875,-0.7476806640625,-0.1220703125,0.1220703125,-0.1220703125,0.447021484375,-0.7998046875,0.3983154296875,-294.0,152.0,-148.0,101700.0,-3.123000144958496,0,0
2.2345616000093287,0.37420654296875,-0.45281982421875,0.309539794921875,-0.7476806640625,-0.1220703125,0.1220703125,-0.1220703125,0.447021484375,-0.7998046875,0.3983154296875,-294.0,152.0,-148.0,101700.0,-3.123000144958496,0,0
2.2346200000029057,0.37420654296875,-0.452850341796875,0.3095703125,-0.7476806640625,0.1220703125,0.06103515625,-0.30517578125,0.4444580078125,-0.8011474609375,0.39599609375,-294.0,152.0,-148.0,101700.0,-3.123000144958496,0,0
2.2346779000072274,0.37420654296875,-0.452850341796875,0.3095703125,-0.7476806640625,-0.18310546875,-0.06103515625,0.0,0.4432373046875,-0.8017578125,0.3980712890625,-294.0,152.0,-148.0,101700.0,-3.123000144958496,0,0
2.234737500009942,0.37420654296875,-0.452850341796875,0.3095703125,-0.7476806640625,0.1220703125,-0.1220703125,-0.18310546875,0.44482421875,-0.8011474609375,0.3955078125,-294.0,152.0,-148.0,101700.0,-3.123000144958496,0,0
2.234792600007495,0.37420654296875,-0.452850341796875,0.3095703125,-0.7476806640625,0.18310546875,-0.18310546875,-0.30517578125,0.4434814453125,-0.8028564453125,0.3974609375,-294.0,152.0,-148.0,101700.0,-3.123000144958496,0,0
2.2348468999989564,0.37420654296875,-0.452850341796875,0.3095703125,-0.7476806640625,0.18310546875,-0.18310546875,-0.30517578125,0.4434814453125,-0.8028564453125,0.3974609375,-294.0,152.0,-148.0,101700.0,-3.123000144958496,0,0
2.283737400008249,0.37420654296875,-0.452850341796875,0.3095703125,-0.7476806640625,-0.1220703125,-0.1220703125,0.1220703125,0.446044921875,-0.80078125,0.39697265625,-294.0,152.0,-148.0,101700.0,-3.123000144958496,0,0
2.2837979000032647,0.37420654296875,-0.452850341796875,0.3095703125,-0.7476806640625,-0.1220703125,0.06103515625,0.1220703125,0.4442138671875,-0.800048828125,0.395751953125,-294.0,152.0,-148.0,101700.0,-3.123000144958496,0,0
2.283851300002425,0.37420654296875,-0.452850341796875,0.3095703125,-0.7476806640625,-0.1220703125,0.06103515625,0.1220703125,0.4442138671875,-0.800048828125,0.395751953125,-294.0,152.0,-148.0,101700.0,-3.123000144958496,0,0
2.2839045000000624,0.37420654296875,-0.452850341796875,0.3095703125,-0.7476806640625,0.06103515625,0.18310546875,-0.06103515625,0.4453125,-0.8013916015625,0.3980712890625,-294.0,152.0,-148.0,101700.0,-3.123000144958496,0,0
2.2839597999991383,0.37420654296875,-0.452850341796875,0.3095703125,-0.7476806640625,-0.1220703125,-0.06103515625,-0.30517578125,0.444580078125,-0.801513671875,0.3975830078125,-294.0,152.0,-148.0,101700.0,-3.123000144958496,0,0
2.2840326000005007,0.37420654296875,-0.452850341796875,0.3095703125,-0.747650146484375,0.18310546875,-0.06103515625,-0.244140625,0.4439697265625,-0.8031005859375,0.3975830078125,-294.0,152.0,-148.0,101700.0,-3.123000144958496,0,0
2.284085400009644,0.37420654296875,-0.452850341796875,0.309600830078125,-0.747650146484375,-0.06103515625,-0.244140625,-0.06103515625,0.446044921875,-0.8031005859375,0.3974609375,-294.0,152.0,-148.0,101700.0,-3.123000144958496,0,0
2.2841372000111733,0.37420654296875,-0.452850341796875,0.309600830078125,-0.747650146484375,0.06103515625,0.0,-0.06103515625,0.4449462890625,-0.8013916015625,0.395751953125,-295.0,152.0,-149.0,101700.0,-3.123000144958496,0,0
2.284189400001196,0.37420654296875,-0.452850341796875,0.309600830078125,-0.747650146484375,0.18310546875,-0.1220703125,-0.42724609375,0.4443359375,-0.80126953125,0.3970947265625,-295.0,152.0,-149.0,101700.0,-3.123000144958496,0,0
2.284242300011101,0.37408447265625,-0.45281982421875,0.309661865234375,-0.747711181640625,0.0,0.06103515625,-0.18310546875,0.4447021484375,-0.8040771484375,0.3956298828125,-295.0,152.0,-149.0,101700.0,-3.123000144958496,0,0
2.2842940999980783,0.37408447265625,-0.45281982421875,0.309661865234375,-0.747711181640625,0.244140625,-0.1220703125,-0.244140625,0.4471435546875,-0.80224609375,0.395751953125,-295.0,152.0,-149.0,101700.0,-3.123000144958496,0,0
2.284345400010352,0.37408447265625,-0.45281982421875,0.309661865234375,-0.747711181640625,0.244140625,-0.1220703125,-0.244140625,0.4471435546875,-0.80224609375,0.395751953125,-295.0,152.0,-149.0,101700.0,-3.123000144958496,0,0
2.3534118000097806,0.37408447265625,-0.45281982421875,0.309661865234375,-0.747711181640625,-0.06103515625,-0.1220703125,-0.06103515625,0.4449462890625,-0.8018798828125,0.397216796875,-295.0,152.0,-149.0,101700.0,-3.123000144958496,0,0
2.35347339999862,0.37408447265625,-0.45281982421875,0.309661865234375,-0.7476806640625,0.1220703125,-0.1220703125,-0.06103515625,0.4447021484375,-0.8028564453125,0.3973388671875,-295.0,152.0,-149.0,101700.0,-3.123000144958496,0,0
2.3535299000068335,0.37408447265625,-0.452850341796875,0.309661865234375,-0.7476806640625,0.0,0.0,-0.06103515625,0.443603515625,-0.802978515625,0.3961181640625,-295.0,152.0,-149.0,101700.0,-3.123000144958496,0,0
2.3535839000105625,0.37408447265625,-0.452850341796875,0.309661865234375,-0.7476806640625,0.06103515625,-0.18310546875,0.0,0.444580078125,-0.802490234375,0.39599609375,-295.0,152.0,-149.0,101700.0,-3.123000144958496,0,0
2.3536392000096384,0.37408447265625,-0.452850341796875,0.3096923828125,-0.7476806640625,0.0,-0.06103515625,0.0,0.446533203125,-0.8006591796875,0.3974609375,-295.0,152.0,-149.0,101700.0,-3.123000144958496,0,0
2.3536925000080373,0.37408447265625,-0.452850341796875,0.3096923828125,-0.7476806640625,-0.30517578125,-0.06103515625,-0.06103515625,0.44482421875,-0.8028564453125,0.3958740234375,-295.0,152.0,-149.0,101700.0,-3.123000144958496,0,0
2.353935300008743,0.37408447265625,-0.452850341796875,0.3096923828125,-0.7476806640625,0.0,-0.244140625,-0.06103515625,0.4444580078125,-0.802490234375,0.3955078125,-295.0,152.0,-149.0,101700.0,-3.123000144958496,0,0
2.3539880000025732,0.37408447265625,-0.452850341796875,0.3096923828125,-0.7476806640625,0.18310546875,0.0,-0.06103515625,0.445556640625,-0.8023681640625,0.396728515625,-295.0,152.0,-149.0,101700.0,-3.123000144958496,0,0
2.354041099999449,0.37408447265625,-0.452850341796875,0.3096923828125,-0.7476806640625,-0.244140625,-0.30517578125,0.0,0.44384765625,-0.8011474609375,0.3955078125,-295.0,152.0,-149.0,101700.0,-3.123000144958496,0,0
2.3540936000063084,0.37408447265625,-0.452850341796875,0.3096923828125,-0.7476806640625,-0.244140625,-0.30517578125,0.0,0.44384765625,-0.8011474609375,0.3955078125,-295.0,152.0,-149.0,101700.0,-3.123000144958496,0,0
2.3541459999978542,0.37408447265625,-0.452880859375,0.3096923828125,-0.747650146484375,0.0,0.0,-0.30517578125,0.44580078125,-0.802978515625,0.3953857421875,-295.0,152.0,-149.0,101700.0,-3.123000144958496,0,0
2.354198400003952,0.37408447265625,-0.452880859375,0.309722900390625,-0.747650146484375,0.06103515625,-0.18310546875,-0.18310546875,0.445068359375,-0.8011474609375,0.3963623046875,-295.0,152.0,-149.0,101700.0,-3.123000144958496,0,0
2.4159530000033556,0.37408447265625,-0.452880859375,0.309722900390625,-0.747650146484375,0.42724609375,-0.1220703125,0.06103515625,0.445556640625,-0.802001953125,0.3956298828125,-295.0,152.0,-149.0,101700.0,-3.123000144958496,0,0
2.416026699997019,0.37408447265625,-0.452880859375,0.309722900390625,-0.747650146484375,-0.06103515625,0.0,0.0,0.4464111328125,-0.798583984375,0.397216796875,-295.0,152.0,-149.0,101700.0,-3.123000144958496,0,0
2.4160839000105625,0.37408447265625,-0.452880859375,0.309722900390625,-0.747650146484375,0.244140625,0.06103515625,-0.06103515625,0.4443359375,-0.8018798828125,0.3975830078125,-294.0,152.0,-149.0,101700.0,-3.123000144958496,0,0
2.4161423000041395,0.37408447265625,-0.452911376953125,0.309722900390625,-0.747650146484375,0.06103515625,-0.1220703125,0.06103515625,0.444580078125,-0.80029296875,0.39404296875,-294.0,152.0,-149.0,101700.0,-3.123000144958496,0,0
2.4161976000032155,0.37408447265625,-0.452911376953125,0.309722900390625,-0.747650146484375,0.06103515625,-0.1220703125,0.06103515625,0.444580078125,-0.80029296875,0.39404296875,-294.0,152.0,-149.0,101700.0,-3.123000144958496,0,0
2.4162758000020403,0.37408447265625,-0.452911376953125,0.309722900390625,-0.747650146484375,0.1220703125,0.0,0.0,0.445068359375,-0.799560546875,0.3970947265625,-294.0,152.0,-149.0,101700.0,-3.123000144958496,0,0
2.4163300000072923,0.37408447265625,-0.452911376953125,0.309722900390625,-0.747650146484375,-0.1220703125,-0.06103515625,0.0,0.44384765625,-0.8006591796875,0.3956298828125,-294.0,152.0,-149.0,101700.0,-3.123000144958496,0,0
2.4163829000026453,0.374053955078125,-0.452911376953125,0.309722900390625,-0.747650146484375,0.244140625,-0.06103515625,-0.3662109375,0.446044921875,-0.7991943359375,0.39697265625,-294.0,152.0,-149.0,101700.0,-3.123000144958496,0,0
2.416437699997914,0.374053955078125,-0.452911376953125,0.309722900390625,-0.747650146484375,-0.1220703125,-0.06103515625,0.0,0.4444580078125,-0.799560546875,0.397216796875,-294.0,152.0,-149.0,101700.0,-3.123000144958496,0,0
2.416491000010865,0.374053955078125,-0.452911376953125,0.30975341796875,-0.74761962890625,0.1220703125,0.0,-0.06103515625,0.445556640625,-0.802490234375,0.395751953125,-294.0,152.0,-149.0,101700.0,-3.123000144958496,0,0
2.4165443000092637,0.374053955078125,-0.452911376953125,0.30975341796875,-0.74761962890625,0.06103515625,-0.06103515625,-0.244140625,0.4451904296875,-0.7999267578125,0.3961181640625,-294.0,152.0,-149.0,101700.0,-3.123000144958496,0,0
2.4744121999974595,0.374053955078125,-0.45294189453125,0.30975341796875,-0.74761962890625,0.06103515625,0.1220703125,0.0,0.4439697265625,-0.802001953125,0.3961181640625,-294.0,152.0,-149.0,101700.0,-3.123000144958496,0,0
2.4744746000069426,0.374053955078125,-0.45294189453125,0.30975341796875,-0.74761962890625,0.06103515625,0.1220703125,0.0,0.4439697265625,-0.802001953125,0.3961181640625,-294.0,152.0,-149.0,101700.0,-3.123000144958496,0,0
2.47453000000678,0.374053955078125,-0.45294189453125,0.30975341796875,-0.74761962890625,0.244140625,0.06103515625,0.06103515625,0.4453125,-0.8009033203125,0.3966064453125,-294.0,152.0,-149.0,101700.0,-3.123000144958496,0,0
2.4745837000082247,0.374053955078125,-0.45294189453125,0.30975341796875,-0.74761962890625,-0.06103515625,0.06103515625,0.06103515625,0.4447021484375,-0.803955078125,0.3970947265625,-294.0,152.0,-149.0,101700.0,-3.123000144958496,0,0
2.474639300009585,0.374053955078125,-0.45294189453125,0.30975341796875,-0.74761962890625,0.1220703125,0.1220703125,0.244140625,0.44580078125,-0.80126953125,0.3956298828125,-294.0,152.0,-149.0,101700.0,-3.123000144958496,0,0
2.4750335999997333,0.374053955078125,-0.45294189453125,0.30975341796875,-0.747589111328125,0.244140625,0.0,-0.1220703125,0.4468994140625,-0.8026123046875,0.3958740234375,-294.0,152.0,-149.0,101700.0,-3.123000144958496,0,0
2.475087800004985,0.374053955078125,-0.45294189453125,0.30975341796875,-0.747589111328125,0.06103515625,0.0,0.06103515625,0.4478759765625,-0.803955078125,0.39794921875,-294.0,152.0,-149.0,101700.0,-3.123000144958496,0,0
2.4751422999979695,0.374053955078125,-0.45294189453125,0.30975341796875,-0.747589111328125,0.1220703125,-0.1220703125,0.0,0.4444580078125,-0.8018798828125,0.3975830078125,-294.0,152.0,-149.0,101700.0,-3.123000144958496,0,0
2.4751958999986527,0.374053955078125,-0.45294189453125,0.30975341796875,-0.747589111328125,0.18310546875,-0.18310546875,-0.06103515625,0.444091796875,-0.80126953125,0.3984375,-294.0,152.0,-149.0,101700.0,-3.123000144958496,0,0
2.475249299997813,0.374053955078125,-0.45294189453125,0.30975341796875,-0.747589111328125,0.18310546875,-0.18310546875,-0.06103515625,0.444091796875,-0.80126953125,0.3984375,-293.0,153.0,-149.0,101700.0,-3.123000144958496,0,0
2.4753036000038264,0.374053955078125,-0.45294189453125,0.30975341796875,-0.747589111328125,0.18310546875,-0.18310546875,-0.06103515625,0.444091796875,-0.80126953125,0.3984375,-293.0,153.0,-149.0,101700.0,-3.123000144958496,0,0
2.540471400003298,0.373931884765625,-0.45294189453125,0.309844970703125,-0.74761962890625,0.18310546875,-0.18310546875,0.0,0.44580078125,-0.8013916015625,0.3951416015625,-293.0,153.0,-149.0,101700.0,-3.123000144958496,0,0
2.5405349000066053,0.373931884765625,-0.45294189453125,0.309844970703125,-0.74761962890625,-0.30517578125,-0.1220703125,-0.06103515625,0.444580078125,-0.801513671875,0.3944091796875,-293.0,153.0,-149.0,101700.0,-3.123000144958496,0,0
2.5405955000023823,0.373931884765625,-0.45294189453125,0.309844970703125,-0.74761962890625,-0.06103515625,0.18310546875,0.06103515625,0.4461669921875,-0.80078125,0.3958740234375,-293.0,153.0,-149.0,101700.0,-3.123000144958496,0,0
2.5406750999973156,0.373931884765625,-0.45294189453125,0.309844970703125,-0.74761962890625,0.1220703125,-0.1220703125,0.06103515625,0.4449462890625,-0.802734375,0.3968505859375,-293.0,153.0,-149.0,101700.0,-3.123000144958496,0,0
2.540846700008842,0.373931884765625,-0.45294189453125,0.309844970703125,-0.74761962890625,0.0,0.0,0.1220703125,0.4447021484375,-0.80029296875,0.3975830078125,-293.0,153.0,-149.0,101700.0,-3.123000144958496,0,0
2.5410356000065804,0.373931884765625,-0.45294189453125,0.309844970703125,-0.74761962890625,0.18310546875,0.30517578125,-0.18310546875,0.4443359375,-0.80224609375,0.3966064453125,-293.0,153.0,-149.0,101700.0,-3.123000144958496,0,0
2.541106300006504,0.373931884765625,-0.45294189453125,0.309844970703125,-0.74761962890625,0.244140625,0.0,0.06103515625,0.444091796875,-0.801025390625,0.3963623046875,-293.0,153.0,-149.0,101700.0,-3.123000144958496,0,0
2.5412419000058435,0.373931884765625,-0.45294189453125,0.309844970703125,-0.74761962890625,0.244140625,0.0,0.06103515625,0.444091796875,-0.801025390625,0.3963623046875,-293.0,153.0,-149.0,101700.0,-3.123000144958496,0,0
2.5413010000047507,0.373931884765625,-0.45294189453125,0.30987548828125,-0.74761962890625,0.1220703125,-0.06103515625,0.0,0.4447021484375,-0.80322265625,0.395751953125,-293.0,153.0,-149.0,101700.0,-3.123000144958496,0,0
2.541374699998414,0.373931884765625,-0.45294189453125,0.30987548828125,-0.74761962890625,-0.1220703125,-0.18310546875,-0.06103515625,0.4459228515625,-0.7998046875,0.3963623046875,-293.0,153.0,-149.0,101700.0,-3.123000144958496,0,0
2.5414472999982536,0.373931884765625,-0.45294189453125,0.30987548828125,-0.74761962890625,0.0,-0.06103515625,-0.06103515625,0.4456787109375,-0.8023681640625,0.39599609375,-293.0,153.0,-149.0,101700.0,-3.123000144958496,0,0
2.6042129999987083,0.373931884765625,-0.45294189453125,0.30987548828125,-0.74761962890625,-0.06103515625,-0.06103515625,0.0,0.447021484375,-0.8017578125,0.3974609375,-293.0,153.0,-149.0,101700.0,-3.123000144958496,0,0
2.604288100003032,0.373931884765625,-0.452972412109375,0.30987548828125,-0.74761962890625,0.18310546875,-0.18310546875,0.06103515625,0.4451904296875,-0.80322265625,0.3956298828125,-293.0,153.0,-149.0,101700.0,-3.123000144958496,0,0
2.604348900000332,0.373931884765625,-0.452972412109375,0.30987548828125,-0.74761962890625,0.18310546875,0.0,0.0,0.4456787109375,-0.8026123046875,0.3961181640625,-293.0,153.0,-149.0,101700.0,-3.123000144958496,0,0
2.604406400001608,0.373931884765625,-0.452972412109375,0.30987548828125,-0.74761962890625,0.18310546875,0.0,0.0,0.4456787109375,-0.8026123046875,0.3961181640625,-293.0,153.0,-149.0,101700.0,-3.123000144958496,0,0
2.6044667000096524,0.373931884765625,-0.452972412109375,0.30987548828125,-0.747589111328125,-0.06103515625,-0.1220703125,-0.06103515625,0.4432373046875,-0.800537109375,0.3978271484375,-293.0,154.0,-148.0,101700.0,-3.121000051498413,0,0
2.6052510000008624,0.374053955078125,-0.4530029296875,0.309814453125,-0.74755859375,0.18310546875,0.18310546875,-0.3662109375,0.4453125,-0.80078125,0.3975830078125,-293.0,154.0,-148.0,101700.0,-3.121000051498413,0,0
2.6053072000067914,0.374053955078125,-0.4530029296875,0.309814453125,-0.74755859375,0.3662109375,-0.30517578125,0.0,0.4444580078125,-0.801025390625,0.39794921875,-293.0,154.0,-148.0,101700.0,-3.121000051498413,0,0
2.6054016999987653,0.374053955078125,-0.4530029296875,0.309814453125,-0.74755859375,0.0,0.18310546875,0.06103515625,0.447265625,-0.801513671875,0.3966064453125,-293.0,154.0,-148.0,101700.0,-3.121000051498413,0,0
2.6054577000031713,0.374053955078125,-0.4530029296875,0.309814453125,-0.74755859375,0.0,-0.06103515625,0.18310546875,0.445556640625,-0.8028564453125,0.39697265625,-293.0,154.0,-148.0,101700.0,-3.121000051498413,0,0
2.6055125999992015,0.374053955078125,-0.4530029296875,0.309814453125,-0.74755859375,-0.06103515625,-0.06103515625,-0.18310546875,0.4456787109375,-0.802978515625,0.3988037109375,-293.0,154.0,-148.0,101700.0,-3.121000051498413,0,0
2.605774100011331,0.374053955078125,-0.4530029296875,0.309814453125,-0.74755859375,0.0,-0.06103515625,-0.06103515625,0.44677734375,-0.8006591796875,0.3990478515625,-293.0,154.0,-148.0,101700.0,-3.121000051498413,0,0
2.670436000000336,0.374053955078125,-0.4530029296875,0.309814453125,-0.74755859375,0.06103515625,-0.18310546875,-0.06103515625,0.44384765625,-0.80224609375,0.396240234375,-293.0,154.0,-148.0,101700.0,-3.121000051498413,0,0
2.670507100003306,0.3740234375,-0.4530029296875,0.309814453125,-0.74755859375,0.0,-0.30517578125,-0.18310546875,0.4459228515625,-0.8040771484375,0.3958740234375,-293.0,154.0,-148.0,101700.0,-3.121000051498413,0,0
2.670566200002213,0.3740234375,-0.4530029296875,0.309814453125,-0.74755859375,0.0,-0.30517578125,-0.18310546875,0.4459228515625,-0.8040771484375,0.3958740234375,-293.0,154.0,-148.0,101700.0,-3.121000051498413,0,0
2.6706248999980744,0.374053955078125,-0.4530029296875,0.309814453125,-0.74755859375,0.0,-0.06103515625,-0.30517578125,0.44482421875,-0.8031005859375,0.397216796875,-293.0,154.0,-148.0,101700.0,-3.121000051498413,0,0
2.670683200005442,0.374053955078125,-0.4530029296875,0.309814453125,-0.74755859375,0.06103515625,-0.42724609375,-0.18310546875,0.442626953125,-0.8006591796875,0.39599609375,-293.0,154.0,-148.0,101700.0,-3.121000051498413,0,0
2.670740300003672,0.374053955078125,-0.4530029296875,0.309844970703125,-0.74755859375,0.1220703125,-0.244140625,-0.30517578125,0.444091796875,-0.80224609375,0.3956298828125,-293.0,154.0,-148.0,101700.0,-3.121000051498413,0,0
2.670798300008755,0.374053955078125,-0.4530029296875,0.309844970703125,-0.747528076171875,-0.06103515625,-0.1220703125,0.06103515625,0.44580078125,-0.801513671875,0.395263671875,-293.0,154.0,-148.0,101700.0,-3.121000051498413,0,0
2.6708803000074113,0.374053955078125,-0.4530029296875,0.309844970703125,-0.74755859375,0.18310546875,-0.06103515625,-0.18310546875,0.4432373046875,-0.801025390625,0.398193359375,-293.0,154.0,-148.0,101700.0,-3.121000051498413,0,0
2.670936200011056,0.374053955078125,-0.4530029296875,0.309844970703125,-0.74755859375,0.0,0.0,0.06103515625,0.4466552734375,-0.8018798828125,0.396728515625,-293.0,154.0,-148.0,101700.0,-3.121000051498413,0,0
2.670993100007763,0.374053955078125,-0.4530029296875,0.309844970703125,-0.747528076171875,0.0,-0.30517578125,0.0,0.4447021484375,-0.8031005859375,0.396484375,-293.0,154.0,-148.0,101700.0,-3.121000051498413,0,0
2.6710485000076005,0.374053955078125,-0.4530029296875,0.309844970703125,-0.747528076171875,0.30517578125,0.0,-0.06103515625,0.44482421875,-0.8028564453125,0.397216796875,-293.0,154.0,-148.0,101700.0,-3.121000051498413,0,0
2.671107400004985,0.374053955078125,-0.4530029296875,0.309844970703125,-0.747528076171875,0.30517578125,0.0,-0.06103515625,0.44482421875,-0.8028564453125,0.397216796875,-293.0,154.0,-148.0,101700.0,-3.121000051498413,0,0
2.6712318000063533,0.374053955078125,-0.4530029296875,0.309844970703125,-0.74755859375,0.06103515625,0.0,-0.3662109375,0.4447021484375,-0.80126953125,0.3985595703125,-293.0,154.0,-148.0,101700.0,-3.121000051498413,0,0
2.7311432999995304,0.374359130859375,-0.453125,0.30963134765625,-0.747406005859375,0.18310546875,0.1220703125,-0.06103515625,0.446533203125,-0.8016357421875,0.39599609375,-293.0,154.0,-147.0,101700.0,-3.121000051498413,0,0
2.731207800010452,0.374359130859375,-0.453125,0.30963134765625,-0.747406005859375,0.1220703125,0.1220703125,-0.1220703125,0.44677734375,-0.80126953125,0.3974609375,-293.0,154.0,-147.0,101700.0,-3.121000051498413,0,0
2.731264600006398,0.374359130859375,-0.453125,0.30963134765625,-0.747406005859375,0.0,-0.06103515625,-0.1220703125,0.4429931640625,-0.8016357421875,0.3974609375,-293.0,154.0,-147.0,101700.0,-3.121000051498413,0,0
2.731319099999382,0.374359130859375,-0.453125,0.30963134765625,-0.747406005859375,0.06103515625,-0.06103515625,-0.1220703125,0.4462890625,-0.8013916015625,0.3980712890625,-293.0,154.0,-147.0,101700.0,-3.121000051498413,0,0
2.7313758000091184,0.374359130859375,-0.453125,0.30963134765625,-0.747406005859375,-0.06103515625,-0.18310546875,-0.1220703125,0.4442138671875,-0.801513671875,0.3978271484375,-293.0,154.0,-147.0,101700.0,-3.121000051498413,0,0
2.731443800003035,0.374359130859375,-0.453125,0.30963134765625,-0.747406005859375,-0.06103515625,-0.244140625,0.06103515625,0.4447021484375,-0.802001953125,0.3975830078125,-293.0,154.0,-147.0,101700.0,-3.121000051498413,0,0
2.7315052000049036,0.374359130859375,-0.453125,0.30963134765625,-0.747406005859375,-0.06103515625,-0.244140625,0.06103515625,0.4447021484375,-0.802001953125,0.3975830078125,-293.0,154.0,-147.0,101700.0,-3.121000051498413,0,0
2.731558400002541,0.374359130859375,-0.453125,0.30963134765625,-0.747406005859375,-0.18310546875,-0.48828125,0.0,0.4453125,-0.8001708984375,0.3997802734375,-293.0,154.0,-147.0,101700.0,-3.121000051498413,0,0
2.7316105000063544,0.374359130859375,-0.453125,0.30963134765625,-0.747406005859375,0.1220703125,0.0,0.1220703125,0.4454345703125,-0.8018798828125,0.398681640625,-293.0,154.0,-147.0,101700.0,-3.121000051498413,0,0
2.731662200007122,0.374359130859375,-0.453125,0.30963134765625,-0.747406005859375,0.18310546875,-0.06103515625,0.0,0.446044921875,-0.8009033203125,0.3990478515625,-293.0,154.0,-147.0,101700.0,-3.121000051498413,0,0
2.731714399997145,0.374359130859375,-0.453094482421875,0.30963134765625,-0.747406005859375,0.1220703125,0.0,-0.244140625,0.44482421875,-0.8017578125,0.3975830078125,-293.0,154.0,-147.0,101700.0,-3.121000051498413,0,0
2.8043333000096027,0.374359130859375,-0.453094482421875,0.30963134765625,-0.747406005859375,0.06103515625,-0.06103515625,-0.1220703125,0.445556640625,-0.800537109375,0.3992919921875,-293.0,154.0,-147.0,101700.0,-3.121000051498413,0,0
2.804407900010119,0.374359130859375,-0.453094482421875,0.30963134765625,-0.747406005859375,0.244140625,0.0,0.3662109375,0.4461669921875,-0.8037109375,0.3985595703125,-293.0,154.0,-147.0,101700.0,-3.121000051498413,0,0
2.804465799999889,0.374359130859375,-0.453094482421875,0.30963134765625,-0.747406005859375,0.244140625,0.0,0.3662109375,0.4461669921875,-0.8037109375,0.3985595703125,-293.0,154.0,-147.0,101700.0,-3.121000051498413,0,0
2.804521600002772,0.374359130859375,-0.453094482421875,0.30963134765625,-0.747406005859375,0.244140625,-0.1220703125,0.1220703125,0.445068359375,-0.802978515625,0.4002685546875,-293.0,154.0,-147.0,101700.0,-3.121000051498413,0,0
2.8045792000048095,0.374359130859375,-0.453094482421875,0.30963134765625,-0.747406005859375,-0.06103515625,-0.1220703125,0.0,0.4444580078125,-0.8040771484375,0.3975830078125,-293.0,154.0,-147.0,101700.0,-3.121000051498413,0,0
2.805064800006221,0.374359130859375,-0.453094482421875,0.30963134765625,-0.747406005859375,-0.06103515625,0.1220703125,-0.30517578125,0.4454345703125,-0.8040771484375,0.3980712890625,-293.0,154.0,-147.0,101700.0,-3.122000217437744,0,0
2.8051250999997137,0.374359130859375,-0.453094482421875,0.30963134765625,-0.747406005859375,0.18310546875,-0.18310546875,-0.244140625,0.4447021484375,-0.8011474609375,0.3975830078125,-293.0,154.0,-147.0,101700.0,-3.122000217437744,0,0
2.8051793000049656,0.37469482421875,-0.453216552734375,0.3094482421875,-0.74725341796875,0.0,-0.244140625,-0.1220703125,0.44482421875,-0.8026123046875,0.396728515625,-293.0,154.0,-147.0,101700.0,-3.122000217437744,0,0
2.8052333000086946,0.374664306640625,-0.453216552734375,0.3094482421875,-0.74725341796875,0.30517578125,-0.06103515625,-0.1220703125,0.4473876953125,-0.80029296875,0.3975830078125,-293.0,154.0,-147.0,101700.0,-3.122000217437744,0,0
2.805286300004809,0.37469482421875,-0.453216552734375,0.3094482421875,-0.74725341796875,0.18310546875,-0.06103515625,-0.1220703125,0.4439697265625,-0.8006591796875,0.39794921875,-293.0,154.0,-147.0,101700.0,-3.122000217437744,0,0
2.8053392000001622,0.37469482421875,-0.453216552734375,0.3094482421875,-0.74725341796875,0.0,0.06103515625,-0.1220703125,0.443359375,-0.801025390625,0.398681640625,-293.0,154.0,-147.0,101700.0,-3.122000217437744,0,0
2.8054638000030536,0.37469482421875,-0.45318603515625,0.3094482421875,-0.74725341796875,0.1220703125,0.06103515625,-0.244140625,0.4439697265625,-0.80029296875,0.3974609375,-293.0,154.0,-147.0,101700.0,-3.122000217437744,0,0
2.85937869999907,0.37469482421875,-0.45318603515625,0.3094482421875,-0.74725341796875,0.1220703125,0.06103515625,-0.244140625,0.4439697265625,-0.80029296875,0.3974609375,-293.0,154.0,-147.0,101700.0,-3.122000217437744,0,0
2.8594421000016155,0.37469482421875,-0.45318603515625,0.3094482421875,-0.747283935546875,-0.06103515625,-0.06103515625,0.06103515625,0.4449462890625,-0.801025390625,0.3983154296875,-293.0,154.0,-147.0,101700.0,-3.122000217437744,0,0
2.859526600004756,0.37469482421875,-0.45318603515625,0.309417724609375,-0.747283935546875,0.06103515625,-0.18310546875,-0.06103515625,0.447021484375,-0.8006591796875,0.399169921875,-293.0,154.0,-147.0,101700.0,-3.122000217437744,0,0
2.8595865000097547,0.37469482421875,-0.45318603515625,0.309417724609375,-0.747283935546875,-0.18310546875,0.06103515625,-0.06103515625,0.445068359375,-0.8026123046875,0.399658203125,-293.0,154.0,-147.0,101700.0,-3.122000217437744,0,0
2.859759600003599,0.37469482421875,-0.45318603515625,0.309417724609375,-0.747283935546875,0.0,-0.1220703125,0.1220703125,0.4439697265625,-0.7991943359375,0.398193359375,-293.0,154.0,-147.0,101700.0,-3.122000217437744,0,0
2.8598370000108844,0.37469482421875,-0.45318603515625,0.309417724609375,-0.747283935546875,0.0,0.244140625,-0.30517578125,0.4443359375,-0.8011474609375,0.3984375,-293.0,154.0,-147.0,101700.0,-3.122000217437744,0,0
2.8600590999994893,0.37469482421875,-0.45318603515625,0.309417724609375,-0.747283935546875,-0.18310546875,-0.244140625,0.0,0.4468994140625,-0.80078125,0.3973388671875,-293.0,154.0,-147.0,101700.0,-3.122000217437744,0,0
2.8601173000060953,0.37469482421875,-0.45318603515625,0.309417724609375,-0.747283935546875,0.30517578125,-0.06103515625,-0.1220703125,0.4447021484375,-0.80322265625,0.3988037109375,-293.0,154.0,-147.0,101700.0,-3.122000217437744,0,0
2.8601720000006026,0.37469482421875,-0.45318603515625,0.309417724609375,-0.747283935546875,-0.1220703125,-0.06103515625,0.0,0.445556640625,-0.802734375,0.3984375,-293.0,154.0,-147.0,101700.0,-3.122000217437744,0,0
2.860223399999086,0.37469482421875,-0.45318603515625,0.309417724609375,-0.747283935546875,-0.1220703125,-0.06103515625,0.0,0.445556640625,-0.802734375,0.3984375,-293.0,154.0,-147.0,101700.0,-3.122000217437744,0,0
2.860277400002815,0.37469482421875,-0.45318603515625,0.309417724609375,-0.747283935546875,-0.244140625,-0.06103515625,0.0,0.4466552734375,-0.8013916015625,0.3985595703125,-293.0,154.0,-147.0,101700.0,-3.122000217437744,0,0
2.8603622000082396,0.37469482421875,-0.45318603515625,0.309417724609375,-0.747283935546875,0.244140625,0.0,-0.18310546875,0.4449462890625,-0.800537109375,0.3983154296875,-293.0,154.0,-147.0,101700.0,-3.122000217437744,0,0
2.92305800000031,0.37469482421875,-0.45318603515625,0.30938720703125,-0.747283935546875,0.1220703125,0.06103515625,-0.244140625,0.447265625,-0.80224609375,0.398193359375,-294.0,154.0,-147.0,101700.0,-3.122000217437744,0,0
2.923119200000656,0.375,-0.45330810546875,0.3092041015625,-0.747161865234375,0.6103515625,-0.18310546875,0.0,0.44775390625,-0.8013916015625,0.3992919921875,-294.0,154.0,-147.0,101700.0,-3.122000217437744,0,0
2.923177000004216,0.375,-0.45330810546875,0.3092041015625,-0.747161865234375,-0.18310546875,0.0,-0.1220703125,0.445556640625,-0.800537109375,0.4002685546875,-294.0,154.0,-147.0,101700.0,-3.122000217437744,0,0
2.9232307000056608,0.375,-0.45330810546875,0.3092041015625,-0.747161865234375,0.1220703125,0.0,-0.18310546875,0.4453125,-0.802490234375,0.3975830078125,-294.0,154.0,-147.0,101700.0,-3.122000217437744,0,0
2.923286700010067,0.375,-0.45330810546875,0.3092041015625,-0.747161865234375,-0.1220703125,0.06103515625,0.0,0.4459228515625,-0.802734375,0.3975830078125,-294.0,154.0,-147.0,101700.0,-3.122000217437744,0,0
2.923356400002376,0.375,-0.45330810546875,0.3092041015625,-0.747161865234375,-0.1220703125,0.06103515625,0.0,0.4459228515625,-0.802734375,0.3975830078125,-294.0,154.0,-147.0,101700.0,-3.122000217437744,0,0
2.923408800008474,0.375,-0.45330810546875,0.3092041015625,-0.747161865234375,0.30517578125,0.06103515625,-0.06103515625,0.44580078125,-0.7999267578125,0.3994140625,-294.0,154.0,-147.0,101700.0,-3.122000217437744,0,0
2.923643100002664,0.375,-0.453277587890625,0.3092041015625,-0.747161865234375,0.1220703125,0.0,0.0,0.446044921875,-0.8013916015625,0.398193359375,-294.0,154.0,-147.0,101700.0,-3.122000217437744,0,0
2.923709599999711,0.375,-0.453277587890625,0.3092041015625,-0.747161865234375,-0.18310546875,-0.18310546875,-0.18310546875,0.4459228515625,-0.80126953125,0.398681640625,-294.0,154.0,-147.0,101700.0,-3.122000217437744,0,0
2.923764699997264,0.375,-0.453277587890625,0.3092041015625,-0.747161865234375,0.06103515625,-0.06103515625,-0.06103515625,0.4453125,-0.802734375,0.3995361328125,-294.0,154.0,-147.0,101700.0,-3.122000217437744,0,0
2.923818299997947,0.375,-0.453277587890625,0.3092041015625,-0.747161865234375,-0.244140625,-0.30517578125,-0.06103515625,0.4459228515625,-0.8035888671875,0.3968505859375,-294.0,154.0,-147.0,101700.0,-3.122000217437744,0,0
2.923869799997192,0.375,-0.453277587890625,0.3092041015625,-0.747161865234375,0.18310546875,0.1220703125,-0.1220703125,0.4442138671875,-0.801513671875,0.3978271484375,-294.0,154.0,-147.0,101700.0,-3.122000217437744,0,0
2.9852078999974765,0.375,-0.453277587890625,0.309173583984375,-0.747161865234375,-0.1220703125,-0.06103515625,-0.1220703125,0.4451904296875,-0.802001953125,0.398681640625,-294.0,154.0,-147.0,101700.0,-3.122000217437744,0,0
