Time stamp(sec),adc1,adc2,roll_angular_rate,pitch_angular_rate,yaw_angular_rate,acc_X,acc_Y,acc_Z,mag_X,mag_Y,mag_Z,pressure,altitude
0.054667299991706386,0.368499755859375,-0.450897216796875,0.31298828125,-0.750244140625,-0.1220703125,0.1220703125,-0.06103515625,0.4443359375,-0.8037109375,0.3966064453125,-294.0,151.0,-150.0,101700.0,-3.121000051498413,0,0
0.05473599999095313,0.368499755859375,-0.450897216796875,0.31298828125,-0.750244140625,0.06103515625,-0.06103515625,-0.244140625,0.4466552734375,-0.8033447265625,0.3968505859375,-294.0,151.0,-150.0,101700.0,-3.121000051498413,0,0
0.054792499999166466,0.368499755859375,-0.450897216796875,0.31298828125,-0.750244140625,0.06103515625,-0.06103515625,-0.244140625,0.4466552734375,-0.8033447265625,0.3968505859375,-294.0,151.0,-150.0,101700.0,-3.119000196456909,0,0
0.05484699999215081,0.368499755859375,-0.450897216796875,0.31298828125,-0.750244140625,-0.1220703125,-0.06103515625,0.0,0.4449462890625,-0.8013916015625,0.3975830078125,-294.0,151.0,-150.0,101700.0,-3.119000196456909,0,0
0.054902399991988204,0.368499755859375,-0.450897216796875,0.31298828125,-0.750244140625,-0.1220703125,-0.06103515625,0.0,0.4449462890625,-0.8013916015625,0.3975830078125,-294.0,151.0,-150.0,101700.0,-3.119000196456909,0,0
0.05495520000113174,0.368499755859375,-0.450897216796875,0.31298828125,-0.750244140625,0.1220703125,-0.1220703125,-0.06103515625,0.4459228515625,-0.801025390625,0.3992919921875,-294.0,151.0,-150.0,101700.0,-3.119000196456909,0,0
0.05500719998963177,0.368499755859375,-0.450897216796875,0.31298828125,-0.750244140625,0.0,-0.244140625,-0.244140625,0.44384765625,-0.801025390625,0.3970947265625,-294.0,151.0,-150.0,101700.0,-3.119000196456909,0,0
0.05520079999405425,0.368499755859375,-0.450897216796875,0.31298828125,-0.750244140625,0.1220703125,-0.1220703125,-0.06103515625,0.4449462890625,-0.8009033203125,0.3985595703125,-294.0,151.0,-150.0,101700.0,-3.119000196456909,0,0
0.055264599999645725,0.368499755859375,-0.45086669921875,0.31298828125,-0.750244140625,0.06103515625,-0.18310546875,-0.06103515625,0.4459228515625,-0.802490234375,0.3980712890625,-294.0,151.0,-150.0,101700.0,-3.119000196456909,0,0
0.05532169999787584,0.368499755859375,-0.45086669921875,0.31298828125,-0.750244140625,0.06103515625,-0.244140625,0.06103515625,0.4459228515625,-0.8037109375,0.396728515625,-294.0,151.0,-150.0,101700.0,-3.119000196456909,0,0
0.05537529999855906,0.368499755859375,-0.45086669921875,0.31298828125,-0.750244140625,0.30517578125,-0.06103515625,-0.244140625,0.4459228515625,-0.800537109375,0.3974609375,-294.0,151.0,-150.0,101700.0,-3.119000196456909,0,0
0.055463099997723475,0.368499755859375,-0.45086669921875,0.31298828125,-0.750244140625,0.30517578125,0.0,0.1220703125,0.4453125,-0.80322265625,0.397216796875,-294.0,151.0,-150.0,101700.0,-3.119000196456909,0,0
0.055516499996883795,0.368499755859375,-0.45086669921875,0.31298828125,-0.750244140625,-0.18310546875,0.0,-0.1220703125,0.4456787109375,-0.8021240234375,0.3973388671875,-294.0,150.0,-149.0,101700.0,-3.119000196456909,0,0
0.12639900000067428,0.3685302734375,-0.45086669921875,0.31298828125,-0.750244140625,-0.06103515625,0.0,-0.06103515625,0.445556640625,-0.8016357421875,0.399658203125,-294.0,150.0,-149.0,101700.0,-3.119000196456909,0,0
0.12646079999103677,0.3685302734375,-0.45086669921875,0.31298828125,-0.750244140625,0.0,0.06103515625,-0.3662109375,0.4447021484375,-0.8017578125,0.3975830078125,-294.0,150.0,-149.0,101700.0,-3.119000196456909,0,0
0.12651679999544285,0.3685302734375,-0.45086669921875,0.31298828125,-0.750274658203125,0.244140625,0.244140625,-0.06103515625,0.4476318359375,-0.80224609375,0.3994140625,-294.0,150.0,-149.0,101700.0,-3.119000196456909,0,0
0.12657059999764897,0.3685302734375,-0.45086669921875,0.31298828125,-0.750274658203125,0.1220703125,0.0,-0.06103515625,0.447509765625,-0.80126953125,0.3994140625,-294.0,150.0,-149.0,101700.0,-3.119000196456909,0,0
0.1266260999982478,0.3685302734375,-0.45086669921875,0.31298828125,-0.750274658203125,0.0,0.06103515625,0.0,0.4454345703125,-0.8017578125,0.3975830078125,-294.0,150.0,-149.0,101700.0,-3.119000196456909,0,0
0.1270226999913575,0.3685302734375,-0.45086669921875,0.31298828125,-0.750274658203125,0.0,0.18310546875,0.06103515625,0.4456787109375,-0.803466796875,0.3983154296875,-294.0,150.0,-149.0,101700.0,-3.119000196456909,0,0
0.12708449999627192,0.3685302734375,-0.45086669921875,0.31298828125,-0.750274658203125,0.1220703125,0.0,0.0,0.445556640625,-0.8004150390625,0.3988037109375,-294.0,150.0,-149.0,101700.0,-3.119000196456909,0,0
0.1271392999915406,0.3685302734375,-0.45086669921875,0.31298828125,-0.750274658203125,0.244140625,-0.30517578125,-0.1220703125,0.4439697265625,-0.801513671875,0.3975830078125,-294.0,150.0,-149.0,101700.0,-3.122000217437744,0,0
0.12719419998757076,0.3685302734375,-0.45086669921875,0.31298828125,-0.750274658203125,0.244140625,-0.30517578125,-0.1220703125,0.4439697265625,-0.801513671875,0.3975830078125,-294.0,150.0,-149.0,101700.0,-3.122000217437744,0,0
0.1272469999967143,0.3685302734375,-0.45086669921875,0.31298828125,-0.750274658203125,0.0,-0.06103515625,-0.1220703125,0.446533203125,-0.8004150390625,0.3970947265625,-294.0,150.0,-149.0,101700.0,-3.122000217437744,0,0
0.12729929998749867,0.3685302734375,-0.450836181640625,0.312957763671875,-0.750274658203125,0.244140625,0.0,0.06103515625,0.4461669921875,-0.80126953125,0.3995361328125,-294.0,150.0,-149.0,101700.0,-3.122000217437744,0,0
0.18402129999594763,0.3685302734375,-0.450836181640625,0.312957763671875,-0.750274658203125,0.0,-0.06103515625,0.0,0.4453125,-0.8037109375,0.400146484375,-294.0,150.0,-149.0,101700.0,-3.122000217437744,0,0
0.18408479999925476,0.3685302734375,-0.450836181640625,0.312957763671875,-0.750274658203125,0.1220703125,0.18310546875,0.0,0.447021484375,-0.802978515625,0.398193359375,-294.0,150.0,-149.0,101700.0,-3.122000217437744,0,0
0.18414099999063183,0.3685302734375,-0.450836181640625,0.31298828125,-0.750274658203125,0.06103515625,0.1220703125,-0.244140625,0.4442138671875,-0.8023681640625,0.3978271484375,-294.0,150.0,-149.0,101700.0,-3.122000217437744,0,0
0.18419459999131504,0.3685302734375,-0.4508056640625,0.31298828125,-0.750274658203125,-0.1220703125,-0.06103515625,-0.1220703125,0.444580078125,-0.80126953125,0.3988037109375,-294.0,150.0,-149.0,101700.0,-3.122000217437744,0,0
0.18424769998819102,0.3685302734375,-0.4508056640625,0.31298828125,-0.750274658203125,-0.1220703125,-0.06103515625,-0.1220703125,0.444580078125,-0.80126953125,0.3988037109375,-294.0,150.0,-149.0,101700.0,-3.122000217437744,0,0
0.18431620000046678,0.3685302734375,-0.4508056640625,0.312957763671875,-0.750274658203125,-0.18310546875,-0.18310546875,-0.06103515625,0.4459228515625,-0.80078125,0.3995361328125,-294.0,150.0,-149.0,101700.0,-3.122000217437744,0,0
0.184373099997174,0.368560791015625,-0.4508056640625,0.312957763671875,-0.75030517578125,-0.244140625,-0.06103515625,-0.1220703125,0.4447021484375,-0.7996826171875,0.3974609375,-294.0,150.0,-149.0,101700.0,-3.122000217437744,0,0
0.18461399999796413,0.368560791015625,-0.4508056640625,0.312957763671875,-0.75030517578125,-0.06103515625,-0.06103515625,-0.18310546875,0.44384765625,-0.8004150390625,0.3994140625,-294.0,150.0,-149.0,101700.0,-3.122000217437744,0,0
0.18466949999856297,0.368560791015625,-0.4508056640625,0.312957763671875,-0.75030517578125,0.18310546875,0.06103515625,-0.06103515625,0.4456787109375,-0.802490234375,0.3975830078125,-294.0,150.0,-149.0,101700.0,-3.122000217437744,0,0
0.18472219999239314,0.368560791015625,-0.450775146484375,0.312957763671875,-0.75030517578125,0.1220703125,0.0,-0.06103515625,0.4447021484375,-0.8004150390625,0.3994140625,-294.0,150.0,-149.0,101700.0,-3.122000217437744,0,0
0.18477429999620654,0.368560791015625,-0.450775146484375,0.312957763671875,-0.75030517578125,0.0,0.06103515625,-0.06103515625,0.4468994140625,-0.803466796875,0.3975830078125,-294.0,150.0,-149.0,101700.0,-3.122000217437744,0,0
0.2466470999934245,0.368560791015625,-0.450775146484375,0.312957763671875,-0.75030517578125,0.0,-0.30517578125,0.06103515625,0.4466552734375,-0.8016357421875,0.39892578125,-294.0,150.0,-149.0,101700.0,-3.122000217437744,0,0
0.24670969998987857,0.368560791015625,-0.450775146484375,0.312957763671875,-0.75030517578125,0.18310546875,0.1220703125,-0.1220703125,0.447021484375,-0.801025390625,0.3988037109375,-294.0,150.0,-149.0,101700.0,-3.122000217437744,0,0
0.2467657999950461,0.368560791015625,-0.450775146484375,0.312957763671875,-0.75030517578125,-0.06103515625,-0.1220703125,-0.06103515625,0.443115234375,-0.7996826171875,0.400146484375,-294.0,150.0,-149.0,101700.0,-3.122000217437744,0,0
0.24682109999412205,0.368560791015625,-0.450775146484375,0.312957763671875,-0.75030517578125,-0.06103515625,-0.1220703125,-0.06103515625,0.443115234375,-0.7996826171875,0.400146484375,-294.0,150.0,-149.0,101700.0,-3.122000217437744,0,0
0.2468800999922678,0.368560791015625,-0.450775146484375,0.312957763671875,-0.75030517578125,0.18310546875,-0.06103515625,-0.18310546875,0.4437255859375,-0.7996826171875,0.398193359375,-294.0,150.0,-149.0,101700.0,-3.118000030517578,0,0
0.24693539999134373,0.368560791015625,-0.450775146484375,0.31292724609375,-0.750335693359375,0.0,0.06103515625,-0.18310546875,0.44482421875,-0.800048828125,0.3968505859375,-294.0,150.0,-149.0,101700.0,-3.118000030517578,0,0
0.24698839998745825,0.368560791015625,-0.45074462890625,0.31292724609375,-0.750335693359375,0.1220703125,0.0,-0.06103515625,0.445556640625,-0.8009033203125,0.39794921875,-294.0,150.0,-149.0,101700.0,-3.118000030517578,0,0
0.24705919998814352,0.368560791015625,-0.450775146484375,0.31292724609375,-0.750335693359375,0.0,0.1220703125,0.1220703125,0.4464111328125,-0.802734375,0.4000244140625,-294.0,150.0,-149.0,101700.0,-3.118000030517578,0,0
0.2471116999950027,0.368560791015625,-0.45074462890625,0.31292724609375,-0.750335693359375,-0.06103515625,0.0,-0.06103515625,0.4462890625,-0.80126953125,0.39697265625,-294.0,150.0,-149.0,101700.0,-3.118000030517578,0,0
0.24716410000110045,0.368560791015625,-0.45074462890625,0.31292724609375,-0.750335693359375,-0.244140625,-0.244140625,0.0,0.4425048828125,-0.8023681640625,0.3995361328125,-294.0,150.0,-149.0,101700.0,-3.118000030517578,0,0
0.24721669999416918,0.368560791015625,-0.45074462890625,0.31292724609375,-0.750335693359375,0.06103515625,0.0,-0.1220703125,0.4464111328125,-0.801025390625,0.399658203125,-294.0,150.0,-149.0,101700.0,-3.118000030517578,0,0
0.24726809999265242,0.368560791015625,-0.45074462890625,0.31292724609375,-0.750335693359375,0.06103515625,0.0,0.0,0.4444580078125,-0.8023681640625,0.398681640625,-294.0,150.0,-149.0,101700.0,-3.118000030517578,0,0
0.2473208000010345,0.368560791015625,-0.45074462890625,0.31292724609375,-0.750335693359375,0.06103515625,0.0,0.0,0.4444580078125,-0.8023681640625,0.398681640625,-294.0,150.0,-149.0,101700.0,-3.118000030517578,0,0
0.31300629999896046,0.36865234375,-0.450775146484375,0.312835693359375,-0.75030517578125,0.06103515625,-0.244140625,-0.244140625,0.4481201171875,-0.8011474609375,0.3983154296875,-295.0,150.0,-149.0,101700.0,-3.118000030517578,0,0
0.31307039999228436,0.368682861328125,-0.450775146484375,0.312835693359375,-0.75030517578125,-0.244140625,0.0,-0.244140625,0.44580078125,-0.801513671875,0.3994140625,-295.0,150.0,-149.0,101700.0,-3.118000030517578,0,0
0.3131276999920374,0.36865234375,-0.450775146484375,0.312835693359375,-0.75030517578125,0.18310546875,-0.1220703125,0.0,0.4468994140625,-0.8001708984375,0.3985595703125,-295.0,150.0,-149.0,101700.0,-3.118000030517578,0,0
0.3131827999895904,0.36865234375,-0.450775146484375,0.312835693359375,-0.75030517578125,0.30517578125,0.0,0.18310546875,0.446044921875,-0.8021240234375,0.39892578125,-295.0,150.0,-149.0,101700.0,-3.118000030517578,0,0
0.31323949999932665,0.368682861328125,-0.450775146484375,0.312835693359375,-0.75030517578125,0.0,-0.18310546875,-0.06103515625,0.446044921875,-0.8016357421875,0.4010009765625,-295.0,150.0,-149.0,101700.0,-3.118000030517578,0,0
0.31393789999128785,0.368682861328125,-0.450775146484375,0.312835693359375,-0.75030517578125,0.06103515625,0.0,0.06103515625,0.4476318359375,-0.8026123046875,0.400390625,-295.0,150.0,-149.0,101700.0,-3.118000030517578,0,0
0.3139960999978939,0.368682861328125,-0.450775146484375,0.312835693359375,-0.75030517578125,0.06103515625,0.0,0.244140625,0.44580078125,-0.80126953125,0.4005126953125,-295.0,150.0,-149.0,101700.0,-3.118000030517578,0,0
0.3140523999900324,0.368682861328125,-0.450775146484375,0.312835693359375,-0.75030517578125,0.06103515625,0.0,0.244140625,0.44580078125,-0.80126953125,0.4005126953125,-295.0,150.0,-149.0,101700.0,-3.118000030517578,0,0
0.31410579998919275,0.368682861328125,-0.45074462890625,0.31280517578125,-0.750335693359375,0.1220703125,-0.1220703125,0.06103515625,0.4468994140625,-0.802001953125,0.3997802734375,-295.0,150.0,-149.0,101700.0,-3.118000030517578,0,0
0.3141590999875916,0.368682861328125,-0.450775146484375,0.31280517578125,-0.750335693359375,-0.18310546875,-0.18310546875,-0.06103515625,0.4464111328125,-0.8023681640625,0.39794921875,-295.0,150.0,-149.0,101700.0,-3.121000051498413,0,0
0.31421369999588933,0.368682861328125,-0.450775146484375,0.31280517578125,-0.750335693359375,0.0,0.0,-0.06103515625,0.446044921875,-0.801513671875,0.3980712890625,-295.0,150.0,-149.0,101700.0,-3.121000051498413,0,0
0.37398160000157077,0.368682861328125,-0.45074462890625,0.31280517578125,-0.750335693359375,-0.1220703125,-0.06103515625,-0.1220703125,0.44580078125,-0.80224609375,0.399658203125,-295.0,150.0,-149.0,101700.0,-3.121000051498413,0,0
0.3740438999957405,0.368682861328125,-0.45074462890625,0.31280517578125,-0.750335693359375,-0.244140625,0.06103515625,0.0,0.4451904296875,-0.802001953125,0.3983154296875,-295.0,150.0,-149.0,101700.0,-3.121000051498413,0,0
0.37409979999938514,0.368682861328125,-0.45074462890625,0.31280517578125,-0.750335693359375,0.244140625,-0.06103515625,-0.18310546875,0.44580078125,-0.801513671875,0.3973388671875,-295.0,150.0,-149.0,101700.0,-3.121000051498413,0,0
0.3741518999886466,0.368682861328125,-0.45074462890625,0.31280517578125,-0.750335693359375,0.244140625,-0.06103515625,-0.18310546875,0.44580078125,-0.801513671875,0.3973388671875,-295.0,150.0,-149.0,101700.0,-3.121000051498413,0,0
0.3742059999931371,0.368682861328125,-0.45074462890625,0.31280517578125,-0.750335693359375,0.0,0.1220703125,-0.244140625,0.44482421875,-0.8006591796875,0.3995361328125,-295.0,150.0,-149.0,101700.0,-3.121000051498413,0,0
0.37427210000169,0.368682861328125,-0.45074462890625,0.31280517578125,-0.750335693359375,0.06103515625,0.0,0.18310546875,0.4476318359375,-0.80078125,0.3984375,-295.0,150.0,-149.0,101700.0,-3.121000051498413,0,0
0.3743264999939129,0.368682861328125,-0.45074462890625,0.31280517578125,-0.750335693359375,0.06103515625,0.0,0.18310546875,0.4476318359375,-0.80078125,0.3984375,-295.0,150.0,-149.0,101700.0,-3.121000051498413,0,0
0.3744153000006918,0.368682861328125,-0.45074462890625,0.31280517578125,-0.750335693359375,-0.06103515625,-0.1220703125,0.1220703125,0.4466552734375,-0.8001708984375,0.3985595703125,-295.0,152.0,-148.0,101700.0,-3.121000051498413,0,0
0.3744678999937605,0.36895751953125,-0.45086669921875,0.3126220703125,-0.75018310546875,0.3662109375,0.0,-0.06103515625,0.447021484375,-0.8016357421875,0.398193359375,-295.0,152.0,-148.0,101700.0,-3.121000051498413,0,0
0.374519799996051,0.36895751953125,-0.45086669921875,0.312591552734375,-0.75018310546875,0.0,0.06103515625,0.18310546875,0.4461669921875,-0.8021240234375,0.3978271484375,-295.0,152.0,-148.0,101700.0,-3.121000051498413,0,0
0.37457119999453425,0.368988037109375,-0.45086669921875,0.312591552734375,-0.75018310546875,0.42724609375,-0.06103515625,0.1220703125,0.4464111328125,-0.80126953125,0.400634765625,-295.0,152.0,-148.0,101700.0,-3.121000051498413,0,0
0.43639379998785444,0.368988037109375,-0.45086669921875,0.312591552734375,-0.750213623046875,-0.1220703125,-0.06103515625,0.1220703125,0.4451904296875,-0.80029296875,0.3973388671875,-295.0,152.0,-148.0,101700.0,-3.121000051498413,0,0
0.4364657999976771,0.368988037109375,-0.45086669921875,0.312591552734375,-0.750213623046875,0.06103515625,-0.30517578125,-0.30517578125,0.442626953125,-0.8011474609375,0.39892578125,-295.0,152.0,-148.0,101700.0,-3.121000051498413,0,0
0.43652439999277703,0.368988037109375,-0.45086669921875,0.312591552734375,-0.750213623046875,0.06103515625,-0.30517578125,-0.30517578125,0.442626953125,-0.8011474609375,0.39892578125,-295.0,152.0,-148.0,101700.0,-3.121000051498413,0,0
0.4365798999933759,0.368988037109375,-0.45086669921875,0.312591552734375,-0.750213623046875,-0.06103515625,-0.244140625,-0.18310546875,0.4444580078125,-0.800537109375,0.3992919921875,-295.0,152.0,-148.0,101700.0,-3.121000051498413,0,0
0.4366371999931289,0.368988037109375,-0.45086669921875,0.312591552734375,-0.750213623046875,0.06103515625,-0.06103515625,-0.18310546875,0.4486083984375,-0.8037109375,0.3984375,-295.0,152.0,-148.0,101700.0,-3.121000051498413,0,0
0.436693199997535,0.368988037109375,-0.45086669921875,0.312591552734375,-0.750213623046875,0.18310546875,-0.06103515625,0.18310546875,0.4444580078125,-0.80126953125,0.3984375,-295.0,152.0,-148.0,101700.0,-3.118000030517578,0,0
0.4367476999905193,0.368988037109375,-0.450836181640625,0.312591552734375,-0.750213623046875,0.06103515625,0.06103515625,0.0,0.4459228515625,-0.8033447265625,0.3995361328125,-295.0,152.0,-148.0,101700.0,-3.118000030517578,0,0
0.4375121999910334,0.368988037109375,-0.450836181640625,0.312591552734375,-0.750213623046875,0.1220703125,0.244140625,0.1220703125,0.44384765625,-0.8006591796875,0.399169921875,-295.0,152.0,-148.0,101700.0,-3.118000030517578,0,0
0.4375673999893479,0.368988037109375,-0.450836181640625,0.312591552734375,-0.750213623046875,0.06103515625,-0.244140625,-0.06103515625,0.444091796875,-0.802001953125,0.396728515625,-295.0,152.0,-148.0,101700.0,-3.118000030517578,0,0
0.4376206999877468,0.368988037109375,-0.450836181640625,0.312591552734375,-0.750213623046875,-0.06103515625,-0.244140625,-0.06103515625,0.445068359375,-0.8001708984375,0.398681640625,-295.0,152.0,-148.0,101700.0,-3.118000030517578,0,0
0.43767519999528304,0.368988037109375,-0.450836181640625,0.312591552734375,-0.750213623046875,0.244140625,-0.1220703125,-0.06103515625,0.44677734375,-0.8013916015625,0.3978271484375,-295.0,152.0,-148.0,101700.0,-3.118000030517578,0,0
0.4377273999998579,0.368988037109375,-0.450836181640625,0.312591552734375,-0.750213623046875,0.244140625,-0.1220703125,-0.06103515625,0.44677734375,-0.8013916015625,0.3978271484375,-295.0,152.0,-148.0,101700.0,-3.118000030517578,0,0
0.4377803999959724,0.368988037109375,-0.450836181640625,0.312591552734375,-0.750213623046875,0.0,0.1220703125,0.0,0.44482421875,-0.7984619140625,0.3992919921875,-295.0,152.0,-148.0,101700.0,-3.118000030517578,0,0
0.503150899996399,0.368988037109375,-0.450836181640625,0.312591552734375,-0.750213623046875,0.06103515625,0.06103515625,-0.1220703125,0.4456787109375,-0.803466796875,0.3995361328125,-295.0,152.0,-148.0,101700.0,-3.118000030517578,0,0
0.5032130999898072,0.368988037109375,-0.450836181640625,0.312591552734375,-0.750213623046875,0.0,-0.1220703125,0.18310546875,0.44580078125,-0.8037109375,0.3968505859375,-295.0,152.0,-148.0,101700.0,-3.118000030517578,0,0
0.5032695999980206,0.369384765625,-0.45098876953125,0.312347412109375,-0.750030517578125,-0.06103515625,0.0,0.06103515625,0.4439697265625,-0.8021240234375,0.3975830078125,-295.0,153.0,-148.0,101700.0,-3.118000030517578,0,0
0.5033239999902435,0.369384765625,-0.45098876953125,0.312347412109375,-0.750030517578125,-0.1220703125,0.0,0.0,0.44677734375,-0.8017578125,0.3978271484375,-295.0,153.0,-148.0,101700.0,-3.118000030517578,0,0
0.504527600001893,0.369384765625,-0.451019287109375,0.312347412109375,-0.75,-0.244140625,-0.30517578125,-0.1220703125,0.4468994140625,-0.8026123046875,0.3973388671875,-295.0,153.0,-148.0,101700.0,-3.118000030517578,0,0
0.5046934999991208,0.369384765625,-0.451019287109375,0.312347412109375,-0.75,0.18310546875,-0.06103515625,0.0,0.4464111328125,-0.8011474609375,0.3963623046875,-295.0,153.0,-148.0,101700.0,-3.118000030517578,0,0
0.5047532999888062,0.369384765625,-0.451019287109375,0.312347412109375,-0.75,0.18310546875,-0.06103515625,0.0,0.4464111328125,-0.8011474609375,0.3963623046875,-295.0,153.0,-148.0,101700.0,-3.118000030517578,0,0
0.5048429999878863,0.369384765625,-0.451019287109375,0.312347412109375,-0.75,-0.244140625,-0.1220703125,0.1220703125,0.4454345703125,-0.8023681640625,0.39892578125,-295.0,153.0,-148.0,101700.0,-3.118000030517578,0,0
0.5048967999900924,0.369384765625,-0.451019287109375,0.312347412109375,-0.75,0.244140625,-0.244140625,-0.18310546875,0.4461669921875,-0.8031005859375,0.3992919921875,-295.0,153.0,-148.0,101700.0,-3.118000030517578,0,0
0.5049514999991516,0.369384765625,-0.451019287109375,0.312347412109375,-0.75,0.1220703125,-0.1220703125,-0.244140625,0.4466552734375,-0.8009033203125,0.3980712890625,-295.0,153.0,-148.0,101700.0,-3.118000030517578,0,0
0.5050045999960275,0.369384765625,-0.451019287109375,0.312347412109375,-0.75,0.06103515625,0.30517578125,0.06103515625,0.445068359375,-0.80224609375,0.39794921875,-295.0,153.0,-148.0,101700.0,-3.118000030517578,0,0
0.5638099999923725,0.369384765625,-0.451019287109375,0.312347412109375,-0.75,0.06103515625,-0.06103515625,-0.1220703125,0.4454345703125,-0.8013916015625,0.3961181640625,-295.0,153.0,-148.0,101700.0,-3.119000196456909,0,0
0.5638707999896724,0.369384765625,-0.451019287109375,0.312347412109375,-0.75,0.30517578125,0.0,0.18310546875,0.4459228515625,-0.800537109375,0.396240234375,-295.0,153.0,-148.0,101700.0,-3.119000196456909,0,0
0.5639273999986472,0.369384765625,-0.451019287109375,0.312347412109375,-0.75,0.30517578125,0.0,0.18310546875,0.4459228515625,-0.800537109375,0.396240234375,-295.0,153.0,-148.0,101700.0,-3.119000196456909,0,0
0.5639802999940002,0.369384765625,-0.4510498046875,0.312347412109375,-0.75,0.06103515625,-0.06103515625,0.06103515625,0.4468994140625,-0.8013916015625,0.3978271484375,-295.0,153.0,-148.0,101700.0,-3.119000196456909,0,0
0.564034899987746,0.369384765625,-0.4510498046875,0.312347412109375,-0.75,0.1220703125,-0.18310546875,0.0,0.445068359375,-0.8023681640625,0.3990478515625,-295.0,153.0,-148.0,101700.0,-3.119000196456909,0,0
0.5645922999974573,0.369384765625,-0.451019287109375,0.312347412109375,-0.75,-0.18310546875,0.06103515625,0.0,0.4449462890625,-0.8021240234375,0.3974609375,-295.0,153.0,-148.0,101700.0,-3.119000196456909,0,0
0.5646498999994947,0.369384765625,-0.451019287109375,0.312347412109375,-0.75,-0.18310546875,-0.06103515625,0.06103515625,0.445556640625,-0.8013916015625,0.3978271484375,-295.0,153.0,-148.0,101700.0,-3.119000196456909,0,0
0.5647035000001779,0.369384765625,-0.4510498046875,0.312347412109375,-0.75,0.3662109375,-0.1220703125,-0.1220703125,0.4464111328125,-0.802978515625,0.3956298828125,-295.0,153.0,-148.0,101700.0,-3.119000196456909,0,0
0.5647578999924008,0.369384765625,-0.4510498046875,0.312347412109375,-0.75,0.3662109375,-0.1220703125,-0.1220703125,0.4464111328125,-0.802978515625,0.3956298828125,-295.0,152.0,-148.0,101700.0,-3.119000196456909,0,0
0.5648106000007829,0.369598388671875,-0.45111083984375,0.312225341796875,-0.749908447265625,-0.1220703125,-0.1220703125,-0.244140625,0.443359375,-0.802978515625,0.3970947265625,-295.0,152.0,-148.0,101700.0,-3.119000196456909,0,0
0.5648648999922443,0.369598388671875,-0.45111083984375,0.312225341796875,-0.749908447265625,0.18310546875,-0.244140625,-0.06103515625,0.4443359375,-0.802001953125,0.396484375,-295.0,152.0,-148.0,101700.0,-3.119000196456909,0,0
0.5649186999944504,0.36956787109375,-0.45111083984375,0.312225341796875,-0.749908447265625,0.1220703125,-0.06103515625,-0.06103515625,0.4478759765625,-0.8018798828125,0.3988037109375,-295.0,152.0,-148.0,101700.0,-3.119000196456909,0,0
0.6323421999986749,0.36956787109375,-0.45111083984375,0.312225341796875,-0.749908447265625,0.1220703125,-0.06103515625,-0.06103515625,0.4478759765625,-0.8018798828125,0.3988037109375,-295.0,152.0,-148.0,101700.0,-3.119000196456909,0,0
0.6324096999887843,0.36956787109375,-0.451141357421875,0.312225341796875,-0.749908447265625,0.1220703125,-0.244140625,0.1220703125,0.445068359375,-0.8009033203125,0.39697265625,-295.0,152.0,-148.0,101700.0,-3.119000196456909,0,0
0.632469799995306,0.36956787109375,-0.451141357421875,0.312225341796875,-0.749908447265625,0.06103515625,-0.244140625,-0.06103515625,0.4476318359375,-0.80029296875,0.396484375,-295.0,152.0,-148.0,101700.0,-3.119000196456909,0,0
0.6325293999980204,0.369598388671875,-0.45111083984375,0.312225341796875,-0.749908447265625,-0.06103515625,-0.30517578125,-0.1220703125,0.4449462890625,-0.8021240234375,0.3985595703125,-295.0,152.0,-148.0,101700.0,-3.119000196456909,0,0
0.632590799999889,0.36956787109375,-0.45111083984375,0.312225341796875,-0.749908447265625,0.18310546875,0.0,-0.244140625,0.4443359375,-0.80078125,0.3995361328125,-295.0,152.0,-148.0,101700.0,-3.119000196456909,0,0
0.6326516999979503,0.369598388671875,-0.45111083984375,0.312225341796875,-0.749908447265625,-0.244140625,-0.06103515625,-0.18310546875,0.44775390625,-0.802978515625,0.3978271484375,-295.0,152.0,-148.0,101700.0,-3.119000196456909,0,0
0.632724800001597,0.369598388671875,-0.45111083984375,0.312225341796875,-0.749908447265625,0.244140625,0.30517578125,-0.06103515625,0.4454345703125,-0.802734375,0.398193359375,-295.0,152.0,-148.0,101700.0,-3.117000102996826,0,0
0.6328357999882428,0.369598388671875,-0.45111083984375,0.312225341796875,-0.749908447265625,0.18310546875,-0.06103515625,-0.1220703125,0.444091796875,-0.8023681640625,0.3985595703125,-295.0,152.0,-148.0,101700.0,-3.117000102996826,0,0
0.6329025000013644,0.369598388671875,-0.45111083984375,0.312225341796875,-0.749908447265625,-0.30517578125,-0.1220703125,-0.06103515625,0.4454345703125,-0.80224609375,0.398681640625,-295.0,152.0,-148.0,101700.0,-3.117000102996826,0,0
0.6329626999940956,0.369598388671875,-0.45111083984375,0.312225341796875,-0.749908447265625,-0.30517578125,-0.1220703125,-0.06103515625,0.4454345703125,-0.80224609375,0.398681640625,-295.0,152.0,-148.0,101700.0,-3.117000102996826,0,0
0.6330215999914799,0.369598388671875,-0.45111083984375,0.312225341796875,-0.749908447265625,0.0,-0.1220703125,-0.18310546875,0.446044921875,-0.8016357421875,0.3978271484375,-295.0,152.0,-148.0,101700.0,-3.117000102996826,0,0
0.6330801000003703,0.369598388671875,-0.45111083984375,0.312225341796875,-0.749908447265625,0.1220703125,-0.06103515625,-0.30517578125,0.4468994140625,-0.800048828125,0.3955078125,-295.0,152.0,-148.0,101700.0,-3.117000102996826,0,0
0.705473299996811,0.369598388671875,-0.45111083984375,0.312225341796875,-0.749908447265625,-0.06103515625,0.0,-0.18310546875,0.4459228515625,-0.8013916015625,0.398193359375,-295.0,152.0,-148.0,101700.0,-3.117000102996826,0,0
0.7055434999929275,0.369598388671875,-0.45111083984375,0.312225341796875,-0.749908447265625,-0.30517578125,-0.1220703125,-0.06103515625,0.44775390625,-0.801025390625,0.3978271484375,-295.0,152.0,-148.0,101700.0,-3.117000102996826,0,0
0.7056039999879431,0.369598388671875,-0.45111083984375,0.312225341796875,-0.749908447265625,-0.06103515625,0.0,-0.06103515625,0.44580078125,-0.803955078125,0.399658203125,-295.0,152.0,-148.0,101700.0,-3.117000102996826,0,0
0.7056634999898961,0.369781494140625,-0.451202392578125,0.312103271484375,-0.749786376953125,-0.06103515625,-0.18310546875,0.0,0.444580078125,-0.8006591796875,0.3963623046875,-295.0,151.0,-148.0,101700.0,-3.117000102996826,0,0
0.7057227999903262,0.369781494140625,-0.451202392578125,0.312103271484375,-0.749786376953125,-0.1220703125,-0.18310546875,-0.18310546875,0.4462890625,-0.80126953125,0.397216796875,-295.0,151.0,-148.0,101700.0,-3.117000102996826,0,0
0.7057979999954114,0.369781494140625,-0.451202392578125,0.312103271484375,-0.749786376953125,-0.1220703125,-0.18310546875,-0.18310546875,0.4462890625,-0.80126953125,0.397216796875,-295.0,151.0,-148.0,101700.0,-3.117000102996826,0,0
0.7058555999974487,0.369781494140625,-0.451202392578125,0.312103271484375,-0.749786376953125,0.0,-0.06103515625,-0.1220703125,0.4471435546875,-0.80224609375,0.3966064453125,-295.0,151.0,-148.0,101700.0,-3.117000102996826,0,0
0.7059127999964403,0.369781494140625,-0.451202392578125,0.312103271484375,-0.749786376953125,0.30517578125,-0.1220703125,-0.244140625,0.445068359375,-0.802001953125,0.398681640625,-295.0,151.0,-148.0,101700.0,-3.117000102996826,0,0
0.705968499998562,0.369781494140625,-0.451202392578125,0.312103271484375,-0.749786376953125,0.1220703125,-0.18310546875,-0.1220703125,0.4454345703125,-0.802490234375,0.3968505859375,-295.0,151.0,-148.0,101700.0,-3.117000102996826,0,0
0.7060250999929849,0.369781494140625,-0.451202392578125,0.312103271484375,-0.749786376953125,0.1220703125,-0.06103515625,-0.06103515625,0.4449462890625,-0.80126953125,0.399169921875,-295.0,151.0,-148.0,101700.0,-3.117000102996826,0,0
0.7060820999904536,0.369781494140625,-0.451202392578125,0.312103271484375,-0.749786376953125,0.18310546875,0.0,-0.06103515625,0.4449462890625,-0.8017578125,0.3978271484375,-295.0,151.0,-148.0,101700.0,-3.117000102996826,0,0
0.7061378999933368,0.369781494140625,-0.451202392578125,0.312103271484375,-0.749786376953125,-0.30517578125,-0.1220703125,-0.30517578125,0.444580078125,-0.80224609375,0.3988037109375,-295.0,151.0,-148.0,101700.0,-3.117000102996826,0,0
0.7559840999892913,0.369781494140625,-0.451202392578125,0.312103271484375,-0.749786376953125,0.0,-0.18310546875,-0.06103515625,0.444580078125,-0.801025390625,0.3992919921875,-295.0,151.0,-148.0,101700.0,-3.119000196456909,0,0
0.7560520999977598,0.36981201171875,-0.451171875,0.3121337890625,-0.749786376953125,0.0,-0.18310546875,0.06103515625,0.445068359375,-0.8018798828125,0.3994140625,-295.0,151.0,-148.0,101700.0,-3.119000196456909,0,0
0.7561114999989513,0.36981201171875,-0.451171875,0.3121337890625,-0.749786376953125,0.1220703125,0.1220703125,0.0,0.4427490234375,-0.8016357421875,0.3975830078125,-295.0,151.0,-148.0,101700.0,-3.119000196456909,0,0
0.7561685999971814,0.36981201171875,-0.451171875,0.3121337890625,-0.74981689453125,0.1220703125,0.1220703125,0.0,0.4427490234375,-0.8016357421875,0.3975830078125,-295.0,151.0,-148.0,101700.0,-3.119000196456909,0,0
0.7563834999891696,0.36981201171875,-0.451171875,0.312103271484375,-0.74981689453125,-0.06103515625,0.06103515625,0.18310546875,0.4456787109375,-0.7998046875,0.4005126953125,-295.0,151.0,-148.0,101700.0,-3.119000196456909,0,0
0.7564503999892622,0.36981201171875,-0.451171875,0.312103271484375,-0.74981689453125,0.0,-0.06103515625,0.06103515625,0.4449462890625,-0.7999267578125,0.3994140625,-295.0,151.0,-148.0,101700.0,-3.119000196456909,0,0
0.7565104999957839,0.36981201171875,-0.451171875,0.3121337890625,-0.74981689453125,-0.1220703125,-0.06103515625,0.18310546875,0.4454345703125,-0.802734375,0.3970947265625,-295.0,151.0,-148.0,101700.0,-3.119000196456909,0,0
0.7565705999877537,0.36981201171875,-0.451171875,0.3121337890625,-0.74981689453125,0.244140625,-0.18310546875,0.0,0.4444580078125,-0.8035888671875,0.3975830078125,-295.0,151.0,-148.0,101700.0,-3.119000196456909,0,0
0.7566274999990128,0.36981201171875,-0.451171875,0.3121337890625,-0.74981689453125,-0.3662109375,-0.1220703125,0.06103515625,0.4425048828125,-0.8037109375,0.3988037109375,-295.0,151.0,-148.0,101700.0,-3.119000196456909,0,0
0.7566848999995273,0.36981201171875,-0.451171875,0.3121337890625,-0.74981689453125,-0.3662109375,-0.1220703125,0.06103515625,0.4425048828125,-0.8037109375,0.3988037109375,-295.0,151.0,-148.0,101700.0,-3.119000196456909,0,0
0.7567425999877742,0.3701171875,-0.4512939453125,0.31195068359375,-0.749664306640625,0.1220703125,-0.1220703125,0.1220703125,0.443115234375,-0.7998046875,0.3978271484375,-296.0,150.0,-147.0,101700.0,-3.119000196456909,0,0
0.8223311999900034,0.3701171875,-0.451263427734375,0.31195068359375,-0.749664306640625,0.30517578125,-0.06103515625,-0.18310546875,0.4451904296875,-0.8016357421875,0.3988037109375,-296.0,150.0,-147.0,101700.0,-3.119000196456909,0,0
0.8224008999968646,0.3701171875,-0.451263427734375,0.31195068359375,-0.749664306640625,-0.18310546875,-0.1220703125,-0.1220703125,0.445068359375,-0.8009033203125,0.39794921875,-296.0,150.0,-147.0,101700.0,-3.119000196456909,0,0
0.8224587000004249,0.3701171875,-0.4512939453125,0.31195068359375,-0.749664306640625,0.06103515625,-0.06103515625,-0.06103515625,0.4453125,-0.8013916015625,0.3951416015625,-296.0,150.0,-147.0,101700.0,-3.119000196456909,0,0
0.8225130999926478,0.3701171875,-0.4512939453125,0.31195068359375,-0.749664306640625,-0.244140625,-0.18310546875,0.0,0.4456787109375,-0.802978515625,0.398681640625,-296.0,150.0,-147.0,101700.0,-3.119000196456909,0,0
0.8225673999986611,0.3701171875,-0.451263427734375,0.31195068359375,-0.749664306640625,0.30517578125,0.06103515625,0.0,0.44580078125,-0.8026123046875,0.3995361328125,-296.0,150.0,-147.0,101700.0,-3.119000196456909,0,0
0.8226212000008672,0.3701171875,-0.451263427734375,0.31195068359375,-0.749664306640625,0.1220703125,-0.06103515625,0.1220703125,0.445556640625,-0.80078125,0.39794921875,-296.0,150.0,-147.0,101700.0,-3.119000196456909,0,0
0.8366841999959433,0.370147705078125,-0.451263427734375,0.31195068359375,-0.749664306640625,0.06103515625,-0.06103515625,0.0,0.44482421875,-0.8028564453125,0.3983154296875,-296.0,150.0,-147.0,101700.0,-3.119000196456909,0,0
0.836748899993836,0.370147705078125,-0.451263427734375,0.31195068359375,-0.749664306640625,0.244140625,0.1220703125,-0.06103515625,0.446533203125,-0.8021240234375,0.3984375,-296.0,150.0,-147.0,101700.0,-3.119000196456909,0,0
0.8368041999929119,0.370147705078125,-0.451263427734375,0.31195068359375,-0.749664306640625,0.244140625,0.1220703125,-0.06103515625,0.446533203125,-0.8021240234375,0.3984375,-296.0,150.0,-147.0,101700.0,-3.119000196456909,0,0
0.8368604999996023,0.370147705078125,-0.451263427734375,0.31195068359375,-0.749664306640625,0.1220703125,-0.06103515625,-0.06103515625,0.443603515625,-0.80078125,0.396484375,-296.0,150.0,-147.0,101700.0,-3.119000196456909,0,0
0.8369164999894565,0.370147705078125,-0.451263427734375,0.31195068359375,-0.749664306640625,0.0,-0.30517578125,-0.1220703125,0.4454345703125,-0.799560546875,0.3984375,-296.0,150.0,-147.0,101700.0,-3.119000196456909,0,0
0.8369715000008,0.370147705078125,-0.451263427734375,0.31195068359375,-0.749664306640625,0.0,-0.1220703125,-0.1220703125,0.4437255859375,-0.7999267578125,0.399169921875,-296.0,150.0,-147.0,101700.0,-3.119000196456909,0,0
0.8861162999965018,0.370147705078125,-0.451263427734375,0.31195068359375,-0.749664306640625,0.18310546875,-0.06103515625,0.0,0.44580078125,-0.8031005859375,0.3990478515625,-296.0,150.0,-147.0,101700.0,-3.119000196456909,0,0
0.8861793999967631,0.370147705078125,-0.451263427734375,0.31195068359375,-0.749664306640625,0.1220703125,0.244140625,0.1220703125,0.4449462890625,-0.80126953125,0.39794921875,-296.0,150.0,-147.0,101700.0,-3.119000196456909,0,0
0.8862343999935547,0.370147705078125,-0.451263427734375,0.31195068359375,-0.749664306640625,-0.18310546875,0.0,0.06103515625,0.4478759765625,-0.802001953125,0.399658203125,-296.0,150.0,-147.0,101700.0,-3.119000196456909,0,0
0.8862884999980452,0.370147705078125,-0.451263427734375,0.31195068359375,-0.749664306640625,-0.18310546875,0.0,0.06103515625,0.4478759765625,-0.802001953125,0.399658203125,-296.0,150.0,-147.0,101700.0,-3.119000196456909,0,0
0.8863452999939909,0.370147705078125,-0.451263427734375,0.31195068359375,-0.749664306640625,0.06103515625,0.06103515625,0.18310546875,0.4453125,-0.80078125,0.39794921875,-296.0,150.0,-147.0,101700.0,-3.118000030517578,0,0
0.8864428999950178,0.370330810546875,-0.451324462890625,0.31182861328125,-0.74957275390625,0.244140625,0.0,0.06103515625,0.445556640625,-0.8017578125,0.400146484375,-296.0,150.0,-148.0,101700.0,-3.118000030517578,0,0
0.8864971000002697,0.370330810546875,-0.451324462890625,0.31182861328125,-0.74957275390625,0.18310546875,-0.06103515625,-0.18310546875,0.444580078125,-0.8009033203125,0.39697265625,-296.0,150.0,-148.0,101700.0,-3.118000030517578,0,0
0.8865502999979071,0.370330810546875,-0.45135498046875,0.31182861328125,-0.74957275390625,0.0,-0.1220703125,-0.06103515625,0.4468994140625,-0.8033447265625,0.3984375,-296.0,150.0,-148.0,101700.0,-3.118000030517578,0,0
0.886602699989453,0.370330810546875,-0.45135498046875,0.31182861328125,-0.74957275390625,-0.244140625,-0.06103515625,-0.1220703125,0.4466552734375,-0.800048828125,0.3978271484375,-296.0,150.0,-148.0,101700.0,-3.118000030517578,0,0
0.8866550999955507,0.370330810546875,-0.45135498046875,0.31182861328125,-0.74957275390625,0.0,-0.06103515625,-0.1220703125,0.4447021484375,-0.8004150390625,0.3984375,-296.0,150.0,-148.0,101700.0,-3.118000030517578,0,0
0.8867068999970797,0.370330810546875,-0.45135498046875,0.31182861328125,-0.74957275390625,0.18310546875,-0.06103515625,-0.244140625,0.4459228515625,-0.8018798828125,0.3984375,-296.0,150.0,-148.0,101700.0,-3.118000030517578,0,0
0.8867606999992859,0.370330810546875,-0.451324462890625,0.31182861328125,-0.74957275390625,0.0,-0.18310546875,-0.1220703125,0.4454345703125,-0.80224609375,0.39892578125,-296.0,150.0,-148.0,101700.0,-3.118000030517578,0,0
0.9463511999929324,0.370330810546875,-0.45135498046875,0.31182861328125,-0.74957275390625,-0.18310546875,-0.18310546875,-0.18310546875,0.4478759765625,-0.800537109375,0.3984375,-296.0,150.0,-148.0,101700.0,-3.118000030517578,0,0
0.9464175999892177,0.370330810546875,-0.45135498046875,0.31182861328125,-0.74957275390625,-0.1220703125,0.06103515625,-0.1220703125,0.4464111328125,-0.802734375,0.399169921875,-296.0,150.0,-148.0,101700.0,-3.118000030517578,0,0
0.9464747999882093,0.370330810546875,-0.45135498046875,0.31182861328125,-0.74957275390625,-0.18310546875,-0.1220703125,-0.06103515625,0.444580078125,-0.8016357421875,0.39892578125,-296.0,150.0,-148.0,101700.0,-3.118000030517578,0,0
0.9479443999880459,0.370330810546875,-0.45135498046875,0.311798095703125,-0.74957275390625,-0.18310546875,-0.06103515625,0.0,0.445068359375,-0.79931640625,0.3978271484375,-296.0,150.0,-148.0,101700.0,-3.118000030517578,0,0
0.9480158999940613,0.370330810546875,-0.45135498046875,0.311798095703125,-0.74957275390625,0.1220703125,0.1220703125,0.06103515625,0.446044921875,-0.7989501953125,0.3975830078125,-296.0,150.0,-148.0,101700.0,-3.118000030517578,0,0
0.948076199987554,0.370330810546875,-0.451324462890625,0.311798095703125,-0.74957275390625,0.06103515625,0.1220703125,0.0,0.4482421875,-0.8009033203125,0.398681640625,-296.0,150.0,-148.0,101700.0,-3.118000030517578,0,0
0.9481737999885809,0.370330810546875,-0.451324462890625,0.311798095703125,-0.74957275390625,0.06103515625,0.1220703125,0.0,0.4482421875,-0.8009033203125,0.398681640625,-296.0,150.0,-148.0,101700.0,-3.118000030517578,0,0
0.9482473999960348,0.370330810546875,-0.451324462890625,0.311798095703125,-0.74957275390625,0.1220703125,-0.18310546875,-0.06103515625,0.444091796875,-0.798828125,0.3992919921875,-296.0,150.0,-148.0,101700.0,-3.118000030517578,0,0
0.9483065999957034,0.370330810546875,-0.451324462890625,0.311798095703125,-0.74957275390625,-0.1220703125,-0.06103515625,0.0,0.4434814453125,-0.802490234375,0.39697265625,-296.0,150.0,-148.0,101700.0,-3.118000030517578,0,0
1.0143971999932546,0.370330810546875,-0.451324462890625,0.311798095703125,-0.74957275390625,-0.18310546875,-0.18310546875,-0.06103515625,0.4468994140625,-0.80126953125,0.398193359375,-296.0,151.0,-148.0,101700.0,-3.118000030517578,0,0
1.0144626999972388,0.370635986328125,-0.451446533203125,0.311614990234375,-0.74945068359375,0.06103515625,-0.06103515625,-0.244140625,0.444091796875,-0.8013916015625,0.3992919921875,-296.0,151.0,-148.0,101700.0,-3.118000030517578,0,0
1.0145192999916617,0.370635986328125,-0.451446533203125,0.311614990234375,-0.74945068359375,0.3662109375,0.06103515625,0.0,0.447021484375,-0.803466796875,0.3985595703125,-296.0,151.0,-148.0,101700.0,-3.118000030517578,0,0
1.014573799999198,0.370635986328125,-0.451446533203125,0.311614990234375,-0.74945068359375,0.0,-0.244140625,-0.06103515625,0.4461669921875,-0.8026123046875,0.3997802734375,-296.0,151.0,-148.0,101700.0,-3.118000030517578,0,0
1.0146287999959895,0.370635986328125,-0.451446533203125,0.311614990234375,-0.74945068359375,0.244140625,0.30517578125,-0.244140625,0.4456787109375,-0.8026123046875,0.4000244140625,-296.0,151.0,-148.0,101700.0,-3.118000030517578,0,0
1.014683999994304,0.370635986328125,-0.451446533203125,0.311614990234375,-0.74945068359375,0.1220703125,0.0,-0.06103515625,0.44384765625,-0.801513671875,0.3990478515625,-296.0,151.0,-148.0,101700.0,-3.118000030517578,0,0
1.0147495999990497,0.370635986328125,-0.451446533203125,0.311614990234375,-0.74945068359375,0.06103515625,-0.244140625,-0.18310546875,0.4432373046875,-0.8038330078125,0.3984375,-296.0,151.0,-148.0,101700.0,-3.118000030517578,0,0
1.014804299993557,0.370635986328125,-0.451446533203125,0.311614990234375,-0.74945068359375,0.06103515625,-0.244140625,-0.18310546875,0.4432373046875,-0.8038330078125,0.3984375,-296.0,151.0,-148.0,101700.0,-3.118000030517578,0,0
1.0148975999909453,0.370635986328125,-0.451446533203125,0.311614990234375,-0.74945068359375,-0.1220703125,-0.06103515625,0.0,0.4464111328125,-0.802734375,0.3997802734375,-296.0,151.0,-148.0,101700.0,-3.118000030517578,0,0
1.0149520999984816,0.370635986328125,-0.451446533203125,0.311614990234375,-0.74945068359375,0.06103515625,0.0,0.06103515625,0.4461669921875,-0.8013916015625,0.3988037109375,-296.0,151.0,-148.0,101700.0,-3.118000030517578,0,0
1.0150046999915503,0.370635986328125,-0.451416015625,0.311614990234375,-0.74945068359375,0.30517578125,0.0,-0.18310546875,0.4451904296875,-0.802001953125,0.40087890625,-296.0,151.0,-148.0,101700.0,-3.118000030517578,0,0
1.0150565999938408,0.370635986328125,-0.451416015625,0.311614990234375,-0.74945068359375,-0.18310546875,-0.1220703125,-0.06103515625,0.445556640625,-0.800048828125,0.4002685546875,-296.0,151.0,-148.0,101700.0,-3.118000030517578,0,0
1.0151100999937626,0.37066650390625,-0.451416015625,0.31158447265625,-0.74945068359375,0.06103515625,-0.1220703125,-0.1220703125,0.4453125,-0.799560546875,0.4013671875,-296.0,151.0,-148.0,101700.0,-3.118000030517578,0,0
1.0780372000008356,0.37066650390625,-0.451416015625,0.31158447265625,-0.749481201171875,0.18310546875,0.1220703125,0.18310546875,0.4466552734375,-0.8001708984375,0.3994140625,-296.0,151.0,-148.0,101700.0,-3.118000030517578,0,0
1.0781007999903522,0.37066650390625,-0.451416015625,0.31158447265625,-0.749481201171875,0.18310546875,0.1220703125,0.18310546875,0.4466552734375,-0.8001708984375,0.3994140625,-296.0,151.0,-148.0,101700.0,-3.118000030517578,0,0
1.0781578999885824,0.37066650390625,-0.451416015625,0.31158447265625,-0.749481201171875,0.3662109375,0.0,-0.18310546875,0.444580078125,-0.802490234375,0.3988037109375,-296.0,151.0,-148.0,101700.0,-3.118000030517578,0,0
1.0783417999919038,0.37066650390625,-0.451385498046875,0.31158447265625,-0.749481201171875,-0.18310546875,-0.30517578125,0.1220703125,0.4462890625,-0.8006591796875,0.39990234375,-296.0,151.0,-148.0,101700.0,-3.118000030517578,0,0
1.0784270000003744,0.37066650390625,-0.451385498046875,0.31158447265625,-0.749481201171875,0.0,-0.06103515625,-0.1220703125,0.4461669921875,-0.8001708984375,0.3992919921875,-296.0,151.0,-148.0,101700.0,-3.118000030517578,0,0
1.0784878999984358,0.37066650390625,-0.451385498046875,0.31158447265625,-0.749481201171875,-0.06103515625,0.0,0.06103515625,0.4453125,-0.800537109375,0.3995361328125,-296.0,151.0,-148.0,101699.0,-3.116000175476074,0,0
1.0785426999937044,0.370849609375,-0.45147705078125,0.31146240234375,-0.7493896484375,-0.06103515625,0.0,0.06103515625,0.4453125,-0.800537109375,0.3995361328125,-296.0,150.0,-148.0,101699.0,-3.116000175476074,0,0
1.0830447999906028,0.370849609375,-0.45147705078125,0.31146240234375,-0.7493896484375,-0.3662109375,0.06103515625,-0.1220703125,0.4461669921875,-0.7999267578125,0.400146484375,-296.0,150.0,-148.0,101699.0,-3.116000175476074,0,0
1.0831151999882422,0.370849609375,-0.45147705078125,0.31146240234375,-0.7493896484375,0.06103515625,-0.06103515625,0.0,0.4478759765625,-0.802001953125,0.3980712890625,-296.0,150.0,-148.0,101699.0,-3.116000175476074,0,0
1.0831725999887567,0.370849609375,-0.45147705078125,0.311431884765625,-0.7493896484375,0.0,-0.1220703125,0.0,0.4462890625,-0.8016357421875,0.399658203125,-296.0,150.0,-148.0,101699.0,-3.116000175476074,0,0
1.0832282999908784,0.370849609375,-0.45147705078125,0.311431884765625,-0.7493896484375,-0.18310546875,-0.18310546875,-0.06103515625,0.4449462890625,-0.80224609375,0.3985595703125,-296.0,150.0,-148.0,101699.0,-3.116000175476074,0,0
1.1417311999975936,0.370849609375,-0.45147705078125,0.311431884765625,-0.7493896484375,-0.1220703125,0.06103515625,-0.06103515625,0.44580078125,-0.8016357421875,0.399169921875,-296.0,150.0,-148.0,101699.0,-3.116000175476074,0,0
1.1418058999988716,0.370849609375,-0.45147705078125,0.311431884765625,-0.7493896484375,0.0,0.18310546875,-0.06103515625,0.446044921875,-0.8009033203125,0.3985595703125,-296.0,150.0,-148.0,101699.0,-3.116000175476074,0,0
1.1418651999993017,0.370849609375,-0.45147705078125,0.311431884765625,-0.7493896484375,0.0,0.18310546875,-0.06103515625,0.446044921875,-0.8009033203125,0.3985595703125,-296.0,150.0,-148.0,101699.0,-3.116000175476074,0,0
1.141919699992286,0.370849609375,-0.45147705078125,0.311431884765625,-0.7493896484375,0.1220703125,0.0,0.0,0.444580078125,-0.80029296875,0.3985595703125,-296.0,150.0,-148.0,101699.0,-3.116000175476074,0,0
1.141976099999738,0.370849609375,-0.45147705078125,0.311431884765625,-0.7493896484375,0.06103515625,-0.244140625,-0.1220703125,0.4468994140625,-0.80078125,0.3985595703125,-296.0,150.0,-148.0,101699.0,-3.116000175476074,0,0
1.1430471999919973,0.370849609375,-0.45147705078125,0.311431884765625,-0.7493896484375,-0.1220703125,0.18310546875,-0.18310546875,0.4459228515625,-0.80322265625,0.3994140625,-296.0,150.0,-148.0,101699.0,-3.116000175476074,0,0
1.143112799996743,0.370849609375,-0.45147705078125,0.311431884765625,-0.7493896484375,-0.1220703125,0.0,-0.1220703125,0.4444580078125,-0.800537109375,0.3973388671875,-296.0,150.0,-148.0,101699.0,-3.116000175476074,0,0
1.1431715999933658,0.370849609375,-0.45147705078125,0.311431884765625,-0.7493896484375,-0.1220703125,0.0,-0.1220703125,0.4444580078125,-0.800537109375,0.3973388671875,-296.0,150.0,-148.0,101699.0,-3.116000175476074,0,0
1.1432309999945574,0.370849609375,-0.45147705078125,0.311431884765625,-0.7493896484375,0.06103515625,0.1220703125,-0.1220703125,0.4466552734375,-0.8013916015625,0.3983154296875,-296.0,150.0,-148.0,101699.0,-3.116000175476074,0,0
1.143293100001756,0.370849609375,-0.45147705078125,0.311431884765625,-0.7493896484375,-0.06103515625,0.0,-0.06103515625,0.445556640625,-0.80126953125,0.3968505859375,-296.0,150.0,-148.0,101699.0,-3.116000175476074,0,0
1.1433525999891572,0.370849609375,-0.45147705078125,0.311431884765625,-0.7493896484375,0.244140625,0.1220703125,-0.1220703125,0.4468994140625,-0.80078125,0.3970947265625,-296.0,150.0,-148.0,101699.0,-3.116000175476074,0,0
1.2040389999892795,0.370849609375,-0.45147705078125,0.311431884765625,-0.7493896484375,0.0,-0.1220703125,-0.06103515625,0.4461669921875,-0.8021240234375,0.3961181640625,-296.0,150.0,-148.0,101699.0,-3.116000175476074,0,0
1.2041008999949554,0.370849609375,-0.45147705078125,0.311431884765625,-0.7493896484375,-0.06103515625,-0.18310546875,-0.1220703125,0.44580078125,-0.800537109375,0.3985595703125,-296.0,150.0,-148.0,101700.0,-3.119000196456909,0,0
1.2041576999909012,0.370849609375,-0.45147705078125,0.311431884765625,-0.7493896484375,-0.30517578125,-0.18310546875,0.0,0.446044921875,-0.8017578125,0.3974609375,-296.0,150.0,-148.0,101700.0,-3.119000196456909,0,0
1.2044698999961838,0.371063232421875,-0.451568603515625,0.31134033203125,-0.749298095703125,-0.30517578125,-0.30517578125,-0.1220703125,0.447021484375,-0.801513671875,0.3958740234375,-296.0,150.0,-148.0,101700.0,-3.119000196456909,0,0
1.2045455999905244,0.37103271484375,-0.451568603515625,0.31134033203125,-0.749298095703125,0.1220703125,-0.244140625,-0.06103515625,0.446533203125,-0.8011474609375,0.3966064453125,-296.0,150.0,-148.0,101700.0,-3.119000196456909,0,0
1.2046050999924773,0.371063232421875,-0.451568603515625,0.31134033203125,-0.749298095703125,-0.1220703125,-0.1220703125,0.0,0.443359375,-0.7998046875,0.3975830078125,-296.0,150.0,-148.0,101700.0,-3.119000196456909,0,0
1.2063215999951353,0.371063232421875,-0.451568603515625,0.31134033203125,-0.749298095703125,-0.1220703125,-0.1220703125,0.0,0.443359375,-0.7998046875,0.3975830078125,-296.0,150.0,-148.0,101700.0,-3.119000196456909,0,0
1.2063801999902353,0.37103271484375,-0.451568603515625,0.31134033203125,-0.749267578125,0.1220703125,0.06103515625,-0.1220703125,0.447509765625,-0.801025390625,0.3970947265625,-296.0,150.0,-148.0,101700.0,-3.119000196456909,0,0
1.2064354999893112,0.37103271484375,-0.451568603515625,0.31134033203125,-0.749298095703125,0.0,-0.1220703125,-0.30517578125,0.4461669921875,-0.80078125,0.398193359375,-296.0,150.0,-148.0,101700.0,-3.119000196456909,0,0
1.2064893999922788,0.37103271484375,-0.451568603515625,0.311309814453125,-0.749298095703125,0.18310546875,-0.42724609375,-0.06103515625,0.445068359375,-0.80029296875,0.3990478515625,-296.0,150.0,-148.0,101700.0,-3.119000196456909,0,0
1.2065421000006609,0.37103271484375,-0.451568603515625,0.311309814453125,-0.749298095703125,-0.06103515625,-0.06103515625,0.18310546875,0.4462890625,-0.8011474609375,0.3988037109375,-296.0,150.0,-148.0,101700.0,-3.119000196456909,0,0
1.206595899988315,0.37103271484375,-0.451568603515625,0.311309814453125,-0.749298095703125,-0.06103515625,0.0,-0.06103515625,0.4478759765625,-0.8031005859375,0.3980712890625,-296.0,150.0,-148.0,101700.0,-3.119000196456909,0,0
1.20664809999289,0.37103271484375,-0.451568603515625,0.311309814453125,-0.749298095703125,0.1220703125,-0.1220703125,-0.06103515625,0.4459228515625,-0.802734375,0.399169921875,-296.0,150.0,-148.0,101700.0,-3.119000196456909,0,0
1.2703963999956613,0.371246337890625,-0.45166015625,0.311187744140625,-0.749176025390625,0.18310546875,0.1220703125,-0.1220703125,0.445068359375,-0.8018798828125,0.39794921875,-296.0,149.0,-148.0,101700.0,-3.118000030517578,0,0
1.2705268999998225,0.371246337890625,-0.45166015625,0.311187744140625,-0.749176025390625,0.18310546875,0.1220703125,-0.1220703125,0.445068359375,-0.8018798828125,0.39794921875,-296.0,149.0,-148.0,101700.0,-3.118000030517578,0,0
1.3319996999925934,0.371246337890625,-0.45166015625,0.311187744140625,-0.749176025390625,0.1220703125,0.30517578125,0.0,0.446533203125,-0.8006591796875,0.3975830078125,-296.0,149.0,-148.0,101700.0,-3.118000030517578,0,0
1.3321568999963347,0.371246337890625,-0.45166015625,0.311187744140625,-0.74920654296875,-0.06103515625,-0.06103515625,0.0,0.4471435546875,-0.8026123046875,0.3985595703125,-296.0,149.0,-148.0,101700.0,-3.118000030517578,0,0
1.3322226000018418,0.371246337890625,-0.45166015625,0.311187744140625,-0.74920654296875,0.06103515625,0.06103515625,0.0,0.4461669921875,-0.8004150390625,0.3983154296875,-296.0,149.0,-148.0,101700.0,-3.118000030517578,0,0
1.3323527999891667,0.371246337890625,-0.45166015625,0.311187744140625,-0.74920654296875,-0.18310546875,0.18310546875,0.0,0.4454345703125,-0.7996826171875,0.3978271484375,-296.0,149.0,-148.0,101700.0,-3.118000030517578,0,0
1.332446999993408,0.371246337890625,-0.45166015625,0.311187744140625,-0.74920654296875,-0.1220703125,-0.06103515625,-0.1220703125,0.4459228515625,-0.7999267578125,0.3997802734375,-296.0,149.0,-148.0,101700.0,-3.118000030517578,0,0
1.3329243999905884,0.371246337890625,-0.45166015625,0.311187744140625,-0.74920654296875,0.1220703125,0.0,-0.06103515625,0.4442138671875,-0.80078125,0.3984375,-296.0,149.0,-148.0,101700.0,-3.118000030517578,0,0
1.332986900000833,0.371246337890625,-0.45166015625,0.311187744140625,-0.74920654296875,0.1220703125,0.0,-0.06103515625,0.4442138671875,-0.80078125,0.3984375,-296.0,149.0,-148.0,101700.0,-3.118000030517578,0,0
1.3330431999929715,0.371246337890625,-0.45166015625,0.311187744140625,-0.74920654296875,0.1220703125,0.0,0.06103515625,0.4437255859375,-0.801513671875,0.39990234375,-296.0,149.0,-148.0,101700.0,-3.118000030517578,0,0
1.3330959000013536,0.371246337890625,-0.45166015625,0.311187744140625,-0.74920654296875,0.30517578125,-0.30517578125,-0.06103515625,0.4449462890625,-0.8004150390625,0.398681640625,-296.0,149.0,-148.0,101700.0,-3.118000030517578,0,0
1.3331480999913765,0.371246337890625,-0.451629638671875,0.311187744140625,-0.74920654296875,-0.18310546875,0.0,-0.06103515625,0.445556640625,-0.7996826171875,0.3992919921875,-296.0,149.0,-148.0,101700.0,-3.118000030517578,0,0
1.3331993999890983,0.371246337890625,-0.451629638671875,0.311187744140625,-0.74920654296875,0.18310546875,-0.06103515625,-0.1220703125,0.443115234375,-0.8021240234375,0.398681640625,-296.0,149.0,-148.0,101700.0,-3.118000030517578,0,0
1.397738699990441,0.371246337890625,-0.451629638671875,0.311187744140625,-0.74920654296875,0.18310546875,-0.06103515625,-0.1220703125,0.443115234375,-0.8021240234375,0.398681640625,-296.0,149.0,-148.0,101700.0,-3.118000030517578,0,0
1.3978176999953575,0.371246337890625,-0.451629638671875,0.311187744140625,-0.74920654296875,0.06103515625,0.06103515625,0.1220703125,0.4449462890625,-0.8004150390625,0.3974609375,-296.0,149.0,-148.0,101700.0,-3.118000030517578,0,0
1.3990113999898313,0.371246337890625,-0.451629638671875,0.311187744140625,-0.74920654296875,0.18310546875,-0.244140625,-0.1220703125,0.445556640625,-0.801025390625,0.3975830078125,-296.0,149.0,-148.0,101700.0,-3.118000030517578,0,0
1.3990814999997383,0.371246337890625,-0.451629638671875,0.311187744140625,-0.74920654296875,-0.06103515625,-0.18310546875,-0.1220703125,0.4471435546875,-0.8040771484375,0.398193359375,-295.0,148.0,-150.0,101700.0,-3.119000196456909,0,0
1.399139599991031,0.371246337890625,-0.451629638671875,0.311187744140625,-0.74920654296875,0.1220703125,-0.244140625,-0.18310546875,0.44384765625,-0.80224609375,0.3978271484375,-295.0,148.0,-150.0,101700.0,-3.119000196456909,0,0
1.3991941999993287,0.371246337890625,-0.451629638671875,0.311187744140625,-0.74920654296875,0.1220703125,-0.244140625,-0.18310546875,0.44384765625,-0.80224609375,0.3978271484375,-295.0,148.0,-150.0,101700.0,-3.119000196456909,0,0
1.3992474999977276,0.37115478515625,-0.45159912109375,0.311248779296875,-0.749237060546875,0.1220703125,-0.30517578125,-0.18310546875,0.444580078125,-0.79931640625,0.398193359375,-295.0,148.0,-150.0,101700.0,-3.119000196456909,0,0
1.4005734999955166,0.37115478515625,-0.45159912109375,0.311248779296875,-0.749237060546875,0.244140625,-0.06103515625,-0.18310546875,0.447265625,-0.800537109375,0.3990478515625,-295.0,148.0,-150.0,101700.0,-3.119000196456909,0,0
1.4006348999973852,0.37115478515625,-0.45159912109375,0.311248779296875,-0.749237060546875,0.0,0.0,0.0,0.4439697265625,-0.802001953125,0.399658203125,-295.0,148.0,-150.0,101700.0,-3.119000196456909,0,0
1.4006897999934154,0.37115478515625,-0.45159912109375,0.311248779296875,-0.749237060546875,0.0,0.18310546875,-0.1220703125,0.443603515625,-0.802001953125,0.3980712890625,-295.0,148.0,-150.0,101700.0,-3.119000196456909,0,0
1.4007914999965578,0.37115478515625,-0.45159912109375,0.311248779296875,-0.749237060546875,-0.1220703125,-0.1220703125,0.0,0.4461669921875,-0.8035888671875,0.3978271484375,-295.0,148.0,-150.0,101700.0,-3.119000196456909,0,0
1.4008469999971567,0.37115478515625,-0.45159912109375,0.311248779296875,-0.749237060546875,-0.1220703125,-0.06103515625,-0.1220703125,0.4449462890625,-0.8018798828125,0.3990478515625,-295.0,148.0,-150.0,101700.0,-3.119000196456909,0,0
1.4009040999953868,0.37115478515625,-0.45159912109375,0.311248779296875,-0.749237060546875,0.1220703125,0.0,-0.244140625,0.444580078125,-0.800537109375,0.3990478515625,-295.0,148.0,-150.0,101700.0,-3.119000196456909,0,0
1.4715591999993194,0.37115478515625,-0.45159912109375,0.311248779296875,-0.749267578125,0.30517578125,0.30517578125,-0.06103515625,0.4453125,-0.8013916015625,0.3983154296875,-295.0,148.0,-150.0,101700.0,-3.119000196456909,0,0
1.4716298999992432,0.37115478515625,-0.45159912109375,0.311248779296875,-0.749267578125,-0.30517578125,-0.30517578125,-0.1220703125,0.446044921875,-0.8016357421875,0.398193359375,-295.0,148.0,-150.0,101700.0,-3.119000196456909,0,0
1.4716901999927359,0.37115478515625,-0.45159912109375,0.311248779296875,-0.749267578125,-0.06103515625,-0.1220703125,-0.06103515625,0.4449462890625,-0.802001953125,0.398681640625,-295.0,148.0,-150.0,101700.0,-3.119000196456909,0,0
1.4717489999893587,0.37115478515625,-0.45159912109375,0.311248779296875,-0.749267578125,0.06103515625,0.244140625,-0.06103515625,0.4449462890625,-0.801513671875,0.3973388671875,-295.0,148.0,-150.0,101700.0,-3.119000196456909,0,0
1.4718095999996876,0.37115478515625,-0.451568603515625,0.311248779296875,-0.749267578125,0.1220703125,0.0,-0.1220703125,0.4447021484375,-0.7999267578125,0.3984375,-295.0,148.0,-150.0,101700.0,-3.119000196456909,0,0
1.4720157999981893,0.37115478515625,-0.451568603515625,0.311248779296875,-0.749267578125,0.3662109375,-0.1220703125,-0.06103515625,0.444091796875,-0.8009033203125,0.3975830078125,-295.0,148.0,-150.0,101700.0,-3.119000196456909,0,0
1.4720797999907518,0.37115478515625,-0.45159912109375,0.311248779296875,-0.749267578125,-0.06103515625,0.06103515625,0.06103515625,0.4462890625,-0.801513671875,0.3968505859375,-295.0,148.0,-150.0,101700.0,-3.119000196456909,0,0
1.4721404000010807,0.37115478515625,-0.45159912109375,0.311248779296875,-0.749237060546875,-0.06103515625,-0.1220703125,-0.06103515625,0.4459228515625,-0.8017578125,0.3974609375,-295.0,148.0,-150.0,101700.0,-3.119000196456909,0,0
1.4721988999954192,0.37115478515625,-0.45159912109375,0.311248779296875,-0.749237060546875,0.30517578125,-0.1220703125,0.0,0.4442138671875,-0.8026123046875,0.3984375,-295.0,148.0,-150.0,101700.0,-3.119000196456909,0,0
1.4722570000012638,0.37115478515625,-0.45159912109375,0.311248779296875,-0.749237060546875,0.30517578125,-0.1220703125,0.0,0.4442138671875,-0.8026123046875,0.3984375,-295.0,148.0,-150.0,101700.0,-3.119000196456909,0,0
1.4723128999903565,0.37115478515625,-0.451568603515625,0.311248779296875,-0.749237060546875,0.0,-0.1220703125,-0.1220703125,0.4425048828125,-0.802001953125,0.399169921875,-296.0,148.0,-150.0,101700.0,-3.118000030517578,0,0
1.5238804999971762,0.37115478515625,-0.451568603515625,0.311248779296875,-0.749267578125,0.3662109375,-0.06103515625,-0.30517578125,0.446044921875,-0.8006591796875,0.4000244140625,-296.0,148.0,-150.0,101700.0,-3.118000030517578,0,0
1.5239492999971844,0.37115478515625,-0.451568603515625,0.311248779296875,-0.749267578125,0.06103515625,-0.1220703125,0.06103515625,0.446533203125,-0.8021240234375,0.39892578125,-296.0,148.0,-150.0,101700.0,-3.118000030517578,0,0
1.5240107999998145,0.37115478515625,-0.451568603515625,0.311248779296875,-0.749267578125,0.06103515625,0.0,-0.30517578125,0.44482421875,-0.80126953125,0.397216796875,-296.0,148.0,-150.0,101700.0,-3.118000030517578,0,0
1.5240704999887384,0.37115478515625,-0.451568603515625,0.311248779296875,-0.749267578125,-0.06103515625,-0.1220703125,-0.06103515625,0.4442138671875,-0.8033447265625,0.39794921875,-296.0,148.0,-150.0,101700.0,-3.118000030517578,0,0
1.5241328999982215,0.37115478515625,-0.451568603515625,0.311248779296875,-0.749267578125,0.1220703125,0.0,-0.06103515625,0.446044921875,-0.8021240234375,0.3992919921875,-296.0,148.0,-150.0,101700.0,-3.118000030517578,0,0
1.525142499987851,0.37115478515625,-0.451568603515625,0.311248779296875,-0.749267578125,0.1220703125,0.0,-0.06103515625,0.446044921875,-0.8021240234375,0.3992919921875,-296.0,148.0,-150.0,101700.0,-3.118000030517578,0,0
1.5252206000004662,0.37115478515625,-0.451568603515625,0.311248779296875,-0.749267578125,0.1220703125,0.06103515625,0.06103515625,0.44677734375,-0.80078125,0.3973388671875,-296.0,148.0,-150.0,101700.0,-3.118000030517578,0,0
1.525284899995313,0.37115478515625,-0.451568603515625,0.311248779296875,-0.749237060546875,-0.1220703125,0.0,-0.1220703125,0.4443359375,-0.8033447265625,0.398193359375,-296.0,148.0,-150.0,101700.0,-3.118000030517578,0,0
1.5253450999880442,0.37115478515625,-0.451568603515625,0.311248779296875,-0.749237060546875,0.3662109375,-0.1220703125,0.0,0.4459228515625,-0.8028564453125,0.39794921875,-296.0,148.0,-150.0,101700.0,-3.118000030517578,0,0
1.5254021000000648,0.37115478515625,-0.451568603515625,0.311248779296875,-0.749237060546875,0.0,0.0,-0.18310546875,0.446044921875,-0.8026123046875,0.3990478515625,-296.0,148.0,-150.0,101700.0,-3.118000030517578,0,0
1.5254595000005793,0.37115478515625,-0.451568603515625,0.311248779296875,-0.749267578125,0.0,-0.18310546875,-0.18310546875,0.4459228515625,-0.8018798828125,0.3992919921875,-296.0,148.0,-150.0,101700.0,-3.118000030517578,0,0
1.5877547999989474,0.37115478515625,-0.451568603515625,0.311248779296875,-0.749237060546875,0.1220703125,0.06103515625,0.0,0.447265625,-0.7999267578125,0.3988037109375,-296.0,148.0,-150.0,101700.0,-3.118000030517578,0,0
1.5878232999966713,0.37115478515625,-0.451568603515625,0.311248779296875,-0.749237060546875,0.18310546875,-0.18310546875,0.0,0.444091796875,-0.8017578125,0.39794921875,-296.0,148.0,-150.0,101700.0,-3.118000030517578,0,0
1.58788320000167,0.37115478515625,-0.451568603515625,0.311248779296875,-0.749237060546875,0.244140625,-0.06103515625,-0.18310546875,0.4456787109375,-0.802490234375,0.3980712890625,-296.0,148.0,-150.0,101700.0,-3.118000030517578,0,0
1.5879421999998158,0.37115478515625,-0.451568603515625,0.311248779296875,-0.749237060546875,-0.06103515625,-0.1220703125,0.0,0.444091796875,-0.802001953125,0.39794921875,-296.0,148.0,-150.0,101700.0,-3.118000030517578,0,0
1.5880018999887398,0.37115478515625,-0.451568603515625,0.311248779296875,-0.749237060546875,-0.06103515625,-0.1220703125,0.0,0.444091796875,-0.802001953125,0.39794921875,-296.0,148.0,-150.0,101700.0,-3.118000030517578,0,0
1.5880599999945844,0.37115478515625,-0.45159912109375,0.311279296875,-0.749237060546875,0.1220703125,0.0,0.0,0.447265625,-0.8026123046875,0.3975830078125,-295.0,149.0,-150.0,101700.0,-3.119000196456909,0,0
1.5881172999943374,0.37115478515625,-0.45159912109375,0.311279296875,-0.749237060546875,-0.18310546875,-0.18310546875,-0.1220703125,0.4462890625,-0.79931640625,0.3955078125,-295.0,149.0,-150.0,101700.0,-3.119000196456909,0,0
1.5884343999932753,0.37115478515625,-0.45159912109375,0.311279296875,-0.749237060546875,0.18310546875,-0.18310546875,-0.3662109375,0.44482421875,-0.8006591796875,0.3974609375,-295.0,149.0,-150.0,101700.0,-3.119000196456909,0,0
1.5885012999933679,0.37115478515625,-0.45159912109375,0.311279296875,-0.749237060546875,0.06103515625,-0.30517578125,0.0,0.446533203125,-0.803955078125,0.3975830078125,-295.0,149.0,-150.0,101700.0,-3.119000196456909,0,0
1.5885622999921907,0.37115478515625,-0.45159912109375,0.311279296875,-0.749237060546875,-0.1220703125,-0.06103515625,-0.1220703125,0.44677734375,-0.80029296875,0.396728515625,-295.0,149.0,-150.0,101700.0,-3.119000196456909,0,0
1.5886272999923676,0.37115478515625,-0.45159912109375,0.311279296875,-0.749237060546875,0.244140625,0.0,-0.06103515625,0.4464111328125,-0.802734375,0.3975830078125,-295.0,149.0,-150.0,101700.0,-3.119000196456909,0,0
1.5886852999974508,0.37115478515625,-0.45159912109375,0.311279296875,-0.749237060546875,0.06103515625,-0.18310546875,-0.1220703125,0.4462890625,-0.8016357421875,0.398193359375,-295.0,149.0,-150.0,101700.0,-3.119000196456909,0,0
1.5887435999902664,0.37115478515625,-0.45159912109375,0.311279296875,-0.749237060546875,0.06103515625,-0.1220703125,-0.06103515625,0.4468994140625,-0.8006591796875,0.3978271484375,-295.0,149.0,-150.0,101700.0,-3.119000196456909,0,0
1.6633029999939026,0.37115478515625,-0.45159912109375,0.311279296875,-0.749237060546875,0.3662109375,-0.244140625,-0.06103515625,0.4447021484375,-0.8009033203125,0.396240234375,-295.0,149.0,-150.0,101700.0,-3.119000196456909,0,0
1.6633811999927275,0.37115478515625,-0.45159912109375,0.311279296875,-0.749237060546875,0.1220703125,0.0,0.0,0.443115234375,-0.8013916015625,0.396484375,-295.0,149.0,-150.0,101700.0,-3.119000196456909,0,0
1.6634439999907045,0.37115478515625,-0.45159912109375,0.311279296875,-0.749237060546875,-0.06103515625,-0.244140625,-0.1220703125,0.446044921875,-0.8016357421875,0.396728515625,-295.0,149.0,-150.0,101700.0,-3.119000196456909,0,0
1.6635037999949418,0.37115478515625,-0.45159912109375,0.311279296875,-0.749237060546875,0.18310546875,-0.06103515625,0.06103515625,0.447265625,-0.8016357421875,0.396484375,-295.0,149.0,-150.0,101700.0,-3.119000196456909,0,0
1.6635634999984177,0.37115478515625,-0.45159912109375,0.311279296875,-0.749237060546875,-0.18310546875,-0.18310546875,0.0,0.446044921875,-0.8016357421875,0.3983154296875,-295.0,149.0,-150.0,101700.0,-3.119000196456909,0,0
1.6636381999996956,0.37115478515625,-0.45159912109375,0.311279296875,-0.749237060546875,0.06103515625,0.06103515625,0.0,0.4434814453125,-0.8004150390625,0.3973388671875,-295.0,149.0,-150.0,101700.0,-3.119000196456909,0,0
1.663695999988704,0.37115478515625,-0.45159912109375,0.311279296875,-0.749237060546875,-0.1220703125,-0.30517578125,-0.1220703125,0.4444580078125,-0.8028564453125,0.39794921875,-295.0,149.0,-150.0,101700.0,-3.119000196456909,0,0
1.6637528999999631,0.37115478515625,-0.451629638671875,0.311279296875,-0.749237060546875,0.0,-0.06103515625,0.18310546875,0.4461669921875,-0.8017578125,0.3968505859375,-295.0,149.0,-150.0,101700.0,-3.119000196456909,0,0
1.6638086999882944,0.37115478515625,-0.451629638671875,0.311279296875,-0.749237060546875,0.0,-0.06103515625,0.18310546875,0.4461669921875,-0.8017578125,0.3968505859375,-295.0,149.0,-150.0,101700.0,-3.119000196456909,0,0
1.663866599992616,0.37115478515625,-0.451629638671875,0.311279296875,-0.74920654296875,-0.1220703125,-0.18310546875,-0.18310546875,0.44677734375,-0.8018798828125,0.3970947265625,-295.0,149.0,-150.0,101700.0,-3.119000196456909,0,0
1.6639248999999836,0.37115478515625,-0.451629638671875,0.311279296875,-0.74920654296875,0.1220703125,0.06103515625,-0.1220703125,0.445556640625,-0.8011474609375,0.398193359375,-295.0,149.0,-150.0,101700.0,-3.119000196456909,0,0
1.7136060999910114,0.371246337890625,-0.45166015625,0.31121826171875,-0.749176025390625,0.244140625,0.06103515625,0.0,0.44580078125,-0.8017578125,0.3978271484375,-294.0,150.0,-150.0,101700.0,-3.118000030517578,0,0
1.7136753999948269,0.371246337890625,-0.45166015625,0.31121826171875,-0.749176025390625,0.0,-0.244140625,-0.1220703125,0.4468994140625,-0.8013916015625,0.3973388671875,-294.0,150.0,-150.0,101700.0,-3.118000030517578,0,0
1.7137359999906039,0.371246337890625,-0.451690673828125,0.31121826171875,-0.749176025390625,-0.1220703125,0.0,-0.244140625,0.4462890625,-0.80126953125,0.395751953125,-294.0,150.0,-150.0,101700.0,-3.118000030517578,0,0
1.7137955999933183,0.371246337890625,-0.451690673828125,0.31121826171875,-0.749176025390625,0.1220703125,-0.06103515625,-0.18310546875,0.4464111328125,-0.802978515625,0.3968505859375,-294.0,150.0,-150.0,101700.0,-3.118000030517578,0,0
1.7138566999929026,0.371246337890625,-0.451690673828125,0.31121826171875,-0.749176025390625,0.1220703125,-0.06103515625,-0.18310546875,0.4464111328125,-0.802978515625,0.3968505859375,-294.0,150.0,-150.0,101700.0,-3.118000030517578,0,0
1.7142230999888852,0.371246337890625,-0.451690673828125,0.311248779296875,-0.7491455078125,-0.30517578125,-0.1220703125,-0.1220703125,0.4453125,-0.801513671875,0.396484375,-294.0,150.0,-150.0,101700.0,-3.118000030517578,0,0
1.7142916999873705,0.371246337890625,-0.451690673828125,0.311248779296875,-0.7491455078125,-0.244140625,-0.06103515625,-0.06103515625,0.4461669921875,-0.80029296875,0.398193359375,-294.0,150.0,-150.0,101700.0,-3.118000030517578,0,0
1.7143550999899162,0.371246337890625,-0.451690673828125,0.311248779296875,-0.7491455078125,0.30517578125,-0.1220703125,-0.244140625,0.4451904296875,-0.8016357421875,0.3963623046875,-294.0,150.0,-150.0,101700.0,-3.118000030517578,0,0
1.7144138000003295,0.371246337890625,-0.451690673828125,0.311248779296875,-0.7491455078125,0.30517578125,-0.1220703125,-0.244140625,0.4451904296875,-0.8016357421875,0.3963623046875,-294.0,150.0,-150.0,101700.0,-3.118000030517578,0,0
1.7144708999985596,0.371246337890625,-0.451690673828125,0.311248779296875,-0.7491455078125,-0.1220703125,-0.30517578125,0.18310546875,0.4443359375,-0.80078125,0.396728515625,-294.0,150.0,-150.0,101700.0,-3.118000030517578,0,0
1.7145288999890909,0.371246337890625,-0.451690673828125,0.311248779296875,-0.7491455078125,0.1220703125,-0.18310546875,-0.1220703125,0.44384765625,-0.8006591796875,0.3980712890625,-294.0,150.0,-150.0,101700.0,-3.118000030517578,0,0
1.778440199996112,0.371246337890625,-0.451690673828125,0.311248779296875,-0.7491455078125,0.06103515625,-0.18310546875,-0.06103515625,0.447021484375,-0.8009033203125,0.3980712890625,-294.0,150.0,-150.0,101700.0,-3.118000030517578,0,0
1.7785101999907056,0.3712158203125,-0.451690673828125,0.311248779296875,-0.7491455078125,0.06103515625,0.0,-0.1220703125,0.447509765625,-0.799560546875,0.3975830078125,-294.0,150.0,-150.0,101700.0,-3.118000030517578,0,0
1.7785785000014585,0.371246337890625,-0.451690673828125,0.311248779296875,-0.7491455078125,-0.18310546875,0.0,-0.1220703125,0.444091796875,-0.80224609375,0.3984375,-294.0,150.0,-150.0,101700.0,-3.118000030517578,0,0
1.7786364999919897,0.371246337890625,-0.451690673828125,0.311248779296875,-0.7491455078125,-0.18310546875,0.0,-0.1220703125,0.444091796875,-0.80224609375,0.3984375,-294.0,150.0,-150.0,101700.0,-3.118000030517578,0,0
1.7786931000009645,0.371246337890625,-0.451690673828125,0.311248779296875,-0.7491455078125,-0.06103515625,0.0,0.1220703125,0.4476318359375,-0.8026123046875,0.3978271484375,-294.0,150.0,-150.0,101700.0,-3.118000030517578,0,0
1.7787510999914957,0.371246337890625,-0.451690673828125,0.311248779296875,-0.7491455078125,-0.06103515625,-0.06103515625,-0.18310546875,0.4453125,-0.8018798828125,0.3975830078125,-294.0,150.0,-150.0,101700.0,-3.118000030517578,0,0
1.7788096000003861,0.371246337890625,-0.451690673828125,0.311248779296875,-0.7491455078125,-0.1220703125,-0.06103515625,-0.1220703125,0.4439697265625,-0.802001953125,0.3990478515625,-294.0,150.0,-150.0,101700.0,-3.118000030517578,0,0
1.7794350999902235,0.371246337890625,-0.451690673828125,0.311248779296875,-0.7491455078125,-0.1220703125,-0.42724609375,-0.06103515625,0.44677734375,-0.8026123046875,0.3978271484375,-293.0,151.0,-151.0,101700.0,-3.119000196456909,0,0
1.779493399997591,0.371124267578125,-0.45166015625,0.311309814453125,-0.74920654296875,0.0,0.0,-0.18310546875,0.4454345703125,-0.802490234375,0.3978271484375,-293.0,151.0,-151.0,101700.0,-3.119000196456909,0,0
1.779550899998867,0.371124267578125,-0.45166015625,0.311309814453125,-0.74920654296875,-0.18310546875,0.0,-0.1220703125,0.4447021484375,-0.80078125,0.396484375,-293.0,151.0,-151.0,101700.0,-3.119000196456909,0,0
1.7796069999894826,0.371124267578125,-0.45166015625,0.311309814453125,-0.74920654296875,0.30517578125,0.0,0.0,0.4443359375,-0.80078125,0.398193359375,-293.0,151.0,-151.0,101700.0,-3.119000196456909,0,0
1.7796633999969345,0.371124267578125,-0.45166015625,0.311309814453125,-0.74920654296875,-0.06103515625,-0.06103515625,-0.06103515625,0.4468994140625,-0.8017578125,0.396240234375,-293.0,151.0,-151.0,101700.0,-3.119000196456909,0,0
1.7797203999944031,0.371124267578125,-0.45166015625,0.311309814453125,-0.74920654296875,-0.06103515625,-0.06103515625,-0.06103515625,0.4468994140625,-0.8017578125,0.396240234375,-293.0,151.0,-151.0,101700.0,-3.119000196456909,0,0
1.8449243999930331,0.371124267578125,-0.45166015625,0.311309814453125,-0.74920654296875,0.0,-0.06103515625,0.244140625,0.4451904296875,-0.802978515625,0.3997802734375,-293.0,151.0,-151.0,101700.0,-3.119000196456909,0,0
1.8449919999984559,0.371124267578125,-0.45166015625,0.311309814453125,-0.74920654296875,0.30517578125,-0.1220703125,0.06103515625,0.447265625,-0.8035888671875,0.3988037109375,-293.0,151.0,-151.0,101700.0,-3.119000196456909,0,0
1.8454836999881081,0.371124267578125,-0.45166015625,0.311309814453125,-0.74920654296875,0.1220703125,-0.06103515625,0.1220703125,0.445556640625,-0.800048828125,0.3975830078125,-293.0,151.0,-151.0,101700.0,-3.119000196456909,0,0
1.845548500001314,0.371124267578125,-0.45166015625,0.311309814453125,-0.74920654296875,0.30517578125,-0.18310546875,-0.18310546875,0.446533203125,-0.8021240234375,0.3975830078125,-293.0,151.0,-151.0,101700.0,-3.119000196456909,0,0
1.8456279999954859,0.371124267578125,-0.45166015625,0.311309814453125,-0.749176025390625,-0.06103515625,-0.18310546875,0.1220703125,0.4466552734375,-0.80224609375,0.39599609375,-293.0,151.0,-151.0,101700.0,-3.119000196456909,0,0
1.845702499995241,0.371124267578125,-0.45166015625,0.311309814453125,-0.749176025390625,0.06103515625,-0.18310546875,-0.244140625,0.4461669921875,-0.80029296875,0.396240234375,-293.0,151.0,-151.0,101700.0,-3.119000196456909,0,0
1.8457577999943169,0.371124267578125,-0.45166015625,0.311309814453125,-0.749176025390625,0.1220703125,-0.1220703125,-0.06103515625,0.44580078125,-0.80029296875,0.3983154296875,-293.0,151.0,-151.0,101700.0,-3.119000196456909,0,0
1.8458295999880647,0.371124267578125,-0.45166015625,0.311309814453125,-0.749176025390625,0.1220703125,-0.1220703125,-0.06103515625,0.44580078125,-0.80029296875,0.3983154296875,-293.0,151.0,-151.0,101700.0,-3.119000196456909,0,0
1.8458976999972947,0.371124267578125,-0.45166015625,0.311309814453125,-0.74920654296875,-0.06103515625,0.0,-0.18310546875,0.4449462890625,-0.8016357421875,0.39892578125,-293.0,151.0,-151.0,101700.0,-3.119000196456909,0,0
1.8459669000003487,0.371124267578125,-0.45166015625,0.311309814453125,-0.74920654296875,-0.1220703125,-0.244140625,-0.244140625,0.4466552734375,-0.80224609375,0.396728515625,-293.0,151.0,-151.0,101700.0,-3.119000196456909,0,0
1.8460328999935882,0.371124267578125,-0.45166015625,0.311309814453125,-0.74920654296875,0.18310546875,-0.1220703125,-0.1220703125,0.4449462890625,-0.8017578125,0.398193359375,-293.0,151.0,-151.0,101700.0,-3.119000196456909,0,0
1.9050951999961399,0.37103271484375,-0.45159912109375,0.311370849609375,-0.749237060546875,-0.06103515625,0.0,-0.18310546875,0.4459228515625,-0.80126953125,0.398193359375,-293.0,151.0,-151.0,101700.0,-3.118000030517578,0,0
1.9051572999887867,0.37103271484375,-0.45159912109375,0.311370849609375,-0.749267578125,0.0,0.06103515625,-0.06103515625,0.44580078125,-0.800048828125,0.3990478515625,-293.0,151.0,-151.0,101700.0,-3.118000030517578,0,0
1.9052136999962386,0.37103271484375,-0.45159912109375,0.311370849609375,-0.749237060546875,0.18310546875,0.0,-0.06103515625,0.4439697265625,-0.802001953125,0.3978271484375,-293.0,151.0,-151.0,101700.0,-3.118000030517578,0,0
1.9052689999953145,0.37103271484375,-0.45159912109375,0.311370849609375,-0.749237060546875,0.18310546875,0.0,-0.06103515625,0.4439697265625,-0.802001953125,0.3978271484375,-293.0,151.0,-151.0,101700.0,-3.118000030517578,0,0
1.9053229999990435,0.37103271484375,-0.45159912109375,0.311370849609375,-0.749267578125,-0.1220703125,0.0,0.06103515625,0.4462890625,-0.8028564453125,0.3975830078125,-293.0,151.0,-151.0,101700.0,-3.118000030517578,0,0
1.905430399987381,0.37103271484375,-0.45159912109375,0.311370849609375,-0.749267578125,0.1220703125,-0.18310546875,-0.06103515625,0.444580078125,-0.8011474609375,0.3997802734375,-293.0,151.0,-151.0,101700.0,-3.118000030517578,0,0
1.9054860999895027,0.37103271484375,-0.45159912109375,0.311370849609375,-0.749267578125,0.0,-0.30517578125,-0.06103515625,0.4476318359375,-0.80126953125,0.400146484375,-293.0,151.0,-151.0,101700.0,-3.118000030517578,0,0
1.9055391000001691,0.37103271484375,-0.45159912109375,0.311370849609375,-0.749267578125,-0.06103515625,-0.06103515625,0.06103515625,0.4449462890625,-0.800048828125,0.3985595703125,-293.0,151.0,-151.0,101700.0,-3.118000030517578,0,0
1.9055920999962837,0.37103271484375,-0.45159912109375,0.311370849609375,-0.749267578125,0.3662109375,-0.06103515625,0.06103515625,0.4447021484375,-0.80029296875,0.3975830078125,-293.0,151.0,-151.0,101700.0,-3.118000030517578,0,0
1.9056450999923982,0.37103271484375,-0.45159912109375,0.311370849609375,-0.749267578125,0.0,0.1220703125,-0.06103515625,0.4459228515625,-0.8038330078125,0.398193359375,-293.0,151.0,-151.0,101700.0,-3.118000030517578,0,0
1.9056970999954501,0.37103271484375,-0.45159912109375,0.311370849609375,-0.749267578125,0.0,-0.244140625,0.06103515625,0.4432373046875,-0.8004150390625,0.398193359375,-293.0,151.0,-151.0,101700.0,-3.118000030517578,0,0
1.9735500999959186,0.37103271484375,-0.45159912109375,0.311370849609375,-0.749267578125,0.06103515625,-0.06103515625,0.0,0.4447021484375,-0.801513671875,0.398193359375,-293.0,151.0,-151.0,101700.0,-3.118000030517578,0,0
1.973618299991358,0.37103271484375,-0.451568603515625,0.311370849609375,-0.749267578125,-0.06103515625,0.06103515625,-0.3662109375,0.4456787109375,-0.8013916015625,0.398681640625,-293.0,151.0,-151.0,101700.0,-3.118000030517578,0,0
1.9736758999933954,0.37103271484375,-0.451568603515625,0.311370849609375,-0.749267578125,-0.06103515625,0.06103515625,-0.3662109375,0.4456787109375,-0.8013916015625,0.398681640625,-293.0,151.0,-151.0,101700.0,-3.118000030517578,0,0
1.9737296999956015,0.371063232421875,-0.451568603515625,0.311370849609375,-0.749267578125,0.0,-0.18310546875,-0.06103515625,0.4453125,-0.8004150390625,0.4005126953125,-293.0,151.0,-151.0,101700.0,-3.118000030517578,0,0
1.9737863999907859,0.371063232421875,-0.451568603515625,0.311370849609375,-0.749267578125,0.06103515625,-0.1220703125,-0.30517578125,0.4434814453125,-0.8006591796875,0.3994140625,-293.0,151.0,-151.0,101700.0,-3.118000030517578,0,0
1.9738398999907076,0.371063232421875,-0.451568603515625,0.311370849609375,-0.749267578125,0.0,0.06103515625,-0.06103515625,0.4454345703125,-0.8017578125,0.3990478515625,-293.0,151.0,-151.0,101700.0,-3.118000030517578,0,0
1.9738936999929138,0.371063232421875,-0.451568603515625,0.311370849609375,-0.749267578125,0.1220703125,0.0,-0.18310546875,0.4447021484375,-0.8006591796875,0.3980712890625,-293.0,151.0,-151.0,101700.0,-3.118000030517578,0,0
1.9740028999949573,0.371063232421875,-0.451568603515625,0.311370849609375,-0.749267578125,-0.06103515625,0.06103515625,-0.30517578125,0.444091796875,-0.80224609375,0.3988037109375,-293.0,151.0,-151.0,101700.0,-3.118000030517578,0,0
1.9740557999903103,0.371063232421875,-0.451568603515625,0.311370849609375,-0.749267578125,-0.1220703125,0.06103515625,-0.1220703125,0.447021484375,-0.800537109375,0.39794921875,-293.0,151.0,-151.0,101700.0,-3.118000030517578,0,0
1.974108399997931,0.371063232421875,-0.451568603515625,0.31134033203125,-0.749267578125,0.1220703125,0.06103515625,0.1220703125,0.4447021484375,-0.802001953125,0.3985595703125,-293.0,151.0,-151.0,101700.0,-3.118000030517578,0,0
1.9741611999925226,0.371063232421875,-0.451568603515625,0.31134033203125,-0.749267578125,-0.06103515625,-0.18310546875,0.0,0.4456787109375,-0.802001953125,0.3988037109375,-293.0,151.0,-152.0,101700.0,-3.118000030517578,0,0
1.9742141999886371,0.371063232421875,-0.451568603515625,0.31134033203125,-0.749267578125,-0.06103515625,-0.18310546875,0.0,0.4456787109375,-0.802001953125,0.3988037109375,-293.0,151.0,-152.0,101700.0,-3.118000030517578,0,0
1.974267300000065,0.371063232421875,-0.451568603515625,0.311370849609375,-0.749267578125,0.06103515625,-0.18310546875,0.06103515625,0.4454345703125,-0.8023681640625,0.3970947265625,-293.0,151.0,-152.0,101700.0,-3.118000030517578,0,0
2.0384789999952773,0.371063232421875,-0.451568603515625,0.311370849609375,-0.749267578125,0.0,-0.1220703125,0.1220703125,0.443115234375,-0.8013916015625,0.3988037109375,-293.0,151.0,-152.0,101700.0,-3.118000030517578,0,0
2.0385506999882637,0.371063232421875,-0.451568603515625,0.31134033203125,-0.749267578125,-0.1220703125,-0.18310546875,-0.1220703125,0.44677734375,-0.8017578125,0.398681640625,-293.0,151.0,-152.0,101700.0,-3.118000030517578,0,0
2.0386090999963926,0.371063232421875,-0.451568603515625,0.311370849609375,-0.749267578125,0.3662109375,-0.1220703125,0.1220703125,0.4443359375,-0.8026123046875,0.397216796875,-293.0,151.0,-152.0,101700.0,-3.118000030517578,0,0
2.03866449999623,0.371063232421875,-0.451568603515625,0.311370849609375,-0.749267578125,0.1220703125,-0.06103515625,-0.1220703125,0.4444580078125,-0.8011474609375,0.3997802734375,-293.0,151.0,-152.0,101700.0,-3.118000030517578,0,0
2.0387229999905685,0.371063232421875,-0.451568603515625,0.311370849609375,-0.749267578125,0.0,-0.06103515625,0.1220703125,0.44580078125,-0.8031005859375,0.3994140625,-293.0,151.0,-152.0,101700.0,-3.120000123977661,0,0
2.0387932999874465,0.371063232421875,-0.451568603515625,0.311370849609375,-0.749267578125,0.0,-0.06103515625,0.1220703125,0.44580078125,-0.8031005859375,0.3994140625,-293.0,151.0,-152.0,101700.0,-3.120000123977661,0,0
2.038848899988807,0.371063232421875,-0.451568603515625,0.31134033203125,-0.749267578125,0.06103515625,-0.06103515625,-0.06103515625,0.44873046875,-0.8001708984375,0.398193359375,-293.0,151.0,-152.0,101700.0,-3.120000123977661,0,0
2.038903399996343,0.371063232421875,-0.451568603515625,0.31134033203125,-0.749267578125,0.0,-0.1220703125,0.30517578125,0.447265625,-0.8033447265625,0.39794921875,-293.0,151.0,-152.0,101700.0,-3.120000123977661,0,0
2.038957999990089,0.371063232421875,-0.451568603515625,0.31134033203125,-0.749267578125,0.18310546875,-0.06103515625,-0.18310546875,0.4466552734375,-0.80224609375,0.3973388671875,-293.0,151.0,-152.0,101700.0,-3.120000123977661,0,0
2.039010699998471,0.371063232421875,-0.451568603515625,0.31134033203125,-0.749267578125,0.244140625,-0.1220703125,-0.1220703125,0.4478759765625,-0.802734375,0.3990478515625,-293.0,151.0,-152.0,101700.0,-3.120000123977661,0,0
2.0390627999877324,0.371063232421875,-0.451568603515625,0.31134033203125,-0.749267578125,0.1220703125,-0.06103515625,-0.06103515625,0.4456787109375,-0.80078125,0.3992919921875,-293.0,151.0,-152.0,101700.0,-3.120000123977661,0,0
2.0962398999981815,0.371063232421875,-0.451568603515625,0.31134033203125,-0.749267578125,-0.1220703125,0.0,0.06103515625,0.4468994140625,-0.801513671875,0.3974609375,-293.0,151.0,-152.0,101700.0,-3.120000123977661,0,0
2.096305200000643,0.37103271484375,-0.451568603515625,0.31134033203125,-0.749267578125,0.18310546875,-0.1220703125,-0.244140625,0.447021484375,-0.802001953125,0.400634765625,-293.0,151.0,-152.0,101700.0,-3.120000123977661,0,0
2.0963617999950657,0.37103271484375,-0.451568603515625,0.31134033203125,-0.749267578125,0.18310546875,-0.1220703125,-0.244140625,0.447021484375,-0.802001953125,0.400634765625,-293.0,151.0,-152.0,101700.0,-3.120000123977661,0,0
2.0964154999965103,0.370849609375,-0.45147705078125,0.31146240234375,-0.7493896484375,0.244140625,0.0,-0.18310546875,0.4453125,-0.8006591796875,0.39892578125,-292.0,153.0,-151.0,101700.0,-3.120000123977661,0,0
2.0964703999925405,0.370849609375,-0.45147705078125,0.31146240234375,-0.7493896484375,0.06103515625,0.1220703125,-0.18310546875,0.4447021484375,-0.8017578125,0.3988037109375,-292.0,153.0,-151.0,101700.0,-3.120000123977661,0,0
2.1015755999978865,0.370849609375,-0.45147705078125,0.31146240234375,-0.7493896484375,0.0,-0.06103515625,0.0,0.445068359375,-0.802490234375,0.3973388671875,-292.0,153.0,-151.0,101700.0,-3.120000123977661,0,0
2.1016346999967936,0.370849609375,-0.45147705078125,0.31146240234375,-0.7493896484375,0.1220703125,0.06103515625,0.0,0.444580078125,-0.8018798828125,0.396728515625,-292.0,153.0,-151.0,101700.0,-3.120000123977661,0,0
2.1016866999998456,0.370849609375,-0.45147705078125,0.31146240234375,-0.7493896484375,0.06103515625,-0.3662109375,0.18310546875,0.4459228515625,-0.80029296875,0.3992919921875,-292.0,153.0,-151.0,101700.0,-3.120000123977661,0,0
2.101739499994437,0.370849609375,-0.45147705078125,0.31146240234375,-0.7493896484375,0.1220703125,0.06103515625,-0.06103515625,0.4439697265625,-0.7996826171875,0.398681640625,-292.0,153.0,-151.0,101700.0,-3.120000123977661,0,0
2.101792099987506,0.370849609375,-0.45147705078125,0.31146240234375,-0.7493896484375,0.06103515625,-0.06103515625,0.0,0.444580078125,-0.8009033203125,0.398681640625,-292.0,153.0,-151.0,101700.0,-3.120000123977661,0,0
2.1018443999928422,0.370849609375,-0.451446533203125,0.31146240234375,-0.7493896484375,0.1220703125,0.1220703125,-0.06103515625,0.4432373046875,-0.800537109375,0.400390625,-292.0,153.0,-151.0,101700.0,-3.120000123977661,0,0
2.101898099994287,0.370849609375,-0.451446533203125,0.31146240234375,-0.7493896484375,0.1220703125,0.1220703125,-0.06103515625,0.4432373046875,-0.800537109375,0.400390625,-292.0,153.0,-151.0,101700.0,-3.120000123977661,0,0
2.1640784999908647,0.370849609375,-0.451446533203125,0.31146240234375,-0.7493896484375,0.1220703125,0.0,0.0,0.445556640625,-0.802001953125,0.398193359375,-292.0,153.0,-151.0,101700.0,-3.118000030517578,0,0
2.1641473999916343,0.370849609375,-0.451446533203125,0.31146240234375,-0.7493896484375,0.06103515625,-0.244140625,-0.244140625,0.4466552734375,-0.8033447265625,0.3978271484375,-292.0,153.0,-151.0,101700.0,-3.118000030517578,0,0
2.164204599990626,0.370849609375,-0.451446533203125,0.31146240234375,-0.7493896484375,0.1220703125,-0.06103515625,0.06103515625,0.44482421875,-0.801025390625,0.400146484375,-292.0,153.0,-151.0,101700.0,-3.118000030517578,0,0
2.1642599999904633,0.370849609375,-0.451446533203125,0.31146240234375,-0.7493896484375,-0.3662109375,-0.18310546875,0.0,0.4453125,-0.8011474609375,0.3983154296875,-292.0,153.0,-151.0,101700.0,-3.118000030517578,0,0
2.1643167000001995,0.370849609375,-0.451446533203125,0.31146240234375,-0.7493896484375,-0.18310546875,-0.1220703125,0.1220703125,0.4451904296875,-0.8016357421875,0.398681640625,-292.0,153.0,-151.0,101700.0,-3.118000030517578,0,0
2.164373399995384,0.370849609375,-0.451446533203125,0.31146240234375,-0.7493896484375,0.1220703125,0.0,-0.30517578125,0.4462890625,-0.8023681640625,0.39990234375,-292.0,153.0,-151.0,101700.0,-3.118000030517578,0,0
2.1644438999937847,0.370849609375,-0.45147705078125,0.31146240234375,-0.7493896484375,-0.30517578125,-0.06103515625,0.0,0.4471435546875,-0.801513671875,0.396728515625,-292.0,153.0,-151.0,101700.0,-3.118000030517578,0,0
2.1644973999937065,0.370849609375,-0.45147705078125,0.31146240234375,-0.7493896484375,0.244140625,-0.1220703125,-0.244140625,0.4468994140625,-0.8011474609375,0.3973388671875,-292.0,153.0,-151.0,101700.0,-3.118000030517578,0,0
2.1645520999882137,0.370849609375,-0.45147705078125,0.31146240234375,-0.7493896484375,-0.06103515625,-0.1220703125,-0.06103515625,0.447998046875,-0.8011474609375,0.39697265625,-292.0,153.0,-151.0,101700.0,-3.118000030517578,0,0
2.1646046999958344,0.370849609375,-0.45147705078125,0.31146240234375,-0.7493896484375,-0.06103515625,-0.1220703125,-0.06103515625,0.447998046875,-0.8011474609375,0.39697265625,-292.0,153.0,-151.0,101700.0,-3.118000030517578,0,0
2.1646580999949947,0.370849609375,-0.45147705078125,0.31146240234375,-0.7493896484375,0.1220703125,-0.18310546875,-0.1220703125,0.4461669921875,-0.80322265625,0.3968505859375,-292.0,153.0,-151.0,101700.0,-3.118000030517578,0,0
2.164711299992632,0.370635986328125,-0.451385498046875,0.31158447265625,-0.749481201171875,-0.18310546875,-0.1220703125,0.06103515625,0.4437255859375,-0.801025390625,0.3955078125,-292.0,153.0,-151.0,101700.0,-3.118000030517578,0,0
2.2272523999999976,0.370635986328125,-0.451385498046875,0.31158447265625,-0.749481201171875,-0.06103515625,-0.06103515625,0.1220703125,0.44287109375,-0.8033447265625,0.399169921875,-292.0,153.0,-151.0,101700.0,-3.118000030517578,0,0
2.2273221999930684,0.370635986328125,-0.451385498046875,0.31158447265625,-0.749481201171875,-0.06103515625,-0.18310546875,-0.1220703125,0.44384765625,-0.8031005859375,0.3975830078125,-292.0,153.0,-151.0,101700.0,-3.118000030517578,0,0
2.2273814999934984,0.370635986328125,-0.451385498046875,0.31158447265625,-0.749481201171875,0.3662109375,0.06103515625,0.06103515625,0.4442138671875,-0.8021240234375,0.3975830078125,-292.0,153.0,-151.0,101700.0,-3.118000030517578,0,0
2.2274400999885984,0.370635986328125,-0.451385498046875,0.31158447265625,-0.749481201171875,0.1220703125,0.06103515625,-0.244140625,0.4443359375,-0.7998046875,0.39697265625,-292.0,153.0,-151.0,101700.0,-3.118000030517578,0,0
2.22749729998759,0.370635986328125,-0.451385498046875,0.31158447265625,-0.749481201171875,0.1220703125,0.06103515625,-0.244140625,0.4443359375,-0.7998046875,0.39697265625,-292.0,153.0,-151.0,101700.0,-3.118000030517578,0,0
2.2278175999963423,0.370635986328125,-0.451385498046875,0.311614990234375,-0.749481201171875,0.0,-0.30517578125,-0.06103515625,0.4449462890625,-0.8011474609375,0.3974609375,-292.0,153.0,-151.0,101700.0,-3.118000030517578,0,0
2.2278928000014275,0.370635986328125,-0.451385498046875,0.311614990234375,-0.749481201171875,0.18310546875,0.0,0.18310546875,0.44482421875,-0.802001953125,0.39794921875,-292.0,153.0,-151.0,101700.0,-3.121000051498413,0,0
2.227954799993313,0.370635986328125,-0.451385498046875,0.311614990234375,-0.749481201171875,-0.1220703125,-0.06103515625,-0.3662109375,0.4451904296875,-0.80029296875,0.396240234375,-292.0,153.0,-151.0,101700.0,-3.121000051498413,0,0
2.2280278999969596,0.370635986328125,-0.451385498046875,0.311614990234375,-0.749481201171875,-0.244140625,-0.06103515625,0.06103515625,0.4443359375,-0.8004150390625,0.3968505859375,-292.0,153.0,-151.0,101700.0,-3.121000051498413,0,0
2.2280866999935824,0.370635986328125,-0.451385498046875,0.311614990234375,-0.749481201171875,0.1220703125,-0.1220703125,-0.18310546875,0.443603515625,-0.7999267578125,0.397216796875,-292.0,153.0,-151.0,101700.0,-3.121000051498413,0,0
2.2281446999986656,0.370635986328125,-0.451385498046875,0.311614990234375,-0.749481201171875,-0.1220703125,-0.06103515625,0.0,0.4439697265625,-0.80078125,0.3980712890625,-292.0,153.0,-151.0,101700.0,-3.121000051498413,0,0
2.22822369998903,0.370635986328125,-0.451385498046875,0.311614990234375,-0.749481201171875,0.18310546875,-0.06103515625,0.06103515625,0.44677734375,-0.801025390625,0.3956298828125,-292.0,153.0,-151.0,101700.0,-3.121000051498413,0,0
2.2885528999904636,0.370635986328125,-0.451416015625,0.311614990234375,-0.74945068359375,0.1220703125,-0.18310546875,-0.1220703125,0.4447021484375,-0.801025390625,0.397216796875,-292.0,153.0,-151.0,101700.0,-3.121000051498413,0,0
2.288618699996732,0.370635986328125,-0.451416015625,0.311614990234375,-0.74945068359375,-0.244140625,-0.30517578125,-0.06103515625,0.4459228515625,-0.801025390625,0.396240234375,-292.0,153.0,-151.0,101700.0,-3.121000051498413,0,0
2.2886793999932706,0.370635986328125,-0.451416015625,0.311614990234375,-0.74945068359375,-0.244140625,-0.30517578125,-0.06103515625,0.4459228515625,-0.801025390625,0.396240234375,-292.0,153.0,-151.0,101700.0,-3.121000051498413,0,0
2.2887370999960694,0.370330810546875,-0.4512939453125,0.311798095703125,-0.749603271484375,0.1220703125,-0.06103515625,0.06103515625,0.4473876953125,-0.80029296875,0.3975830078125,-291.0,153.0,-151.0,101700.0,-3.121000051498413,0,0
2.289206799992826,0.370330810546875,-0.4512939453125,0.311798095703125,-0.749603271484375,0.48828125,0.06103515625,-0.06103515625,0.44482421875,-0.801025390625,0.396240234375,-291.0,153.0,-151.0,101700.0,-3.121000051498413,0,0
2.289266099993256,0.370330810546875,-0.4512939453125,0.311798095703125,-0.749603271484375,-0.18310546875,-0.244140625,0.0,0.44384765625,-0.800537109375,0.398681640625,-291.0,153.0,-151.0,101700.0,-3.121000051498413,0,0
2.2893252999929246,0.370330810546875,-0.4512939453125,0.311798095703125,-0.749603271484375,0.18310546875,-0.30517578125,-0.1220703125,0.4449462890625,-0.7998046875,0.3961181640625,-291.0,153.0,-151.0,101700.0,-3.121000051498413,0,0
2.2893834999995306,0.370330810546875,-0.4512939453125,0.311798095703125,-0.749603271484375,0.1220703125,0.06103515625,0.0,0.4468994140625,-0.7996826171875,0.3961181640625,-291.0,153.0,-151.0,101700.0,-3.121000051498413,0,0
2.2894410000008065,0.370330810546875,-0.4512939453125,0.311798095703125,-0.749603271484375,0.18310546875,0.0,-0.06103515625,0.4442138671875,-0.80224609375,0.3970947265625,-291.0,153.0,-151.0,101700.0,-3.121000051498413,0,0
2.2894977999967523,0.370330810546875,-0.4512939453125,0.311798095703125,-0.749603271484375,0.18310546875,0.0,-0.06103515625,0.4442138671875,-0.80224609375,0.3970947265625,-291.0,153.0,-151.0,101700.0,-3.121000051498413,0,0
2.289554599992698,0.37030029296875,-0.451324462890625,0.31182861328125,-0.749603271484375,0.06103515625,0.244140625,0.0,0.445556640625,-0.8021240234375,0.3975830078125,-291.0,153.0,-151.0,101700.0,-3.121000051498413,0,0
2.357329899998149,0.37030029296875,-0.451324462890625,0.311798095703125,-0.749603271484375,0.06103515625,0.06103515625,-0.06103515625,0.4464111328125,-0.8023681640625,0.3956298828125,-291.0,153.0,-151.0,101700.0,-3.121000051498413,0,0
2.357393599988427,0.37030029296875,-0.451324462890625,0.311798095703125,-0.749603271484375,-0.18310546875,-0.3662109375,-0.06103515625,0.447021484375,-0.8001708984375,0.3978271484375,-291.0,153.0,-151.0,101700.0,-3.121000051498413,0,0
2.357448700000532,0.37030029296875,-0.451324462890625,0.31182861328125,-0.749603271484375,0.1220703125,0.06103515625,-0.06103515625,0.44677734375,-0.7994384765625,0.3958740234375,-291.0,153.0,-151.0,101700.0,-3.121000051498413,0,0
2.3575038999988465,0.37030029296875,-0.451324462890625,0.31182861328125,-0.749603271484375,-0.06103515625,-0.06103515625,-0.30517578125,0.4449462890625,-0.802001953125,0.394775390625,-291.0,153.0,-151.0,101700.0,-3.121000051498413,0,0
2.3575595000002068,0.37030029296875,-0.451324462890625,0.31182861328125,-0.74957275390625,0.30517578125,0.0,-0.244140625,0.4443359375,-0.799560546875,0.395751953125,-291.0,153.0,-151.0,101700.0,-3.121000051498413,0,0
2.35761310000089,0.37030029296875,-0.451324462890625,0.31182861328125,-0.74957275390625,-0.06103515625,-0.18310546875,-0.18310546875,0.4442138671875,-0.802978515625,0.39697265625,-291.0,153.0,-151.0,101700.0,-3.121000051498413,0,0
2.357682499990915,0.37030029296875,-0.451324462890625,0.31182861328125,-0.74957275390625,0.0,-0.06103515625,-0.244140625,0.44580078125,-0.8004150390625,0.396484375,-291.0,153.0,-151.0,101700.0,-3.121000051498413,0,0
2.3577355000015814,0.37030029296875,-0.45135498046875,0.31182861328125,-0.74957275390625,0.06103515625,-0.06103515625,0.18310546875,0.44677734375,-0.802001953125,0.3973388671875,-291.0,153.0,-151.0,101700.0,-3.121000051498413,0,0
2.3577889000007417,0.37030029296875,-0.45135498046875,0.31182861328125,-0.74957275390625,0.06103515625,-0.06103515625,0.18310546875,0.44677734375,-0.802001953125,0.3973388671875,-291.0,153.0,-151.0,101700.0,-3.121000051498413,0,0
2.3578427999891574,0.37030029296875,-0.45135498046875,0.31182861328125,-0.74957275390625,0.06103515625,-0.06103515625,-0.18310546875,0.4464111328125,-0.80224609375,0.3988037109375,-291.0,153.0,-151.0,101700.0,-3.121000051498413,0,0
2.3578952999960165,0.37030029296875,-0.45135498046875,0.31182861328125,-0.74957275390625,0.244140625,0.06103515625,0.06103515625,0.447509765625,-0.8021240234375,0.396240234375,-291.0,153.0,-151.0,101700.0,-3.121000051498413,0,0
2.357948999997461,0.37030029296875,-0.45135498046875,0.31182861328125,-0.74957275390625,-0.06103515625,-0.18310546875,-0.30517578125,0.4451904296875,-0.8017578125,0.3983154296875,-292.0,153.0,-149.0,101700.0,-3.121000051498413,0,0
2.3580018999928143,0.37030029296875,-0.45135498046875,0.31182861328125,-0.74957275390625,0.42724609375,0.30517578125,-0.1220703125,0.446044921875,-0.8026123046875,0.3961181640625,-292.0,153.0,-149.0,101700.0,-3.121000051498413,0,0
2.4204742000001715,0.3704833984375,-0.451446533203125,0.31170654296875,-0.749481201171875,0.0,-0.30517578125,-0.06103515625,0.4461669921875,-0.8023681640625,0.3961181640625,-292.0,153.0,-149.0,101700.0,-3.121000051498413,0,0
2.420535099998233,0.3704833984375,-0.45147705078125,0.31170654296875,-0.74945068359375,0.1220703125,0.0,-0.06103515625,0.447509765625,-0.80029296875,0.396728515625,-292.0,153.0,-149.0,101700.0,-3.121000051498413,0,0
2.4205904999980703,0.3704833984375,-0.451446533203125,0.31170654296875,-0.749481201171875,0.0,-0.1220703125,-0.06103515625,0.444580078125,-0.798828125,0.39794921875,-292.0,153.0,-149.0,101700.0,-3.121000051498413,0,0
2.4206418999965535,0.3704833984375,-0.451446533203125,0.31170654296875,-0.749481201171875,0.0,-0.1220703125,-0.06103515625,0.444580078125,-0.798828125,0.39794921875,-292.0,153.0,-149.0,101700.0,-3.121000051498413,0,0
2.420695299995714,0.3704833984375,-0.45147705078125,0.31170654296875,-0.74945068359375,0.1220703125,-0.244140625,-0.30517578125,0.445556640625,-0.8026123046875,0.3963623046875,-292.0,153.0,-149.0,101700.0,-3.121000051498413,0,0
2.420760099994368,0.3704833984375,-0.45147705078125,0.311737060546875,-0.74945068359375,0.18310546875,0.0,0.0,0.4449462890625,-0.802490234375,0.3963623046875,-292.0,153.0,-149.0,101700.0,-3.121000051498413,0,0
2.4208112999913283,0.3704833984375,-0.45147705078125,0.311737060546875,-0.74945068359375,0.0,0.06103515625,0.1220703125,0.4454345703125,-0.801025390625,0.3975830078125,-292.0,153.0,-149.0,101700.0,-3.121000051498413,0,0
2.4210706999874674,0.3704833984375,-0.451446533203125,0.311737060546875,-0.74945068359375,0.1220703125,-0.1220703125,-0.1220703125,0.44580078125,-0.8028564453125,0.399169921875,-292.0,153.0,-149.0,101700.0,-3.121000051498413,0,0
2.4211238999996567,0.3704833984375,-0.451446533203125,0.31170654296875,-0.74945068359375,0.1220703125,0.06103515625,0.06103515625,0.4459228515625,-0.7994384765625,0.398193359375,-292.0,153.0,-149.0,101700.0,-3.120000123977661,0,0
2.421176599993487,0.3704833984375,-0.451446533203125,0.311737060546875,-0.74945068359375,-0.1220703125,-0.1220703125,0.0,0.4464111328125,-0.802978515625,0.39892578125,-292.0,153.0,-149.0,101700.0,-3.120000123977661,0,0
2.421227099999669,0.3704833984375,-0.451446533203125,0.311737060546875,-0.74945068359375,0.18310546875,0.0,-0.1220703125,0.4461669921875,-0.80224609375,0.399658203125,-292.0,153.0,-149.0,101700.0,-3.120000123977661,0,0
2.421279499991215,0.3704833984375,-0.451446533203125,0.311737060546875,-0.74945068359375,0.1220703125,-0.06103515625,0.06103515625,0.44677734375,-0.8033447265625,0.396484375,-292.0,153.0,-149.0,101700.0,-3.120000123977661,0,0
2.480957899999339,0.370513916015625,-0.451446533203125,0.311737060546875,-0.74945068359375,0.06103515625,-0.1220703125,0.18310546875,0.444091796875,-0.80029296875,0.3973388671875,-292.0,153.0,-149.0,101700.0,-3.120000123977661,0,0
2.4810238999925787,0.370513916015625,-0.451446533203125,0.311737060546875,-0.74945068359375,0.1220703125,-0.06103515625,-0.18310546875,0.446533203125,-0.800048828125,0.397216796875,-292.0,153.0,-149.0,101700.0,-3.120000123977661,0,0
2.4918596999923466,0.3704833984375,-0.451446533203125,0.311737060546875,-0.74945068359375,-0.30517578125,0.0,0.06103515625,0.44580078125,-0.8004150390625,0.3968505859375,-292.0,153.0,-149.0,101700.0,-3.120000123977661,0,0
2.491958300000988,0.3704833984375,-0.45147705078125,0.311737060546875,-0.74945068359375,-0.1220703125,-0.30517578125,0.0,0.447509765625,-0.802001953125,0.3978271484375,-292.0,153.0,-149.0,101700.0,-3.120000123977661,0,0
2.4920225999958348,0.3704833984375,-0.45147705078125,0.311737060546875,-0.74945068359375,-0.1220703125,-0.30517578125,0.0,0.447509765625,-0.802001953125,0.3978271484375,-292.0,152.0,-148.0,101700.0,-3.120000123977661,0,0
2.492267499997979,0.37078857421875,-0.45159912109375,0.311553955078125,-0.749298095703125,0.244140625,-0.1220703125,-0.1220703125,0.448486328125,-0.80322265625,0.396484375,-292.0,152.0,-148.0,101700.0,-3.120000123977661,0,0
2.492333999995026,0.37078857421875,-0.45159912109375,0.3115234375,-0.749298095703125,0.0,-0.18310546875,0.1220703125,0.44580078125,-0.7996826171875,0.3988037109375,-292.0,152.0,-148.0,101700.0,-3.120000123977661,0,0
2.492391799998586,0.37078857421875,-0.45159912109375,0.3115234375,-0.749298095703125,0.244140625,-0.06103515625,-0.30517578125,0.446533203125,-0.80078125,0.3980712890625,-292.0,152.0,-148.0,101700.0,-3.120000123977661,0,0
2.492469799995888,0.37078857421875,-0.45159912109375,0.3115234375,-0.749298095703125,0.244140625,-0.06103515625,-0.30517578125,0.446533203125,-0.80078125,0.3980712890625,-292.0,152.0,-148.0,101700.0,-3.120000123977661,0,0
2.4925277000002097,0.37078857421875,-0.45159912109375,0.311553955078125,-0.749298095703125,0.0,0.06103515625,-0.06103515625,0.4437255859375,-0.8018798828125,0.3973388671875,-292.0,152.0,-148.0,101700.0,-3.120000123977661,0,0
2.4926012999931118,0.37078857421875,-0.45159912109375,0.311553955078125,-0.749298095703125,0.18310546875,0.1220703125,0.0,0.4429931640625,-0.8004150390625,0.39794921875,-292.0,152.0,-148.0,101700.0,-3.120000123977661,0,0
2.5487087999936193,0.37078857421875,-0.45159912109375,0.311553955078125,-0.749298095703125,0.1220703125,0.1220703125,-0.06103515625,0.4447021484375,-0.8021240234375,0.397216796875,-292.0,152.0,-148.0,101700.0,-3.120000123977661,0,0
2.5488171999895712,0.37078857421875,-0.45159912109375,0.311553955078125,-0.749298095703125,-0.06103515625,-0.18310546875,0.1220703125,0.4451904296875,-0.80224609375,0.3978271484375,-292.0,152.0,-148.0,101700.0,-3.120000123977661,0,0
2.548884599993471,0.370819091796875,-0.45159912109375,0.311553955078125,-0.749298095703125,0.30517578125,0.06103515625,0.0,0.445068359375,-0.80029296875,0.396728515625,-292.0,152.0,-148.0,101700.0,-3.120000123977661,0,0
2.5489446999999927,0.370819091796875,-0.45159912109375,0.311553955078125,-0.749298095703125,0.1220703125,0.06103515625,-0.244140625,0.4443359375,-0.80126953125,0.3985595703125,-292.0,152.0,-148.0,101700.0,-3.119000196456909,0,0
2.5490054999972926,0.370819091796875,-0.45159912109375,0.311553955078125,-0.749298095703125,0.1220703125,0.06103515625,-0.06103515625,0.4451904296875,-0.80029296875,0.3990478515625,-292.0,152.0,-148.0,101700.0,-3.119000196456909,0,0
2.549063499987824,0.37078857421875,-0.45159912109375,0.311553955078125,-0.749298095703125,0.18310546875,-0.06103515625,-0.1220703125,0.445068359375,-0.8017578125,0.3973388671875,-292.0,152.0,-148.0,101700.0,-3.119000196456909,0,0
2.549140899995109,0.37078857421875,-0.45159912109375,0.311553955078125,-0.749298095703125,-0.1220703125,-0.06103515625,0.06103515625,0.4462890625,-0.80126953125,0.398193359375,-292.0,152.0,-148.0,101700.0,-3.119000196456909,0,0
2.5491986999986693,0.37078857421875,-0.45159912109375,0.311553955078125,-0.749298095703125,-0.1220703125,-0.06103515625,0.06103515625,0.4462890625,-0.80126953125,0.398193359375,-292.0,152.0,-148.0,101700.0,-3.119000196456909,0,0
2.5492570999922464,0.37078857421875,-0.45159912109375,0.311553955078125,-0.749298095703125,0.1220703125,-0.1220703125,-0.244140625,0.4456787109375,-0.799560546875,0.3997802734375,-292.0,152.0,-148.0,101700.0,-3.119000196456909,0,0
2.549314799995045,0.37078857421875,-0.45159912109375,0.3115234375,-0.749298095703125,0.06103515625,-0.30517578125,-0.1220703125,0.447509765625,-0.8021240234375,0.3975830078125,-292.0,152.0,-148.0,101700.0,-3.119000196456909,0,0
2.549371599990991,0.37078857421875,-0.45159912109375,0.3115234375,-0.749298095703125,0.06103515625,-0.06103515625,-0.1220703125,0.4462890625,-0.8018798828125,0.3970947265625,-292.0,152.0,-148.0,101700.0,-3.119000196456909,0,0
2.549428899990744,0.37078857421875,-0.45159912109375,0.3115234375,-0.749298095703125,-0.18310546875,-0.06103515625,0.1220703125,0.4476318359375,-0.80029296875,0.3970947265625,-292.0,152.0,-148.0,101700.0,-3.119000196456909,0,0
2.5494844999921042,0.37078857421875,-0.45159912109375,0.3115234375,-0.749298095703125,0.1220703125,0.1220703125,0.0,0.4473876953125,-0.8011474609375,0.39892578125,-292.0,152.0,-148.0,101700.0,-3.119000196456909,0,0
2.6080965000001015,0.37109375,-0.45172119140625,0.31134033203125,-0.7491455078125,0.1220703125,-0.06103515625,0.0,0.4468994140625,-0.80224609375,0.397216796875,-293.0,152.0,-148.0,101700.0,-3.119000196456909,0,0
2.608164699995541,0.37109375,-0.45172119140625,0.31134033203125,-0.7491455078125,0.1220703125,-0.06103515625,0.0,0.4468994140625,-0.80224609375,0.397216796875,-293.0,152.0,-148.0,101700.0,-3.119000196456909,0,0
2.6082253999920795,0.37109375,-0.45172119140625,0.31134033203125,-0.7491455078125,0.06103515625,-0.30517578125,-0.18310546875,0.4461669921875,-0.80126953125,0.3980712890625,-293.0,152.0,-148.0,101700.0,-3.119000196456909,0,0
2.6082846999925096,0.37109375,-0.45172119140625,0.31134033203125,-0.749176025390625,-0.06103515625,-0.18310546875,-0.06103515625,0.44482421875,-0.802001953125,0.400146484375,-293.0,152.0,-148.0,101700.0,-3.119000196456909,0,0
2.6098839999904158,0.37109375,-0.45172119140625,0.31134033203125,-0.749176025390625,0.1220703125,-0.1220703125,-0.1220703125,0.4427490234375,-0.8018798828125,0.39892578125,-293.0,152.0,-148.0,101700.0,-3.119000196456909,0,0
2.609962699993048,0.37109375,-0.45172119140625,0.31134033203125,-0.749176025390625,0.06103515625,-0.244140625,0.1220703125,0.446533203125,-0.8004150390625,0.399658203125,-293.0,152.0,-148.0,101700.0,-3.119000196456909,0,0
2.610023799992632,0.37109375,-0.45172119140625,0.31134033203125,-0.749176025390625,-0.18310546875,0.0,0.18310546875,0.4476318359375,-0.8009033203125,0.3978271484375,-293.0,152.0,-148.0,101700.0,-3.119000196456909,0,0
2.6101299000001745,0.37109375,-0.45172119140625,0.311309814453125,-0.749176025390625,0.18310546875,-0.244140625,-0.1220703125,0.446044921875,-0.8001708984375,0.3975830078125,-293.0,152.0,-148.0,101700.0,-3.119000196456909,0,0
2.610189300001366,0.37109375,-0.45172119140625,0.31134033203125,-0.749176025390625,0.18310546875,0.06103515625,-0.06103515625,0.4443359375,-0.801025390625,0.3975830078125,-293.0,152.0,-148.0,101700.0,-3.119000196456909,0,0
2.61024679998809,0.37109375,-0.45172119140625,0.31134033203125,-0.749176025390625,-0.244140625,0.0,-0.06103515625,0.444580078125,-0.80126953125,0.3978271484375,-293.0,152.0,-148.0,101700.0,-3.120000123977661,0,0
2.610304099987843,0.37109375,-0.45172119140625,0.311309814453125,-0.749176025390625,-0.1220703125,-0.1220703125,0.18310546875,0.447998046875,-0.8011474609375,0.397216796875,-293.0,152.0,-148.0,101700.0,-3.120000123977661,0,0
2.6786377999960678,0.37109375,-0.45172119140625,0.311309814453125,-0.749176025390625,0.18310546875,-0.18310546875,0.06103515625,0.445068359375,-0.8016357421875,0.3984375,-293.0,152.0,-148.0,101700.0,-3.120000123977661,0,0
2.678720700001577,0.37109375,-0.45172119140625,0.311309814453125,-0.749176025390625,0.0,-0.06103515625,0.18310546875,0.4427490234375,-0.7991943359375,0.3970947265625,-293.0,152.0,-148.0,101700.0,-3.120000123977661,0,0
2.6787826999934623,0.37109375,-0.45172119140625,0.311309814453125,-0.749176025390625,0.0,-0.06103515625,0.1220703125,0.4449462890625,-0.800048828125,0.3974609375,-293.0,152.0,-148.0,101700.0,-3.120000123977661,0,0
2.678842399996938,0.37109375,-0.45172119140625,0.311309814453125,-0.749176025390625,-0.1220703125,-0.18310546875,-0.18310546875,0.4459228515625,-0.8017578125,0.3973388671875,-293.0,152.0,-148.0,101700.0,-3.120000123977661,0,0
2.6789022000011755,0.37109375,-0.45172119140625,0.311309814453125,-0.749176025390625,-0.18310546875,-0.18310546875,0.06103515625,0.4451904296875,-0.8009033203125,0.39794921875,-293.0,152.0,-148.0,101700.0,-3.120000123977661,0,0
2.6791738999891095,0.37109375,-0.45172119140625,0.31134033203125,-0.749176025390625,-0.06103515625,-0.18310546875,-0.06103515625,0.446044921875,-0.8001708984375,0.396484375,-293.0,152.0,-148.0,101700.0,-3.120000123977661,0,0
2.679243399994448,0.37109375,-0.45172119140625,0.31134033203125,-0.749176025390625,-0.06103515625,-0.18310546875,-0.06103515625,0.446044921875,-0.8001708984375,0.396484375,-292.0,153.0,-150.0,101700.0,-3.120000123977661,0,0
2.6793030999979237,0.37109375,-0.45172119140625,0.31134033203125,-0.749176025390625,-0.06103515625,-0.18310546875,-0.06103515625,0.446044921875,-0.8001708984375,0.396484375,-292.0,153.0,-150.0,101700.0,-3.120000123977661,0,0
2.679361299989978,0.37109375,-0.45172119140625,0.311309814453125,-0.749176025390625,-0.06103515625,0.244140625,0.0,0.445556640625,-0.801513671875,0.39892578125,-292.0,153.0,-150.0,101700.0,-3.120000123977661,0,0
2.6794189999927767,0.37109375,-0.45172119140625,0.311309814453125,-0.749176025390625,0.1220703125,0.06103515625,-0.06103515625,0.44580078125,-0.7999267578125,0.3973388671875,-292.0,153.0,-150.0,101700.0,-3.120000123977661,0,0
2.679476399993291,0.37109375,-0.451751708984375,0.311309814453125,-0.749176025390625,-0.18310546875,-0.244140625,0.0,0.44775390625,-0.8016357421875,0.3956298828125,-292.0,153.0,-150.0,101700.0,-3.120000123977661,0,0
2.7361384999967413,0.37109375,-0.451751708984375,0.311309814453125,-0.749176025390625,-0.1220703125,-0.1220703125,0.0,0.4462890625,-0.80029296875,0.3958740234375,-292.0,153.0,-150.0,101700.0,-3.120000123977661,0,0
2.7362162999925204,0.37109375,-0.451751708984375,0.31134033203125,-0.7491455078125,0.1220703125,0.0,0.0,0.4456787109375,-0.803466796875,0.396484375,-292.0,153.0,-150.0,101700.0,-3.120000123977661,0,0
2.736278999989736,0.37109375,-0.451751708984375,0.311309814453125,-0.7491455078125,0.1220703125,-0.18310546875,-0.06103515625,0.44775390625,-0.8011474609375,0.3970947265625,-292.0,153.0,-150.0,101700.0,-3.120000123977661,0,0
2.7363343999895733,0.37109375,-0.451751708984375,0.31134033203125,-0.7491455078125,0.1220703125,0.0,0.0,0.444091796875,-0.80224609375,0.3975830078125,-292.0,153.0,-150.0,101700.0,-3.120000123977661,0,0
2.7363890999986324,0.37109375,-0.451751708984375,0.31134033203125,-0.7491455078125,0.244140625,-0.06103515625,-0.3662109375,0.4456787109375,-0.80078125,0.396240234375,-292.0,153.0,-150.0,101700.0,-3.120000123977661,0,0
2.736442599998554,0.37109375,-0.451751708984375,0.31134033203125,-0.7491455078125,0.244140625,-0.06103515625,-0.3662109375,0.4456787109375,-0.80078125,0.396240234375,-292.0,153.0,-150.0,101700.0,-3.119000196456909,0,0
2.7398284999944735,0.37109375,-0.451751708984375,0.31134033203125,-0.7491455078125,0.244140625,-0.06103515625,-0.3662109375,0.4456787109375,-0.80078125,0.396240234375,-292.0,153.0,-150.0,101700.0,-3.119000196456909,0,0
2.7398855999927036,0.371063232421875,-0.451751708984375,0.31134033203125,-0.7491455078125,0.18310546875,-0.06103515625,-0.06103515625,0.4464111328125,-0.8004150390625,0.3958740234375,-292.0,153.0,-150.0,101700.0,-3.119000196456909,0,0
2.739938099999563,0.371063232421875,-0.451751708984375,0.31134033203125,-0.7491455078125,-0.1220703125,-0.06103515625,-0.06103515625,0.4456787109375,-0.8018798828125,0.396728515625,-292.0,153.0,-150.0,101700.0,-3.119000196456909,0,0
2.73999059999187,0.371063232421875,-0.451751708984375,0.31134033203125,-0.7491455078125,0.06103515625,-0.1220703125,0.0,0.445068359375,-0.803955078125,0.39697265625,-292.0,153.0,-150.0,101700.0,-3.119000196456909,0,0
2.7400417999888305,0.37109375,-0.451751708984375,0.31134033203125,-0.7491455078125,0.1220703125,-0.06103515625,0.0,0.444580078125,-0.8026123046875,0.39697265625,-292.0,153.0,-150.0,101700.0,-3.119000196456909,0,0
2.740095499990275,0.37109375,-0.451751708984375,0.31134033203125,-0.7491455078125,0.1220703125,-0.18310546875,0.244140625,0.444091796875,-0.8018798828125,0.3961181640625,-292.0,153.0,-150.0,101700.0,-3.119000196456909,0,0
2.7401459999964572,0.371063232421875,-0.451751708984375,0.31134033203125,-0.7491455078125,-0.18310546875,-0.06103515625,0.18310546875,0.4454345703125,-0.8013916015625,0.3963623046875,-292.0,153.0,-150.0,101700.0,-3.119000196456909,0,0
2.808595800001058,0.371063232421875,-0.4517822265625,0.31134033203125,-0.7491455078125,0.0,-0.1220703125,0.1220703125,0.446044921875,-0.8021240234375,0.3961181640625,-292.0,153.0,-150.0,101700.0,-3.119000196456909,0,0
2.808669199992437,0.37127685546875,-0.45184326171875,0.31121826171875,-0.749053955078125,0.18310546875,-0.18310546875,-0.244140625,0.4444580078125,-0.80322265625,0.3988037109375,-292.0,154.0,-150.0,101700.0,-3.119000196456909,0,0
2.808726699993713,0.37127685546875,-0.45184326171875,0.31121826171875,-0.7490234375,0.06103515625,0.0,-0.1220703125,0.4462890625,-0.802490234375,0.394775390625,-292.0,154.0,-150.0,101700.0,-3.119000196456909,0,0
2.8087831000011647,0.37127685546875,-0.45184326171875,0.31121826171875,-0.7490234375,0.244140625,0.0,0.1220703125,0.444580078125,-0.8004150390625,0.3973388671875,-292.0,154.0,-150.0,101700.0,-3.119000196456909,0,0
2.808841099991696,0.37127685546875,-0.45184326171875,0.31121826171875,-0.7490234375,0.30517578125,0.06103515625,-0.06103515625,0.4447021484375,-0.8011474609375,0.3975830078125,-292.0,154.0,-150.0,101700.0,-3.119000196456909,0,0
2.8089143999968655,0.37127685546875,-0.45184326171875,0.31121826171875,-0.7490234375,-0.1220703125,0.1220703125,0.1220703125,0.4466552734375,-0.8006591796875,0.3988037109375,-292.0,154.0,-150.0,101700.0,-3.119000196456909,0,0
2.8089723000011873,0.37127685546875,-0.45184326171875,0.31121826171875,-0.749053955078125,-0.1220703125,0.1220703125,0.1220703125,0.4466552734375,-0.8006591796875,0.3988037109375,-292.0,154.0,-150.0,101700.0,-3.119000196456909,0,0
2.8090278999879956,0.37127685546875,-0.45184326171875,0.31121826171875,-0.749053955078125,-0.1220703125,0.0,0.0,0.4447021484375,-0.80126953125,0.39892578125,-292.0,154.0,-150.0,101700.0,-3.119000196456909,0,0
2.809079799990286,0.37127685546875,-0.45184326171875,0.31121826171875,-0.749053955078125,0.18310546875,-0.18310546875,0.18310546875,0.4453125,-0.8031005859375,0.3973388671875,-292.0,154.0,-150.0,101700.0,-3.119000196456909,0,0
2.8091303999972297,0.37127685546875,-0.45184326171875,0.31121826171875,-0.749053955078125,-0.54931640625,0.1220703125,0.0,0.444580078125,-0.8018798828125,0.3983154296875,-292.0,154.0,-150.0,101700.0,-3.119000196456909,0,0
2.8091851999924984,0.37127685546875,-0.45184326171875,0.31121826171875,-0.749053955078125,-0.54931640625,0.1220703125,0.0,0.444580078125,-0.8018798828125,0.3983154296875,-292.0,154.0,-150.0,101700.0,-3.119000196456909,0,0
2.8669468000007328,0.37127685546875,-0.45184326171875,0.31121826171875,-0.749053955078125,0.18310546875,-0.06103515625,0.18310546875,0.44384765625,-0.7998046875,0.3988037109375,-292.0,154.0,-150.0,101700.0,-3.120000123977661,0,0
2.867017799988389,0.37127685546875,-0.45184326171875,0.31121826171875,-0.749053955078125,0.0,-0.1220703125,-0.06103515625,0.445556640625,-0.80126953125,0.3963623046875,-292.0,154.0,-150.0,101700.0,-3.120000123977661,0,0
2.8670758999942336,0.37127685546875,-0.45184326171875,0.31121826171875,-0.749053955078125,0.06103515625,-0.30517578125,-0.1220703125,0.4462890625,-0.8021240234375,0.3963623046875,-292.0,154.0,-150.0,101700.0,-3.120000123977661,0,0
2.86713040000177,0.37127685546875,-0.45184326171875,0.31121826171875,-0.749053955078125,0.244140625,-0.244140625,0.06103515625,0.4471435546875,-0.8016357421875,0.3970947265625,-292.0,154.0,-150.0,101700.0,-3.120000123977661,0,0
2.867186599993147,0.37127685546875,-0.45184326171875,0.31121826171875,-0.749053955078125,0.06103515625,-0.3662109375,0.06103515625,0.44580078125,-0.802734375,0.3995361328125,-292.0,154.0,-150.0,101700.0,-3.120000123977661,0,0
2.8674266999878455,0.37127685546875,-0.45184326171875,0.31121826171875,-0.749053955078125,0.3662109375,-0.1220703125,-0.1220703125,0.4462890625,-0.7998046875,0.3978271484375,-292.0,154.0,-150.0,101700.0,-3.120000123977661,0,0
2.8674895000003744,0.37127685546875,-0.45184326171875,0.31121826171875,-0.749053955078125,0.3662109375,-0.1220703125,-0.1220703125,0.4462890625,-0.7998046875,0.3978271484375,-292.0,154.0,-150.0,101700.0,-3.120000123977661,0,0
2.867545799992513,0.37127685546875,-0.45184326171875,0.31121826171875,-0.749053955078125,-0.18310546875,0.0,0.06103515625,0.446044921875,-0.8016357421875,0.3985595703125,-292.0,154.0,-150.0,101700.0,-3.120000123977661,0,0
2.8675998999970034,0.37127685546875,-0.45184326171875,0.31121826171875,-0.749053955078125,-0.18310546875,0.0,0.06103515625,0.446044921875,-0.8016357421875,0.3985595703125,-292.0,153.0,-151.0,101700.0,-3.120000123977661,0,0
2.8676545999915106,0.37109375,-0.451751708984375,0.31134033203125,-0.7491455078125,-0.06103515625,-0.1220703125,0.06103515625,0.4453125,-0.8017578125,0.3975830078125,-292.0,153.0,-151.0,101700.0,-3.120000123977661,0,0
2.8677098999905866,0.37109375,-0.451751708984375,0.31134033203125,-0.7491455078125,0.1220703125,0.1220703125,-0.244140625,0.443359375,-0.8004150390625,0.398193359375,-292.0,153.0,-151.0,101700.0,-3.120000123977661,0,0
2.927436199999647,0.37109375,-0.451751708984375,0.31134033203125,-0.7491455078125,0.06103515625,0.0,0.1220703125,0.444580078125,-0.801513671875,0.3983154296875,-292.0,153.0,-151.0,101700.0,-3.120000123977661,0,0
2.9275013000005856,0.37109375,-0.451751708984375,0.31134033203125,-0.7491455078125,0.0,0.0,0.1220703125,0.4464111328125,-0.802490234375,0.3974609375,-292.0,153.0,-151.0,101700.0,-3.120000123977661,0,0
2.9275588000018615,0.37109375,-0.451751708984375,0.31134033203125,-0.7491455078125,0.18310546875,0.06103515625,-0.1220703125,0.4482421875,-0.8013916015625,0.3990478515625,-292.0,153.0,-151.0,101700.0,-3.120000123977661,0,0
2.9276149999932386,0.37109375,-0.451751708984375,0.31134033203125,-0.7491455078125,-0.18310546875,-0.244140625,0.06103515625,0.4461669921875,-0.80078125,0.39794921875,-292.0,153.0,-151.0,101700.0,-3.120000123977661,0,0
2.9276736999891,0.37109375,-0.451751708984375,0.31134033203125,-0.7491455078125,0.0,-0.1220703125,-0.18310546875,0.4449462890625,-0.801025390625,0.3970947265625,-292.0,153.0,-151.0,101700.0,-3.120000123977661,0,0
2.927725499990629,0.37109375,-0.451751708984375,0.31134033203125,-0.7491455078125,0.0,-0.1220703125,-0.18310546875,0.4449462890625,-0.801025390625,0.3970947265625,-292.0,153.0,-151.0,101700.0,-3.120000123977661,0,0
2.9278478999913204,0.37109375,-0.451751708984375,0.31134033203125,-0.7491455078125,-0.18310546875,-0.244140625,-0.06103515625,0.443115234375,-0.799560546875,0.3992919921875,-292.0,153.0,-151.0,101700.0,-3.120000123977661,0,0
2.9414324999961536,0.37109375,-0.451751708984375,0.31134033203125,-0.7491455078125,0.18310546875,-0.30517578125,0.0,0.4456787109375,-0.80126953125,0.3968505859375,-292.0,153.0,-151.0,101700.0,-3.121000051498413,0,0
2.941494699989562,0.37109375,-0.451751708984375,0.31134033203125,-0.7491455078125,0.18310546875,-0.1220703125,-0.18310546875,0.4437255859375,-0.80078125,0.3975830078125,-292.0,153.0,-151.0,101700.0,-3.121000051498413,0,0
2.9415498999878764,0.37109375,-0.451751708984375,0.31134033203125,-0.7491455078125,0.0,0.18310546875,-0.1220703125,0.4464111328125,-0.800048828125,0.39892578125,-292.0,153.0,-151.0,101700.0,-3.121000051498413,0,0
2.941603599989321,0.37109375,-0.451751708984375,0.31134033203125,-0.7491455078125,0.06103515625,-0.06103515625,0.06103515625,0.4447021484375,-0.8016357421875,0.4007568359375,-292.0,153.0,-151.0,101700.0,-3.121000051498413,0,0
2.941657799994573,0.37109375,-0.451751708984375,0.31134033203125,-0.7491455078125,0.06103515625,-0.1220703125,0.06103515625,0.44580078125,-0.799072265625,0.3983154296875,-292.0,153.0,-151.0,101700.0,-3.121000051498413,0,0
2.941710499988403,0.37109375,-0.451751708984375,0.31134033203125,-0.7491455078125,0.244140625,0.1220703125,0.06103515625,0.44580078125,-0.8001708984375,0.397216796875,-292.0,153.0,-151.0,101700.0,-3.121000051498413,0,0
2.995481899997685,0.37109375,-0.451751708984375,0.31134033203125,-0.7491455078125,0.06103515625,-0.1220703125,0.1220703125,0.4454345703125,-0.8018798828125,0.3975830078125,-292.0,153.0,-151.0,101700.0,-3.121000051498413,0,0
2.995547300000908,0.37109375,-0.451751708984375,0.31134033203125,-0.7491455078125,0.06103515625,-0.18310546875,0.1220703125,0.447998046875,-0.8013916015625,0.400390625,-292.0,153.0,-151.0,101700.0,-3.121000051498413,0,0
2.9956047000014223,0.37109375,-0.451751708984375,0.311309814453125,-0.7491455078125,0.244140625,0.0,-0.1220703125,0.4466552734375,-0.8026123046875,0.399169921875,-292.0,153.0,-151.0,101700.0,-3.121000051498413,0,0
2.9956608999927994,0.37109375,-0.451751708984375,0.31134033203125,-0.7491455078125,0.1220703125,-0.18310546875,0.18310546875,0.444580078125,-0.8017578125,0.39697265625,-292.0,153.0,-150.0,101700.0,-3.121000051498413,0,0
2.9957435999967856,0.37109375,-0.451751708984375,0.311309814453125,-0.7491455078125,-0.1220703125,-0.06103515625,-0.18310546875,0.446044921875,-0.8018798828125,0.3990478515625,-292.0,153.0,-150.0,101700.0,-3.121000051498413,0,0
