Time stamp(sec),adc1,adc2,roll_angular_rate,pitch_angular_rate,yaw_angular_rate,acc_X,acc_Y,acc_Z,mag_X,mag_Y,mag_Z,pressure,altitude
0.005329500010702759,0.377716064453125,-0.455596923828125,0.30303955078125,-0.746917724609375,0.244140625,0.0,0.06103515625,0.451416015625,-0.798828125,0.400634765625,-296.0,147.0,-146.0,101713.0,-3.2310001850128174,0,0
0.005393300001742318,0.377716064453125,-0.455596923828125,0.30303955078125,-0.746917724609375,-0.06103515625,-0.30517578125,0.1220703125,0.453125,-0.79638671875,0.400146484375,-296.0,147.0,-146.0,101713.0,-3.2320001125335693,0,0
0.005452100012917072,0.377716064453125,-0.455596923828125,0.30303955078125,-0.746917724609375,-0.06103515625,-0.30517578125,0.1220703125,0.453125,-0.79638671875,0.400146484375,-296.0,147.0,-146.0,101713.0,-3.2320001125335693,0,0
0.0056801000027917325,0.377716064453125,-0.455596923828125,0.30303955078125,-0.746917724609375,0.1220703125,-0.18310546875,-0.1220703125,0.450439453125,-0.796142578125,0.400634765625,-296.0,147.0,-146.0,101713.0,-3.2320001125335693,0,0
0.006228000012924895,0.377716064453125,-0.455596923828125,0.30303955078125,-0.746917724609375,0.1220703125,-0.30517578125,-0.18310546875,0.4521484375,-0.7958984375,0.4019775390625,-296.0,147.0,-146.0,101713.0,-3.2320001125335693,0,0
0.006293000013101846,0.377716064453125,-0.455596923828125,0.30303955078125,-0.746917724609375,0.42724609375,-0.42724609375,-0.18310546875,0.45263671875,-0.795654296875,0.4024658203125,-296.0,147.0,-146.0,101713.0,-3.2320001125335693,0,0
0.00636800000211224,0.377716064453125,-0.455596923828125,0.30303955078125,-0.746917724609375,0.06103515625,-0.18310546875,-0.18310546875,0.4505615234375,-0.7977294921875,0.4010009765625,-296.0,147.0,-146.0,101713.0,-3.2320001125335693,0,0
0.006503700002213009,0.377716064453125,-0.45556640625,0.30303955078125,-0.746917724609375,0.6103515625,-0.1220703125,-0.1220703125,0.4510498046875,-0.797119140625,0.4031982421875,-296.0,147.0,-146.0,101713.0,-3.2320001125335693,0,0
0.006576400002813898,0.377716064453125,-0.45556640625,0.30303955078125,-0.746917724609375,-0.06103515625,-0.1220703125,0.18310546875,0.4525146484375,-0.79638671875,0.40283203125,-296.0,147.0,-146.0,101713.0,-3.2320001125335693,0,0
0.006723700003931299,0.377716064453125,-0.45556640625,0.30303955078125,-0.746917724609375,0.244140625,-0.06103515625,0.18310546875,0.4537353515625,-0.7965087890625,0.4053955078125,-296.0,147.0,-146.0,101713.0,-3.2320001125335693,0,0
0.006783400007407181,0.377716064453125,-0.45556640625,0.30303955078125,-0.746917724609375,-0.1220703125,-0.244140625,0.06103515625,0.4483642578125,-0.7938232421875,0.4046630859375,-296.0,147.0,-146.0,101713.0,-3.2320001125335693,0,0
0.0679293000139296,0.37762451171875,-0.45550537109375,0.3031005859375,-0.746978759765625,0.30517578125,-0.244140625,-0.30517578125,0.4501953125,-0.7962646484375,0.399169921875,-296.0,149.0,-146.0,101713.0,-3.2320001125335693,0,0
0.06799140000657644,0.37762451171875,-0.45550537109375,0.3031005859375,-0.746978759765625,0.06103515625,-0.244140625,0.06103515625,0.45166015625,-0.7957763671875,0.4007568359375,-296.0,149.0,-146.0,101713.0,-3.2320001125335693,0,0
0.06804750001174398,0.37762451171875,-0.45550537109375,0.303070068359375,-0.746978759765625,0.244140625,0.1220703125,0.18310546875,0.452392578125,-0.7965087890625,0.4019775390625,-296.0,149.0,-146.0,101713.0,-3.2320001125335693,0,0
0.06810220000625122,0.37762451171875,-0.45550537109375,0.303070068359375,-0.746978759765625,-0.1220703125,-0.18310546875,0.18310546875,0.45166015625,-0.7957763671875,0.4027099609375,-296.0,149.0,-146.0,101713.0,-3.2320001125335693,0,0
0.06815679999999702,0.37762451171875,-0.45550537109375,0.303070068359375,-0.74700927734375,-0.1220703125,-0.48828125,0.1220703125,0.45263671875,-0.7943115234375,0.4058837890625,-296.0,149.0,-146.0,101713.0,-3.2320001125335693,0,0
0.07150630000978708,0.37762451171875,-0.45550537109375,0.303070068359375,-0.74700927734375,0.1220703125,-0.18310546875,0.18310546875,0.449951171875,-0.7952880859375,0.404541015625,-296.0,149.0,-146.0,101713.0,-3.2320001125335693,0,0
0.07156990001385566,0.37762451171875,-0.45550537109375,0.303070068359375,-0.74700927734375,0.06103515625,0.0,0.1220703125,0.4510498046875,-0.795654296875,0.4019775390625,-296.0,149.0,-146.0,101713.0,-3.2320001125335693,0,0
0.07162349999998696,0.37762451171875,-0.45550537109375,0.303070068359375,-0.74700927734375,-0.1220703125,-0.30517578125,0.0,0.45166015625,-0.7962646484375,0.4007568359375,-296.0,149.0,-146.0,101713.0,-3.2320001125335693,0,0
0.07167870001285337,0.37762451171875,-0.45550537109375,0.303070068359375,-0.74700927734375,-0.1220703125,-0.30517578125,0.0,0.45166015625,-0.7962646484375,0.4007568359375,-296.0,149.0,-146.0,101713.0,-3.2320001125335693,0,0
0.07173280000279192,0.37762451171875,-0.45550537109375,0.303070068359375,-0.74700927734375,-0.06103515625,-0.244140625,-0.18310546875,0.45068359375,-0.795654296875,0.4002685546875,-296.0,149.0,-146.0,101713.0,-3.2290000915527344,0,0
0.07178589999966789,0.37762451171875,-0.45550537109375,0.303070068359375,-0.74700927734375,0.1220703125,-0.48828125,-0.30517578125,0.4495849609375,-0.7952880859375,0.3980712890625,-296.0,149.0,-146.0,101713.0,-3.2290000915527344,0,0
0.13335870001174044,0.37762451171875,-0.45550537109375,0.30303955078125,-0.74700927734375,0.244140625,-0.06103515625,-0.18310546875,0.454345703125,-0.7955322265625,0.40283203125,-296.0,149.0,-146.0,101713.0,-3.2290000915527344,0,0
0.13342530000954866,0.37762451171875,-0.45550537109375,0.30303955078125,-0.74700927734375,0.18310546875,-0.1220703125,-0.06103515625,0.4560546875,-0.7960205078125,0.404296875,-296.0,149.0,-146.0,101713.0,-3.2290000915527344,0,0
0.13352390000363812,0.37762451171875,-0.45550537109375,0.30303955078125,-0.74700927734375,0.06103515625,-0.244140625,0.06103515625,0.4534912109375,-0.7965087890625,0.4044189453125,-296.0,149.0,-146.0,101713.0,-3.2290000915527344,0,0
0.13358370000787545,0.37762451171875,-0.455474853515625,0.30303955078125,-0.747039794921875,0.18310546875,-0.18310546875,0.06103515625,0.4503173828125,-0.7965087890625,0.40283203125,-296.0,149.0,-146.0,101713.0,-3.2290000915527344,0,0
0.1353226000064751,0.37762451171875,-0.455474853515625,0.30303955078125,-0.747039794921875,-0.06103515625,-0.06103515625,-0.06103515625,0.4508056640625,-0.799072265625,0.4029541015625,-296.0,149.0,-146.0,101713.0,-3.2290000915527344,0,0
0.13539780001156032,0.37762451171875,-0.455474853515625,0.30303955078125,-0.747039794921875,0.18310546875,0.06103515625,0.1220703125,0.4505615234375,-0.797119140625,0.4019775390625,-296.0,149.0,-146.0,101713.0,-3.2290000915527344,0,0
0.13555140000244137,0.37762451171875,-0.455474853515625,0.30303955078125,-0.747039794921875,0.18310546875,0.06103515625,0.1220703125,0.4505615234375,-0.797119140625,0.4019775390625,-296.0,149.0,-146.0,101713.0,-3.2290000915527344,0,0
0.1356069000030402,0.37762451171875,-0.455474853515625,0.30303955078125,-0.74700927734375,0.30517578125,-0.30517578125,0.06103515625,0.44970703125,-0.79736328125,0.400634765625,-296.0,149.0,-146.0,101713.0,-3.2290000915527344,0,0
0.13566200000059325,0.37762451171875,-0.455474853515625,0.30303955078125,-0.74700927734375,0.1220703125,-0.18310546875,-0.06103515625,0.4488525390625,-0.7977294921875,0.400146484375,-296.0,149.0,-147.0,101713.0,-3.2290000915527344,0,0
0.13571600000432227,0.37762451171875,-0.455474853515625,0.30303955078125,-0.74700927734375,0.3662109375,-0.42724609375,0.06103515625,0.4495849609375,-0.7952880859375,0.4012451171875,-296.0,149.0,-147.0,101713.0,-3.2290000915527344,0,0
0.13576750000356697,0.377532958984375,-0.455413818359375,0.3031005859375,-0.7470703125,0.30517578125,-0.42724609375,-0.1220703125,0.449951171875,-0.7950439453125,0.4017333984375,-296.0,149.0,-147.0,101713.0,-3.2290000915527344,0,0
0.13582410001254175,0.377532958984375,-0.455413818359375,0.3031005859375,-0.7470703125,0.42724609375,-0.18310546875,-0.06103515625,0.4503173828125,-0.7960205078125,0.40283203125,-296.0,149.0,-147.0,101713.0,-3.2290000915527344,0,0
0.1358811000100104,0.377532958984375,-0.455413818359375,0.3031005859375,-0.747100830078125,0.0,-0.18310546875,0.0,0.451416015625,-0.797607421875,0.4024658203125,-296.0,149.0,-147.0,101713.0,-3.2290000915527344,0,0
0.20253080000111368,0.377532958984375,-0.4554443359375,0.303131103515625,-0.7470703125,-0.06103515625,-0.06103515625,-0.18310546875,0.450927734375,-0.7965087890625,0.4017333984375,-296.0,149.0,-147.0,101713.0,-3.2290000915527344,0,0
0.20259580000129063,0.377532958984375,-0.4554443359375,0.303131103515625,-0.7470703125,-0.06103515625,-0.06103515625,-0.18310546875,0.450927734375,-0.7965087890625,0.4017333984375,-296.0,149.0,-147.0,101713.0,-3.2290000915527344,0,0
0.2026532000018051,0.377532958984375,-0.4554443359375,0.303131103515625,-0.7470703125,0.18310546875,-0.18310546875,0.1220703125,0.4498291015625,-0.79443359375,0.4013671875,-296.0,149.0,-147.0,101713.0,-3.2290000915527344,0,0
0.20270870000240393,0.377532958984375,-0.4554443359375,0.303131103515625,-0.7470703125,0.0,-0.244140625,0.1220703125,0.452880859375,-0.7957763671875,0.40185546875,-296.0,149.0,-147.0,101713.0,-3.2310001850128174,0,0
0.2027632000099402,0.377532958984375,-0.4554443359375,0.303131103515625,-0.7470703125,0.0,0.0,0.06103515625,0.4508056640625,-0.797119140625,0.401611328125,-296.0,149.0,-147.0,101713.0,-3.2310001850128174,0,0
0.20283560000825673,0.377532958984375,-0.4554443359375,0.303131103515625,-0.7470703125,0.06103515625,-0.18310546875,-0.48828125,0.451416015625,-0.794677734375,0.4013671875,-296.0,149.0,-147.0,101713.0,-3.2310001850128174,0,0
0.20288960001198575,0.377532958984375,-0.4554443359375,0.303131103515625,-0.7470703125,0.18310546875,-0.42724609375,-0.18310546875,0.4515380859375,-0.7958984375,0.401611328125,-296.0,149.0,-147.0,101713.0,-3.2310001850128174,0,0
0.20297510000818875,0.377532958984375,-0.4554443359375,0.303131103515625,-0.7470703125,0.1220703125,-0.3662109375,-0.06103515625,0.4515380859375,-0.7958984375,0.3995361328125,-296.0,149.0,-147.0,101713.0,-3.2310001850128174,0,0
0.20303090001107194,0.377532958984375,-0.4554443359375,0.303131103515625,-0.7470703125,0.18310546875,-0.3662109375,-0.06103515625,0.4527587890625,-0.79638671875,0.39892578125,-296.0,149.0,-147.0,101713.0,-3.2310001850128174,0,0
0.2030844000109937,0.377532958984375,-0.4554443359375,0.303131103515625,-0.7470703125,0.244140625,-0.54931640625,-0.1220703125,0.451904296875,-0.7955322265625,0.39892578125,-296.0,149.0,-147.0,101713.0,-3.2310001850128174,0,0
0.20313770000939257,0.377532958984375,-0.4554443359375,0.303131103515625,-0.7470703125,0.244140625,-0.54931640625,-0.1220703125,0.451904296875,-0.7955322265625,0.39892578125,-296.0,149.0,-147.0,101713.0,-3.2310001850128174,0,0
0.2599415000004228,0.377532958984375,-0.4554443359375,0.303131103515625,-0.7470703125,-0.06103515625,-0.18310546875,0.06103515625,0.4525146484375,-0.7955322265625,0.3988037109375,-296.0,149.0,-147.0,101713.0,-3.2310001850128174,0,0
0.26000580000982154,0.377532958984375,-0.4554443359375,0.303131103515625,-0.7470703125,-0.1220703125,-0.18310546875,-0.06103515625,0.450439453125,-0.7960205078125,0.39990234375,-295.0,150.0,-147.0,101713.0,-3.2310001850128174,0,0
0.2600628000072902,0.377532958984375,-0.4554443359375,0.303131103515625,-0.747039794921875,0.1220703125,-0.244140625,-0.1220703125,0.4521484375,-0.7965087890625,0.3995361328125,-295.0,150.0,-147.0,101713.0,-3.2310001850128174,0,0
0.260116300007212,0.377532958984375,-0.455474853515625,0.303131103515625,-0.747039794921875,0.0,-0.244140625,0.06103515625,0.45263671875,-0.7965087890625,0.3994140625,-295.0,150.0,-147.0,101713.0,-3.2310001850128174,0,0
0.2601710000017192,0.377532958984375,-0.455474853515625,0.303131103515625,-0.747039794921875,0.244140625,-0.30517578125,0.18310546875,0.4501953125,-0.7960205078125,0.4029541015625,-295.0,150.0,-147.0,101713.0,-3.2310001850128174,0,0
0.2605134000041289,0.377532958984375,-0.4554443359375,0.303131103515625,-0.747039794921875,0.18310546875,-0.06103515625,-0.18310546875,0.448974609375,-0.79541015625,0.4014892578125,-295.0,150.0,-147.0,101713.0,-3.2310001850128174,0,0
0.2605681000131881,0.377532958984375,-0.4554443359375,0.303131103515625,-0.747039794921875,-0.06103515625,-0.1220703125,0.0,0.44970703125,-0.7957763671875,0.4000244140625,-295.0,150.0,-147.0,101713.0,-3.2310001850128174,0,0
0.26062180000008084,0.377532958984375,-0.4554443359375,0.303131103515625,-0.747039794921875,-0.06103515625,-0.1220703125,0.0,0.44970703125,-0.7957763671875,0.4000244140625,-295.0,150.0,-147.0,101713.0,-3.2310001850128174,0,0
0.26067390000389423,0.377532958984375,-0.4554443359375,0.303131103515625,-0.7470703125,0.1220703125,-0.42724609375,-0.18310546875,0.45166015625,-0.7940673828125,0.4012451171875,-295.0,150.0,-147.0,101713.0,-3.2310001850128174,0,0
0.2607260000077076,0.377532958984375,-0.4554443359375,0.303131103515625,-0.747039794921875,0.06103515625,0.0,-0.54931640625,0.45068359375,-0.79736328125,0.4007568359375,-295.0,150.0,-147.0,101713.0,-3.2310001850128174,0,0
0.26077900000382215,0.377532958984375,-0.4554443359375,0.303131103515625,-0.747039794921875,0.1220703125,-0.06103515625,0.0,0.4508056640625,-0.797607421875,0.4013671875,-295.0,150.0,-147.0,101713.0,-3.2310001850128174,0,0
0.3230790000088746,0.377532958984375,-0.4554443359375,0.303131103515625,-0.747039794921875,0.0,-0.18310546875,-0.1220703125,0.45166015625,-0.7984619140625,0.4007568359375,-295.0,150.0,-147.0,101713.0,-3.2320001125335693,0,0
0.3231421000091359,0.377532958984375,-0.4554443359375,0.303131103515625,-0.747039794921875,0.42724609375,-0.244140625,0.06103515625,0.4503173828125,-0.7950439453125,0.4007568359375,-295.0,150.0,-147.0,101713.0,-3.2320001125335693,0,0
0.3231981999997515,0.377532958984375,-0.4554443359375,0.303131103515625,-0.747039794921875,0.1220703125,-0.1220703125,-0.1220703125,0.4515380859375,-0.796142578125,0.4010009765625,-295.0,150.0,-147.0,101713.0,-3.2320001125335693,0,0
0.32325140001194086,0.377532958984375,-0.4554443359375,0.303131103515625,-0.747039794921875,0.1220703125,-0.1220703125,-0.1220703125,0.4515380859375,-0.796142578125,0.4010009765625,-295.0,150.0,-147.0,101713.0,-3.2320001125335693,0,0
0.3234965000010561,0.377532958984375,-0.4554443359375,0.303131103515625,-0.747039794921875,0.3662109375,-0.30517578125,-0.18310546875,0.4521484375,-0.79638671875,0.4002685546875,-295.0,150.0,-147.0,101713.0,-3.2320001125335693,0,0
0.3235591000120621,0.377532958984375,-0.4554443359375,0.303131103515625,-0.747039794921875,-0.06103515625,-0.244140625,-0.1220703125,0.45166015625,-0.7965087890625,0.4019775390625,-295.0,150.0,-147.0,101713.0,-3.2320001125335693,0,0
0.3236147000134224,0.377532958984375,-0.4554443359375,0.303131103515625,-0.747039794921875,0.244140625,0.0,0.1220703125,0.4510498046875,-0.7967529296875,0.3995361328125,-295.0,150.0,-147.0,101713.0,-3.2320001125335693,0,0
0.32366840000031516,0.377532958984375,-0.4554443359375,0.303131103515625,-0.747039794921875,0.244140625,-0.30517578125,0.06103515625,0.4510498046875,-0.79443359375,0.3988037109375,-295.0,150.0,-147.0,101713.0,-3.2320001125335693,0,0
0.3237247000070056,0.377532958984375,-0.4554443359375,0.303131103515625,-0.747039794921875,0.244140625,-0.30517578125,0.06103515625,0.4510498046875,-0.79443359375,0.3988037109375,-295.0,150.0,-148.0,101713.0,-3.2320001125335693,0,0
0.32377980000455864,0.377532958984375,-0.455474853515625,0.30316162109375,-0.747039794921875,0.30517578125,-0.244140625,0.06103515625,0.450927734375,-0.796630859375,0.3995361328125,-295.0,150.0,-148.0,101713.0,-3.2320001125335693,0,0
0.32383459999982733,0.377532958984375,-0.4554443359375,0.30316162109375,-0.747039794921875,0.1220703125,0.06103515625,-0.18310546875,0.4508056640625,-0.797119140625,0.401123046875,-295.0,150.0,-148.0,101713.0,-3.2320001125335693,0,0
0.3901948000129778,0.377532958984375,-0.455474853515625,0.303131103515625,-0.747039794921875,0.18310546875,-0.244140625,-0.244140625,0.45166015625,-0.7958984375,0.40087890625,-295.0,150.0,-148.0,101713.0,-3.2320001125335693,0,0
0.39025960001163185,0.377532958984375,-0.4554443359375,0.30316162109375,-0.747039794921875,-0.06103515625,-0.18310546875,0.1220703125,0.450439453125,-0.7960205078125,0.4019775390625,-295.0,150.0,-148.0,101713.0,-3.2320001125335693,0,0
0.39031960000284016,0.377532958984375,-0.4554443359375,0.30316162109375,-0.747039794921875,0.06103515625,-0.244140625,0.0,0.4505615234375,-0.796875,0.400390625,-295.0,150.0,-148.0,101713.0,-3.2320001125335693,0,0
0.39037930000631604,0.377532958984375,-0.4554443359375,0.30316162109375,-0.747039794921875,0.0,-0.1220703125,0.1220703125,0.449951171875,-0.798583984375,0.403076171875,-295.0,150.0,-148.0,101713.0,-3.2320001125335693,0,0
0.3904406000074232,0.377532958984375,-0.4554443359375,0.30316162109375,-0.747039794921875,0.18310546875,0.0,0.0,0.4503173828125,-0.7979736328125,0.4010009765625,-295.0,150.0,-148.0,101713.0,-3.2320001125335693,0,0
0.39200810001057107,0.377532958984375,-0.4554443359375,0.30316162109375,-0.747039794921875,0.0,-0.18310546875,-0.1220703125,0.451171875,-0.797119140625,0.4013671875,-295.0,150.0,-148.0,101713.0,-3.2310001850128174,0,0
0.3920741000038106,0.377532958984375,-0.4554443359375,0.30316162109375,-0.747039794921875,-0.244140625,-0.30517578125,-0.1220703125,0.4505615234375,-0.7957763671875,0.39990234375,-295.0,150.0,-148.0,101713.0,-3.2310001850128174,0,0
0.39248990001215134,0.377532958984375,-0.455474853515625,0.30316162109375,-0.747039794921875,-0.244140625,-0.1220703125,0.0,0.4500732421875,-0.7965087890625,0.3995361328125,-295.0,150.0,-148.0,101713.0,-3.2310001850128174,0,0
0.392607500005397,0.377532958984375,-0.455474853515625,0.30316162109375,-0.747039794921875,0.18310546875,-0.3662109375,-0.244140625,0.4521484375,-0.7967529296875,0.4002685546875,-295.0,150.0,-148.0,101713.0,-3.2310001850128174,0,0
0.3926728000078583,0.377532958984375,-0.455474853515625,0.30316162109375,-0.747039794921875,0.18310546875,-0.3662109375,-0.244140625,0.4521484375,-0.7967529296875,0.4002685546875,-295.0,150.0,-148.0,101713.0,-3.2310001850128174,0,0
0.392863800007035,0.377532958984375,-0.455474853515625,0.30316162109375,-0.747039794921875,0.18310546875,-0.18310546875,-0.244140625,0.451416015625,-0.7950439453125,0.39794921875,-295.0,150.0,-148.0,101713.0,-3.2310001850128174,0,0
0.45382840000092983,0.377532958984375,-0.4554443359375,0.30316162109375,-0.747039794921875,0.18310546875,-0.30517578125,-0.06103515625,0.4488525390625,-0.79541015625,0.4013671875,-295.0,150.0,-148.0,101713.0,-3.2310001850128174,0,0
0.45402870001271367,0.377532958984375,-0.4554443359375,0.30316162109375,-0.747039794921875,0.0,-0.1220703125,-0.18310546875,0.452880859375,-0.794189453125,0.4013671875,-295.0,150.0,-148.0,101713.0,-3.2310001850128174,0,0
0.45409930001187604,0.377532958984375,-0.4554443359375,0.30316162109375,-0.747039794921875,0.1220703125,-0.18310546875,0.1220703125,0.4501953125,-0.7960205078125,0.3995361328125,-295.0,150.0,-148.0,101713.0,-3.2310001850128174,0,0
0.4541565000108676,0.377532958984375,-0.455474853515625,0.30316162109375,-0.747039794921875,0.0,0.06103515625,0.244140625,0.453857421875,-0.794921875,0.4002685546875,-295.0,149.0,-147.0,101713.0,-3.2310001850128174,0,0
0.4542109000030905,0.37744140625,-0.455413818359375,0.30322265625,-0.747100830078125,-0.1220703125,-0.30517578125,-0.1220703125,0.4527587890625,-0.7957763671875,0.4024658203125,-295.0,149.0,-147.0,101713.0,-3.2310001850128174,0,0
0.45454390000668354,0.37744140625,-0.455413818359375,0.30322265625,-0.747100830078125,-0.06103515625,-0.30517578125,-0.06103515625,0.449951171875,-0.7955322265625,0.4002685546875,-295.0,149.0,-147.0,101713.0,-3.2310001850128174,0,0
0.4545978000096511,0.37744140625,-0.455413818359375,0.30322265625,-0.747100830078125,-0.06103515625,-0.30517578125,-0.06103515625,0.449951171875,-0.7955322265625,0.4002685546875,-295.0,149.0,-147.0,101713.0,-3.2310001850128174,0,0
0.4546518000133801,0.37744140625,-0.455413818359375,0.30322265625,-0.7470703125,-0.30517578125,-0.42724609375,-0.18310546875,0.4482421875,-0.79443359375,0.3992919921875,-295.0,149.0,-147.0,101713.0,-3.2310001850128174,0,0
0.45470460000797175,0.37744140625,-0.455413818359375,0.30322265625,-0.7470703125,0.06103515625,-0.244140625,0.1220703125,0.4486083984375,-0.7939453125,0.399658203125,-295.0,149.0,-147.0,101713.0,-3.2310001850128174,0,0
0.45475630000873934,0.37744140625,-0.455413818359375,0.30322265625,-0.7470703125,0.1220703125,-0.30517578125,-0.244140625,0.452392578125,-0.7965087890625,0.4000244140625,-295.0,149.0,-147.0,101713.0,-3.2310001850128174,0,0
0.4548088000010466,0.37744140625,-0.455413818359375,0.30322265625,-0.7470703125,0.30517578125,-0.244140625,-0.06103515625,0.451171875,-0.79541015625,0.4017333984375,-295.0,149.0,-147.0,101713.0,-3.2310001850128174,0,0
0.5132813000091119,0.37744140625,-0.455413818359375,0.30322265625,-0.7470703125,-0.1220703125,-0.244140625,0.0,0.45068359375,-0.7974853515625,0.400390625,-295.0,149.0,-147.0,101713.0,-3.2310001850128174,0,0
0.5133467000123346,0.37744140625,-0.455413818359375,0.30322265625,-0.7470703125,0.18310546875,-0.30517578125,-0.1220703125,0.45166015625,-0.7967529296875,0.40283203125,-295.0,149.0,-147.0,101713.0,-3.2310001850128174,0,0
0.5134039000113262,0.37744140625,-0.455413818359375,0.30322265625,-0.7470703125,0.30517578125,-0.244140625,0.06103515625,0.45263671875,-0.7945556640625,0.400146484375,-295.0,149.0,-147.0,101713.0,-3.2300002574920654,0,0
0.5134572000097251,0.37744140625,-0.455413818359375,0.30322265625,-0.7470703125,-0.06103515625,-0.48828125,-0.06103515625,0.4501953125,-0.79638671875,0.400146484375,-295.0,149.0,-147.0,101713.0,-3.2300002574920654,0,0
0.5135124000080395,0.37744140625,-0.455413818359375,0.30322265625,-0.7470703125,-0.06103515625,-0.48828125,-0.06103515625,0.4501953125,-0.79638671875,0.400146484375,-295.0,149.0,-147.0,101713.0,-3.2300002574920654,0,0
0.5135658000071999,0.37744140625,-0.455413818359375,0.30322265625,-0.7470703125,0.0,-0.42724609375,0.0,0.452880859375,-0.7960205078125,0.4013671875,-295.0,149.0,-147.0,101713.0,-3.2300002574920654,0,0
0.513619600009406,0.37744140625,-0.455413818359375,0.30322265625,-0.7470703125,-0.06103515625,-0.244140625,0.06103515625,0.451904296875,-0.795166015625,0.4022216796875,-295.0,149.0,-147.0,101713.0,-3.2300002574920654,0,0
0.5158321000053547,0.37744140625,-0.455413818359375,0.30322265625,-0.7470703125,0.06103515625,-0.06103515625,-0.06103515625,0.4495849609375,-0.7969970703125,0.4005126953125,-295.0,149.0,-147.0,101713.0,-3.2300002574920654,0,0
0.515886799999862,0.37744140625,-0.455413818359375,0.30322265625,-0.7470703125,0.1220703125,0.0,-0.1220703125,0.450439453125,-0.795166015625,0.4010009765625,-295.0,149.0,-147.0,101713.0,-3.2300002574920654,0,0
0.5159395000082441,0.37744140625,-0.455413818359375,0.30322265625,-0.7470703125,0.30517578125,-0.1220703125,-0.18310546875,0.450439453125,-0.7940673828125,0.399169921875,-295.0,149.0,-147.0,101713.0,-3.2300002574920654,0,0
0.5159918000135804,0.37744140625,-0.455413818359375,0.30322265625,-0.747100830078125,0.244140625,-0.06103515625,-0.1220703125,0.451904296875,-0.794677734375,0.40234375,-295.0,149.0,-147.0,101713.0,-3.2300002574920654,0,0
0.5160445000074105,0.37744140625,-0.455413818359375,0.30322265625,-0.747100830078125,0.06103515625,-0.18310546875,-0.1220703125,0.453857421875,-0.7967529296875,0.401611328125,-295.0,149.0,-147.0,101713.0,-3.2300002574920654,0,0
0.5160966000112239,0.37744140625,-0.455413818359375,0.30322265625,-0.747100830078125,0.06103515625,-0.18310546875,-0.1220703125,0.453857421875,-0.7967529296875,0.401611328125,-296.0,149.0,-146.0,101713.0,-3.2300002574920654,0,0
0.5853710000083083,0.377349853515625,-0.45538330078125,0.30328369140625,-0.74713134765625,0.1220703125,-0.244140625,0.06103515625,0.45166015625,-0.7978515625,0.40185546875,-296.0,149.0,-146.0,101713.0,-3.2300002574920654,0,0
0.585438600013731,0.377349853515625,-0.45538330078125,0.30328369140625,-0.74713134765625,0.06103515625,-0.3662109375,0.18310546875,0.4520263671875,-0.798095703125,0.4005126953125,-296.0,149.0,-146.0,101713.0,-3.2300002574920654,0,0
0.5854975000111153,0.377349853515625,-0.45538330078125,0.30328369140625,-0.74713134765625,0.1220703125,-0.18310546875,-0.06103515625,0.4512939453125,-0.7967529296875,0.399658203125,-296.0,149.0,-146.0,101713.0,-3.2300002574920654,0,0
0.5855577000038465,0.377349853515625,-0.45538330078125,0.30328369140625,-0.74713134765625,0.0,-0.244140625,-0.18310546875,0.4493408203125,-0.7962646484375,0.39892578125,-296.0,149.0,-146.0,101713.0,-3.2300002574920654,0,0
0.5856157000089297,0.377349853515625,-0.45538330078125,0.30328369140625,-0.74713134765625,-0.06103515625,-0.3662109375,0.1220703125,0.4521484375,-0.7955322265625,0.3994140625,-296.0,149.0,-146.0,101713.0,-3.2300002574920654,0,0
0.5857813000038732,0.377349853515625,-0.45538330078125,0.30328369140625,-0.74713134765625,0.06103515625,-0.06103515625,-0.06103515625,0.4520263671875,-0.7977294921875,0.400146484375,-296.0,149.0,-146.0,101713.0,-3.2300002574920654,0,0
0.585837900012848,0.377349853515625,-0.45538330078125,0.30328369140625,-0.74713134765625,0.06103515625,-0.1220703125,-0.06103515625,0.4512939453125,-0.7965087890625,0.4005126953125,-296.0,149.0,-146.0,101713.0,-3.2300002574920654,0,0
0.5858917000005022,0.3773193359375,-0.45538330078125,0.30328369140625,-0.74713134765625,0.244140625,0.06103515625,0.0,0.4525146484375,-0.796142578125,0.402587890625,-296.0,149.0,-146.0,101713.0,-3.2290000915527344,0,0
0.5859447000111686,0.3773193359375,-0.45538330078125,0.30328369140625,-0.74713134765625,0.244140625,0.06103515625,0.0,0.4525146484375,-0.796142578125,0.402587890625,-296.0,149.0,-146.0,101713.0,-3.2290000915527344,0,0
0.58599900000263,0.377349853515625,-0.45538330078125,0.30328369140625,-0.74713134765625,-0.1220703125,-0.30517578125,-0.1220703125,0.4495849609375,-0.7930908203125,0.4013671875,-296.0,149.0,-146.0,101713.0,-3.2290000915527344,0,0
0.5860511000064434,0.377349853515625,-0.45538330078125,0.30328369140625,-0.74713134765625,0.06103515625,-0.244140625,-0.244140625,0.4500732421875,-0.79443359375,0.39892578125,-296.0,149.0,-146.0,101713.0,-3.2290000915527344,0,0
0.6447717000119155,0.3773193359375,-0.45538330078125,0.30328369140625,-0.74713134765625,-0.18310546875,-0.244140625,0.0,0.4530029296875,-0.79736328125,0.3994140625,-296.0,149.0,-146.0,101713.0,-3.2290000915527344,0,0
0.6448500000115018,0.3773193359375,-0.45538330078125,0.30328369140625,-0.74713134765625,-0.244140625,0.06103515625,-0.1220703125,0.4508056640625,-0.7969970703125,0.4002685546875,-296.0,149.0,-146.0,101713.0,-3.2290000915527344,0,0
0.6449488000071142,0.3773193359375,-0.45538330078125,0.30328369140625,-0.74713134765625,-0.06103515625,-0.1220703125,-0.1220703125,0.4525146484375,-0.7958984375,0.4014892578125,-296.0,149.0,-146.0,101713.0,-3.2290000915527344,0,0
0.6450174000055995,0.3773193359375,-0.45538330078125,0.30328369140625,-0.74713134765625,-0.06103515625,-0.1220703125,-0.06103515625,0.4520263671875,-0.7950439453125,0.4005126953125,-296.0,149.0,-146.0,101713.0,-3.2290000915527344,0,0
0.6450765000045067,0.3773193359375,-0.45538330078125,0.30328369140625,-0.74713134765625,0.1220703125,-0.244140625,-0.06103515625,0.451416015625,-0.79541015625,0.4002685546875,-296.0,150.0,-147.0,101713.0,-3.2290000915527344,0,0
0.6457627000054345,0.3773193359375,-0.45538330078125,0.30328369140625,-0.74713134765625,0.1220703125,-0.244140625,-0.06103515625,0.451416015625,-0.79541015625,0.4002685546875,-296.0,150.0,-147.0,101713.0,-3.2290000915527344,0,0
0.6458304000116186,0.3773193359375,-0.45538330078125,0.30328369140625,-0.74713134765625,0.0,-0.18310546875,0.1220703125,0.4510498046875,-0.796142578125,0.4012451171875,-296.0,150.0,-147.0,101713.0,-3.2290000915527344,0,0
0.6458917000127258,0.3773193359375,-0.45538330078125,0.30328369140625,-0.74713134765625,0.1220703125,-0.18310546875,-0.1220703125,0.4493408203125,-0.7962646484375,0.4019775390625,-296.0,150.0,-147.0,101713.0,-3.2290000915527344,0,0
0.645956100008334,0.3773193359375,-0.45538330078125,0.30328369140625,-0.74713134765625,0.244140625,-0.18310546875,0.1220703125,0.4515380859375,-0.7957763671875,0.402587890625,-296.0,150.0,-147.0,101713.0,-3.2290000915527344,0,0
0.6460173000086797,0.3773193359375,-0.45538330078125,0.30328369140625,-0.74713134765625,0.06103515625,-0.244140625,0.0,0.4508056640625,-0.7952880859375,0.4005126953125,-296.0,150.0,-147.0,101713.0,-3.2290000915527344,0,0
0.646076200006064,0.3773193359375,-0.45538330078125,0.30328369140625,-0.74713134765625,0.48828125,-0.1220703125,-0.06103515625,0.4512939453125,-0.7955322265625,0.401123046875,-296.0,150.0,-147.0,101713.0,-3.2290000915527344,0,0
0.7050163000094471,0.3773193359375,-0.45538330078125,0.30328369140625,-0.74713134765625,0.1220703125,0.06103515625,0.18310546875,0.452880859375,-0.79541015625,0.400390625,-296.0,150.0,-147.0,101713.0,-3.2290000915527344,0,0
0.7050837999995565,0.3773193359375,-0.45538330078125,0.30328369140625,-0.74713134765625,-0.1220703125,-0.30517578125,-0.3662109375,0.4498291015625,-0.795166015625,0.4019775390625,-296.0,150.0,-147.0,101713.0,-3.2290000915527344,0,0
0.7051441000076011,0.3773193359375,-0.45538330078125,0.30328369140625,-0.74713134765625,0.0,-0.244140625,-0.06103515625,0.4503173828125,-0.7957763671875,0.4014892578125,-296.0,150.0,-147.0,101713.0,-3.2290000915527344,0,0
0.7052031000057468,0.3773193359375,-0.45538330078125,0.30328369140625,-0.74713134765625,0.0,-0.244140625,-0.06103515625,0.4503173828125,-0.7957763671875,0.4014892578125,-296.0,150.0,-147.0,101713.0,-3.2290000915527344,0,0
0.7052606000070227,0.3773193359375,-0.45538330078125,0.30328369140625,-0.74713134765625,0.30517578125,-0.244140625,0.0,0.453125,-0.794677734375,0.40185546875,-296.0,150.0,-147.0,101713.0,-3.2300002574920654,0,0
0.7053207000135444,0.3773193359375,-0.45538330078125,0.30328369140625,-0.74713134765625,0.06103515625,-0.244140625,-0.244140625,0.4505615234375,-0.7952880859375,0.3992919921875,-296.0,150.0,-147.0,101713.0,-3.2300002574920654,0,0
0.7055914000084158,0.3773193359375,-0.45538330078125,0.30328369140625,-0.74713134765625,-0.1220703125,-0.18310546875,0.06103515625,0.4522705078125,-0.7955322265625,0.401123046875,-296.0,150.0,-147.0,101713.0,-3.2300002574920654,0,0
0.7062772000062978,0.3773193359375,-0.45538330078125,0.303253173828125,-0.74713134765625,0.244140625,-0.1220703125,0.06103515625,0.451416015625,-0.7947998046875,0.4005126953125,-296.0,150.0,-147.0,101713.0,-3.2300002574920654,0,0
0.7063428000110434,0.3773193359375,-0.45538330078125,0.30328369140625,-0.74713134765625,0.0,-0.06103515625,0.0,0.450927734375,-0.79833984375,0.400146484375,-296.0,150.0,-147.0,101713.0,-3.2300002574920654,0,0
0.7064078000112204,0.3773193359375,-0.45538330078125,0.303253173828125,-0.74713134765625,0.30517578125,-0.1220703125,0.0,0.4512939453125,-0.7950439453125,0.401123046875,-296.0,150.0,-147.0,101713.0,-3.2300002574920654,0,0
0.7064679000031902,0.3773193359375,-0.45538330078125,0.303253173828125,-0.74713134765625,0.18310546875,-0.06103515625,-0.06103515625,0.4521484375,-0.796875,0.4005126953125,-296.0,150.0,-147.0,101713.0,-3.2300002574920654,0,0
0.7067042000126094,0.3773193359375,-0.45538330078125,0.303253173828125,-0.74713134765625,0.0,-0.18310546875,0.06103515625,0.4505615234375,-0.7962646484375,0.40185546875,-296.0,150.0,-147.0,101713.0,-3.2300002574920654,0,0
0.7067892000050051,0.3773193359375,-0.45538330078125,0.303253173828125,-0.74713134765625,0.06103515625,-0.18310546875,0.18310546875,0.451416015625,-0.797119140625,0.4010009765625,-296.0,150.0,-147.0,101713.0,-3.2300002574920654,0,0
0.7718393000104697,0.3773193359375,-0.45538330078125,0.30328369140625,-0.74713134765625,0.06103515625,-0.244140625,0.0,0.449951171875,-0.7962646484375,0.4010009765625,-297.0,152.0,-146.0,101713.0,-3.2300002574920654,0,0
0.7719163000001572,0.3773193359375,-0.45538330078125,0.30328369140625,-0.74713134765625,-0.30517578125,-0.244140625,-0.1220703125,0.449951171875,-0.7967529296875,0.400634765625,-297.0,152.0,-146.0,101713.0,-3.2300002574920654,0,0
0.7719773000135319,0.3773193359375,-0.45538330078125,0.30328369140625,-0.74713134765625,-0.06103515625,-0.244140625,0.0,0.4505615234375,-0.795654296875,0.3990478515625,-297.0,152.0,-146.0,101713.0,-3.2300002574920654,0,0
0.772033500004909,0.3773193359375,-0.45538330078125,0.30328369140625,-0.74713134765625,0.06103515625,-0.06103515625,0.0,0.4539794921875,-0.79638671875,0.4013671875,-297.0,152.0,-146.0,101713.0,-3.2300002574920654,0,0
0.7720883000001777,0.3773193359375,-0.45538330078125,0.30328369140625,-0.74713134765625,0.18310546875,-0.3662109375,-0.244140625,0.451416015625,-0.797119140625,0.4013671875,-297.0,152.0,-146.0,101713.0,-3.2300002574920654,0,0
0.7722097000078065,0.3773193359375,-0.45538330078125,0.30328369140625,-0.74713134765625,-0.1220703125,0.1220703125,-0.06103515625,0.4508056640625,-0.7958984375,0.400390625,-297.0,152.0,-146.0,101713.0,-3.2300002574920654,0,0
0.7722694000112824,0.3773193359375,-0.45538330078125,0.30328369140625,-0.74713134765625,-0.06103515625,-0.18310546875,0.0,0.4522705078125,-0.79443359375,0.401123046875,-297.0,152.0,-146.0,101713.0,-3.2300002574920654,0,0
0.7723253000003751,0.3773193359375,-0.45538330078125,0.30328369140625,-0.74713134765625,-0.06103515625,-0.18310546875,0.0,0.4522705078125,-0.79443359375,0.401123046875,-297.0,152.0,-146.0,101713.0,-3.2300002574920654,0,0
0.7723780000087572,0.3773193359375,-0.45538330078125,0.30328369140625,-0.74713134765625,0.1220703125,-0.18310546875,-0.244140625,0.4503173828125,-0.7939453125,0.40087890625,-297.0,152.0,-146.0,101713.0,-3.2300002574920654,0,0
0.7724297000095248,0.3773193359375,-0.45538330078125,0.30328369140625,-0.74713134765625,0.0,-0.1220703125,0.06103515625,0.4532470703125,-0.7969970703125,0.4014892578125,-297.0,152.0,-146.0,101713.0,-3.2300002574920654,0,0
0.7724818999995477,0.3773193359375,-0.45538330078125,0.30328369140625,-0.74713134765625,0.244140625,-0.1220703125,0.0,0.449951171875,-0.7958984375,0.4007568359375,-297.0,152.0,-146.0,101713.0,-3.2300002574920654,0,0
0.8316686000034679,0.3773193359375,-0.45538330078125,0.30328369140625,-0.74713134765625,0.18310546875,-0.244140625,0.0,0.44970703125,-0.79443359375,0.400390625,-297.0,152.0,-146.0,101713.0,-3.2300002574920654,0,0
0.8317290000122739,0.3773193359375,-0.45538330078125,0.30328369140625,-0.74713134765625,0.06103515625,-0.3662109375,0.18310546875,0.4505615234375,-0.796875,0.3992919921875,-297.0,152.0,-146.0,101713.0,-3.2300002574920654,0,0
0.8317846999998437,0.3773193359375,-0.45538330078125,0.30328369140625,-0.74713134765625,0.0,-0.30517578125,0.1220703125,0.450439453125,-0.7945556640625,0.4002685546875,-297.0,152.0,-146.0,101713.0,-3.2300002574920654,0,0
0.8318386000028113,0.3773193359375,-0.45538330078125,0.30328369140625,-0.74713134765625,-0.18310546875,-0.3662109375,0.06103515625,0.4503173828125,-0.796630859375,0.40087890625,-297.0,152.0,-146.0,101713.0,-3.2300002574920654,0,0
0.8318934000126319,0.3773193359375,-0.45538330078125,0.30328369140625,-0.74713134765625,-0.18310546875,-0.3662109375,0.06103515625,0.4503173828125,-0.796630859375,0.40087890625,-297.0,152.0,-146.0,101713.0,-3.2300002574920654,0,0
0.8328835000138497,0.3773193359375,-0.45538330078125,0.30328369140625,-0.74713134765625,0.0,-0.18310546875,0.0,0.4498291015625,-0.7952880859375,0.40185546875,-297.0,152.0,-146.0,101713.0,-3.2300002574920654,0,0
0.8329467000003206,0.3773193359375,-0.45538330078125,0.30328369140625,-0.74713134765625,0.18310546875,-0.06103515625,-0.06103515625,0.449951171875,-0.7960205078125,0.4000244140625,-297.0,152.0,-146.0,101713.0,-3.2300002574920654,0,0
0.8330002000002423,0.37762451171875,-0.45550537109375,0.3031005859375,-0.746978759765625,-0.06103515625,-0.1220703125,-0.18310546875,0.4481201171875,-0.792724609375,0.40087890625,-298.0,151.0,-145.0,101713.0,-3.2300002574920654,0,0
0.8330538000009255,0.377655029296875,-0.45550537109375,0.3031005859375,-0.746978759765625,0.18310546875,0.0,-0.1220703125,0.4488525390625,-0.79638671875,0.400146484375,-298.0,151.0,-145.0,101713.0,-3.2300002574920654,0,0
0.8331082000077004,0.37762451171875,-0.45550537109375,0.3031005859375,-0.746978759765625,-0.1220703125,-0.18310546875,0.0,0.4534912109375,-0.796142578125,0.39892578125,-298.0,151.0,-145.0,101713.0,-3.2300002574920654,0,0
0.8331624000129523,0.37762451171875,-0.45550537109375,0.3031005859375,-0.746978759765625,0.0,-0.1220703125,-0.1220703125,0.450927734375,-0.796142578125,0.39892578125,-298.0,151.0,-145.0,101713.0,-3.2300002574920654,0,0
0.9000263000052655,0.37762451171875,-0.45550537109375,0.3031005859375,-0.746978759765625,0.1220703125,-0.30517578125,0.0,0.4520263671875,-0.7978515625,0.4013671875,-298.0,151.0,-145.0,101713.0,-3.2300002574920654,0,0
0.9000942000129726,0.37762451171875,-0.45550537109375,0.3031005859375,-0.746978759765625,0.1220703125,-0.30517578125,-0.18310546875,0.4515380859375,-0.7945556640625,0.4019775390625,-298.0,151.0,-145.0,101713.0,-3.2300002574920654,0,0
0.9001525000057882,0.37762451171875,-0.45550537109375,0.3031005859375,-0.746978759765625,0.1220703125,-0.30517578125,-0.18310546875,0.4515380859375,-0.7945556640625,0.4019775390625,-298.0,151.0,-145.0,101713.0,-3.2300002574920654,0,0
0.9002093000017339,0.377655029296875,-0.45550537109375,0.303131103515625,-0.746978759765625,0.1220703125,-0.06103515625,0.1220703125,0.4508056640625,-0.796875,0.401611328125,-298.0,151.0,-145.0,101713.0,-3.2300002574920654,0,0
0.9002661000122316,0.377655029296875,-0.45550537109375,0.303131103515625,-0.746978759765625,0.1220703125,-0.42724609375,0.0,0.4493408203125,-0.796142578125,0.4010009765625,-298.0,151.0,-145.0,101713.0,-3.2300002574920654,0,0
0.9003209000075003,0.377655029296875,-0.45550537109375,0.303131103515625,-0.746978759765625,0.18310546875,-0.30517578125,0.0,0.4505615234375,-0.79541015625,0.399658203125,-298.0,151.0,-145.0,101713.0,-3.2300002574920654,0,0
0.9003769000119064,0.377655029296875,-0.45550537109375,0.303131103515625,-0.746978759765625,0.30517578125,-0.3662109375,-0.18310546875,0.4512939453125,-0.795654296875,0.4010009765625,-298.0,151.0,-145.0,101713.0,-3.2320001125335693,0,0
0.9019598000013502,0.377655029296875,-0.455474853515625,0.303131103515625,-0.746978759765625,-0.3662109375,0.0,0.0,0.4501953125,-0.7945556640625,0.4022216796875,-298.0,151.0,-145.0,101713.0,-3.2320001125335693,0,0
0.9020181000087177,0.377655029296875,-0.455474853515625,0.303131103515625,-0.746978759765625,0.06103515625,-0.18310546875,-0.1220703125,0.4510498046875,-0.79541015625,0.4013671875,-298.0,151.0,-145.0,101713.0,-3.2320001125335693,0,0
0.9020716000086395,0.377655029296875,-0.455474853515625,0.3031005859375,-0.746978759765625,-0.06103515625,-0.1220703125,0.0,0.4521484375,-0.79541015625,0.401611328125,-298.0,151.0,-145.0,101713.0,-3.2320001125335693,0,0
0.9021261000016239,0.377655029296875,-0.455474853515625,0.3031005859375,-0.746978759765625,-0.18310546875,-0.18310546875,0.06103515625,0.4510498046875,-0.7958984375,0.4024658203125,-298.0,151.0,-145.0,101713.0,-3.2320001125335693,0,0
0.9021816000022227,0.377655029296875,-0.455474853515625,0.3031005859375,-0.746978759765625,0.18310546875,0.1220703125,-0.06103515625,0.4510498046875,-0.7974853515625,0.400146484375,-298.0,151.0,-145.0,101713.0,-3.2320001125335693,0,0
0.9022894000081578,0.377655029296875,-0.455474853515625,0.3031005859375,-0.746978759765625,0.18310546875,0.1220703125,-0.06103515625,0.4510498046875,-0.7974853515625,0.400146484375,-298.0,151.0,-145.0,101713.0,-3.2320001125335693,0,0
0.963875100002042,0.377655029296875,-0.455474853515625,0.3031005859375,-0.746978759765625,0.6103515625,-0.18310546875,-0.1220703125,0.4510498046875,-0.7958984375,0.4017333984375,-298.0,151.0,-145.0,101713.0,-3.2320001125335693,0,0
0.9639387000061106,0.377655029296875,-0.455474853515625,0.3031005859375,-0.746978759765625,-0.06103515625,-0.1220703125,0.0,0.4512939453125,-0.795654296875,0.4000244140625,-298.0,152.0,-144.0,101713.0,-3.2320001125335693,0,0
0.9639989000133937,0.3780517578125,-0.455657958984375,0.3028564453125,-0.74676513671875,0.1220703125,-0.30517578125,-0.18310546875,0.4525146484375,-0.796630859375,0.400146484375,-298.0,152.0,-144.0,101713.0,-3.2320001125335693,0,0
0.9641178000019863,0.3780517578125,-0.455657958984375,0.3028564453125,-0.74676513671875,0.06103515625,-0.244140625,0.06103515625,0.4534912109375,-0.7940673828125,0.4014892578125,-298.0,152.0,-144.0,101713.0,-3.2320001125335693,0,0
0.9641793000046164,0.3780517578125,-0.455657958984375,0.3028564453125,-0.74676513671875,0.1220703125,0.0,-0.06103515625,0.449951171875,-0.797119140625,0.4000244140625,-298.0,152.0,-144.0,101713.0,-3.2320001125335693,0,0
0.9643533000053139,0.3780517578125,-0.455657958984375,0.3028564453125,-0.74676513671875,-0.06103515625,-0.06103515625,-0.06103515625,0.4490966796875,-0.7977294921875,0.402099609375,-298.0,152.0,-144.0,101713.0,-3.2320001125335693,0,0
0.9644117000134429,0.3780517578125,-0.455657958984375,0.3028564453125,-0.74676513671875,-0.06103515625,-0.06103515625,-0.06103515625,0.4490966796875,-0.7977294921875,0.402099609375,-298.0,152.0,-144.0,101713.0,-3.2320001125335693,0,0
0.9644660000049043,0.3780517578125,-0.455657958984375,0.3028564453125,-0.74676513671875,0.06103515625,-0.3662109375,-0.244140625,0.45166015625,-0.796875,0.400146484375,-298.0,152.0,-144.0,101713.0,-3.2320001125335693,0,0
0.964518600012525,0.3780517578125,-0.455657958984375,0.3028564453125,-0.74676513671875,-0.06103515625,-0.30517578125,-0.06103515625,0.451904296875,-0.7962646484375,0.4007568359375,-298.0,152.0,-144.0,101713.0,-3.2320001125335693,0,0
0.9645710000040708,0.3780517578125,-0.455657958984375,0.3028564453125,-0.74676513671875,-0.18310546875,-0.18310546875,-0.18310546875,0.4493408203125,-0.7943115234375,0.40087890625,-298.0,152.0,-144.0,101713.0,-3.2320001125335693,0,0
0.9646243000024697,0.3780517578125,-0.455657958984375,0.3028564453125,-0.74676513671875,0.1220703125,-0.30517578125,-0.06103515625,0.4508056640625,-0.7962646484375,0.4017333984375,-298.0,152.0,-144.0,101713.0,-3.2330000400543213,0,0
1.0232812000031117,0.3780517578125,-0.455657958984375,0.3028564453125,-0.746795654296875,0.3662109375,-0.1220703125,0.0,0.450927734375,-0.7943115234375,0.40087890625,-298.0,152.0,-144.0,101713.0,-3.2330000400543213,0,0
1.023350900009973,0.3780517578125,-0.455657958984375,0.3028564453125,-0.746795654296875,0.06103515625,-0.3662109375,-0.06103515625,0.449462890625,-0.7957763671875,0.40087890625,-298.0,152.0,-144.0,101713.0,-3.2330000400543213,0,0
1.023412599999574,0.3780517578125,-0.455657958984375,0.3028564453125,-0.746795654296875,0.30517578125,-0.3662109375,0.0,0.4501953125,-0.794189453125,0.4007568359375,-298.0,152.0,-144.0,101713.0,-3.2330000400543213,0,0
1.0234674000093946,0.3780517578125,-0.455657958984375,0.3028564453125,-0.746795654296875,0.30517578125,-0.3662109375,0.0,0.4501953125,-0.794189453125,0.4007568359375,-298.0,152.0,-144.0,101713.0,-3.2330000400543213,0,0
1.0235218000016175,0.3780517578125,-0.455657958984375,0.3028564453125,-0.746795654296875,0.06103515625,-0.244140625,-0.1220703125,0.4501953125,-0.7979736328125,0.4013671875,-298.0,152.0,-144.0,101713.0,-3.2330000400543213,0,0
1.023628800001461,0.3780517578125,-0.455657958984375,0.3028564453125,-0.746795654296875,0.0,-0.18310546875,-0.06103515625,0.4501953125,-0.7943115234375,0.400146484375,-298.0,152.0,-144.0,101713.0,-3.2330000400543213,0,0
1.0236854000104358,0.3780517578125,-0.455657958984375,0.3028564453125,-0.746795654296875,-0.06103515625,-0.18310546875,0.0,0.44921875,-0.7958984375,0.401611328125,-298.0,152.0,-144.0,101713.0,-3.2330000400543213,0,0
1.0237409000110347,0.3780517578125,-0.455657958984375,0.3028564453125,-0.746795654296875,0.3662109375,-0.18310546875,0.06103515625,0.452392578125,-0.7957763671875,0.400390625,-298.0,152.0,-144.0,101713.0,-3.2330000400543213,0,0
1.023795600005542,0.3780517578125,-0.455657958984375,0.3028564453125,-0.746795654296875,-0.06103515625,-0.18310546875,0.0,0.4510498046875,-0.79638671875,0.40185546875,-298.0,152.0,-144.0,101713.0,-3.2330000400543213,0,0
1.0238495000085095,0.37835693359375,-0.455780029296875,0.30267333984375,-0.74664306640625,-0.42724609375,-0.42724609375,0.0,0.45166015625,-0.794677734375,0.4017333984375,-300.0,152.0,-143.0,101713.0,-3.2330000400543213,0,0
1.023903400011477,0.37835693359375,-0.45574951171875,0.302642822265625,-0.74664306640625,0.06103515625,0.1220703125,-0.1220703125,0.451171875,-0.793701171875,0.4027099609375,-300.0,152.0,-143.0,101713.0,-3.2330000400543213,0,0
1.0239578000037,0.37835693359375,-0.45574951171875,0.302642822265625,-0.74664306640625,0.0,-0.244140625,-0.18310546875,0.451416015625,-0.7962646484375,0.4012451171875,-300.0,152.0,-143.0,101713.0,-3.2330000400543213,0,0
1.0931496000121115,0.37835693359375,-0.45574951171875,0.302642822265625,-0.74664306640625,0.0,-0.244140625,-0.18310546875,0.451416015625,-0.7962646484375,0.4012451171875,-300.0,152.0,-143.0,101713.0,-3.2330000400543213,0,0
1.093219800008228,0.37835693359375,-0.45574951171875,0.302642822265625,-0.74664306640625,0.3662109375,0.0,0.06103515625,0.4525146484375,-0.79638671875,0.4017333984375,-300.0,152.0,-143.0,101713.0,-3.2330000400543213,0,0
1.0932802000024822,0.37835693359375,-0.45574951171875,0.302642822265625,-0.74664306640625,0.1220703125,-0.30517578125,-0.18310546875,0.45068359375,-0.79638671875,0.3997802734375,-300.0,152.0,-143.0,101713.0,-3.2330000400543213,0,0
1.0933394000021508,0.37835693359375,-0.45574951171875,0.302642822265625,-0.74664306640625,-0.06103515625,-0.1220703125,-0.06103515625,0.451416015625,-0.7958984375,0.3995361328125,-300.0,152.0,-143.0,101713.0,-3.2330000400543213,0,0
1.0933987000025809,0.37835693359375,-0.45574951171875,0.302642822265625,-0.74664306640625,0.1220703125,-0.244140625,-0.244140625,0.4512939453125,-0.7960205078125,0.4012451171875,-300.0,152.0,-143.0,101713.0,-3.2330000400543213,0,0
1.0934566000069026,0.37835693359375,-0.45574951171875,0.302642822265625,-0.74664306640625,0.1220703125,-0.06103515625,0.18310546875,0.451416015625,-0.7945556640625,0.399658203125,-300.0,152.0,-143.0,101713.0,-3.2330000400543213,0,0
1.0942198000120698,0.37835693359375,-0.45574951171875,0.302642822265625,-0.74664306640625,0.18310546875,-0.1220703125,-0.18310546875,0.451171875,-0.795166015625,0.4014892578125,-300.0,152.0,-143.0,101713.0,-3.2330000400543213,0,0
1.0942881000082707,0.37835693359375,-0.45574951171875,0.302642822265625,-0.74664306640625,0.18310546875,-0.06103515625,0.0,0.4503173828125,-0.7974853515625,0.4013671875,-300.0,152.0,-143.0,101713.0,-3.2330000400543213,0,0
1.0943488000048092,0.37835693359375,-0.45574951171875,0.302642822265625,-0.74664306640625,-0.1220703125,-0.244140625,-0.18310546875,0.450927734375,-0.795166015625,0.4007568359375,-300.0,152.0,-143.0,101713.0,-3.2330000400543213,0,0
1.0944071000121767,0.37835693359375,-0.45574951171875,0.302642822265625,-0.74664306640625,-0.1220703125,-0.244140625,-0.18310546875,0.450927734375,-0.795166015625,0.4007568359375,-300.0,152.0,-143.0,101713.0,-3.2330000400543213,0,0
1.0944662000110839,0.37835693359375,-0.45574951171875,0.302642822265625,-0.74664306640625,0.06103515625,-0.1220703125,0.244140625,0.451416015625,-0.79736328125,0.4007568359375,-300.0,152.0,-143.0,101713.0,-3.2330000400543213,0,0
1.0945271000091452,0.37835693359375,-0.45574951171875,0.302642822265625,-0.74664306640625,-0.1220703125,-0.244140625,-0.06103515625,0.45166015625,-0.79736328125,0.4005126953125,-300.0,152.0,-143.0,101713.0,-3.2330000400543213,0,0
1.1560080000053858,0.37835693359375,-0.455780029296875,0.302642822265625,-0.74664306640625,-0.30517578125,-0.1220703125,0.18310546875,0.45361328125,-0.7974853515625,0.400634765625,-300.0,152.0,-143.0,101713.0,-3.2330000400543213,0,0
1.1560798999998951,0.37835693359375,-0.455780029296875,0.302642822265625,-0.74664306640625,0.244140625,-0.244140625,0.06103515625,0.4501953125,-0.7958984375,0.401123046875,-300.0,152.0,-143.0,101713.0,-3.2330000400543213,0,0
1.1561378000042168,0.37835693359375,-0.455780029296875,0.302642822265625,-0.74664306640625,0.244140625,-0.244140625,0.06103515625,0.4501953125,-0.7958984375,0.401123046875,-300.0,152.0,-143.0,101713.0,-3.2310001850128174,0,0
1.1561942000116687,0.37835693359375,-0.455780029296875,0.302642822265625,-0.74664306640625,-0.1220703125,0.0,0.1220703125,0.452392578125,-0.798583984375,0.4000244140625,-300.0,152.0,-142.0,101713.0,-3.2310001850128174,0,0
1.1562499000137905,0.378631591796875,-0.455902099609375,0.302459716796875,-0.746490478515625,0.1220703125,-0.1220703125,-0.06103515625,0.45068359375,-0.7977294921875,0.4017333984375,-300.0,152.0,-142.0,101713.0,-3.2310001850128174,0,0
1.1584270000021206,0.378631591796875,-0.455902099609375,0.302459716796875,-0.746490478515625,0.1220703125,-0.1220703125,-0.06103515625,0.45068359375,-0.7977294921875,0.4017333984375,-300.0,152.0,-142.0,101713.0,-3.2310001850128174,0,0
1.1584947000083048,0.378631591796875,-0.455902099609375,0.302459716796875,-0.746490478515625,0.0,-0.48828125,-0.244140625,0.452880859375,-0.797119140625,0.4017333984375,-300.0,152.0,-142.0,101713.0,-3.2310001850128174,0,0
1.1585542000102578,0.378662109375,-0.45587158203125,0.302459716796875,-0.746490478515625,0.18310546875,-0.3662109375,-0.1220703125,0.4498291015625,-0.794189453125,0.4014892578125,-300.0,152.0,-142.0,101713.0,-3.2310001850128174,0,0
1.1586156000121264,0.378662109375,-0.45587158203125,0.302459716796875,-0.746490478515625,-0.30517578125,-0.42724609375,-0.244140625,0.4512939453125,-0.7965087890625,0.4041748046875,-300.0,152.0,-142.0,101713.0,-3.2310001850128174,0,0
1.158672600009595,0.378631591796875,-0.45587158203125,0.302459716796875,-0.746490478515625,0.06103515625,-0.1220703125,-0.1220703125,0.4512939453125,-0.7958984375,0.401611328125,-300.0,152.0,-142.0,101713.0,-3.2310001850128174,0,0
1.1587295000063023,0.378662109375,-0.45587158203125,0.302459716796875,-0.746490478515625,0.244140625,-0.18310546875,0.244140625,0.4522705078125,-0.79541015625,0.401611328125,-300.0,152.0,-142.0,101713.0,-3.2310001850128174,0,0
1.2163575000013225,0.378662109375,-0.45587158203125,0.302459716796875,-0.74652099609375,-0.06103515625,-0.30517578125,0.06103515625,0.45263671875,-0.7965087890625,0.40283203125,-300.0,152.0,-142.0,101713.0,-3.2310001850128174,0,0
1.2164260999998078,0.378662109375,-0.45587158203125,0.302459716796875,-0.74652099609375,-0.06103515625,-0.30517578125,0.06103515625,0.45263671875,-0.7965087890625,0.40283203125,-300.0,152.0,-142.0,101713.0,-3.2310001850128174,0,0
1.216487400000915,0.378631591796875,-0.45587158203125,0.302459716796875,-0.746490478515625,0.06103515625,-0.1220703125,0.06103515625,0.451416015625,-0.7967529296875,0.4014892578125,-300.0,152.0,-142.0,101713.0,-3.2310001850128174,0,0
1.2165451000037137,0.378662109375,-0.45587158203125,0.302459716796875,-0.74652099609375,0.1220703125,-0.244140625,-0.18310546875,0.4508056640625,-0.795654296875,0.4012451171875,-300.0,152.0,-142.0,101713.0,-3.2310001850128174,0,0
1.2166177000035532,0.378631591796875,-0.45587158203125,0.302459716796875,-0.746490478515625,-0.30517578125,-0.30517578125,-0.1220703125,0.4520263671875,-0.7978515625,0.4005126953125,-300.0,152.0,-142.0,101713.0,-3.2310001850128174,0,0
1.216893800010439,0.378662109375,-0.45587158203125,0.302459716796875,-0.74652099609375,-0.06103515625,-0.1220703125,0.0,0.4510498046875,-0.7957763671875,0.402099609375,-300.0,152.0,-142.0,101713.0,-3.2310001850128174,0,0
1.2169638000050327,0.378662109375,-0.45587158203125,0.302459716796875,-0.746490478515625,0.06103515625,-0.244140625,-0.244140625,0.449462890625,-0.796875,0.4013671875,-300.0,152.0,-142.0,101713.0,-3.2310001850128174,0,0
1.217023800010793,0.378662109375,-0.45587158203125,0.302459716796875,-0.74652099609375,0.1220703125,-0.1220703125,-0.06103515625,0.4537353515625,-0.79638671875,0.403564453125,-300.0,152.0,-142.0,101713.0,-3.2310001850128174,0,0
1.2170815999998013,0.378662109375,-0.45587158203125,0.302459716796875,-0.74652099609375,-0.1220703125,-0.1220703125,-0.1220703125,0.449951171875,-0.7943115234375,0.4010009765625,-300.0,152.0,-142.0,101713.0,-3.2310001850128174,0,0
1.2171391000010772,0.378662109375,-0.45587158203125,0.30242919921875,-0.74652099609375,-0.1220703125,-0.1220703125,-0.1220703125,0.449951171875,-0.7943115234375,0.4010009765625,-300.0,152.0,-142.0,101713.0,-3.2320001125335693,0,0
1.2171976000099676,0.378662109375,-0.45587158203125,0.30242919921875,-0.74652099609375,0.30517578125,-0.244140625,0.1220703125,0.45166015625,-0.7974853515625,0.4005126953125,-301.0,152.0,-142.0,101713.0,-3.2320001125335693,0,0
1.2172535999998217,0.378662109375,-0.45587158203125,0.30242919921875,-0.74652099609375,0.30517578125,-0.244140625,0.1220703125,0.45166015625,-0.7974853515625,0.4005126953125,-301.0,152.0,-142.0,101713.0,-3.2320001125335693,0,0
1.2820561000116868,0.378936767578125,-0.45599365234375,0.302276611328125,-0.746368408203125,0.1220703125,0.0,-0.06103515625,0.448974609375,-0.79541015625,0.400146484375,-301.0,152.0,-142.0,101713.0,-3.2320001125335693,0,0
1.282126900012372,0.378936767578125,-0.45599365234375,0.30224609375,-0.746368408203125,0.1220703125,-0.244140625,0.1220703125,0.451416015625,-0.795166015625,0.40185546875,-301.0,152.0,-142.0,101713.0,-3.2320001125335693,0,0
1.2821917000110261,0.378936767578125,-0.45599365234375,0.30224609375,-0.746368408203125,0.1220703125,-0.1220703125,-0.06103515625,0.4522705078125,-0.7943115234375,0.4012451171875,-301.0,152.0,-142.0,101713.0,-3.2320001125335693,0,0
1.2823105999996187,0.378936767578125,-0.45599365234375,0.30224609375,-0.746368408203125,0.3662109375,-0.244140625,0.1220703125,0.450927734375,-0.796142578125,0.4010009765625,-301.0,152.0,-142.0,101713.0,-3.2320001125335693,0,0
1.2823960000096122,0.378936767578125,-0.45599365234375,0.30224609375,-0.746368408203125,0.06103515625,-0.18310546875,0.06103515625,0.4505615234375,-0.7960205078125,0.4031982421875,-301.0,152.0,-142.0,101713.0,-3.2320001125335693,0,0
1.2824627000081819,0.37896728515625,-0.455963134765625,0.30224609375,-0.746368408203125,0.06103515625,-0.1220703125,-0.18310546875,0.44921875,-0.794677734375,0.4013671875,-301.0,152.0,-142.0,101713.0,-3.2320001125335693,0,0
1.2825437000137754,0.37896728515625,-0.45599365234375,0.30224609375,-0.746368408203125,0.06103515625,-0.244140625,-0.1220703125,0.452392578125,-0.7972412109375,0.4007568359375,-301.0,152.0,-142.0,101713.0,-3.2320001125335693,0,0
1.2826081000093836,0.37896728515625,-0.455963134765625,0.30224609375,-0.746368408203125,-0.06103515625,-0.18310546875,-0.244140625,0.4505615234375,-0.7957763671875,0.40234375,-301.0,152.0,-142.0,101713.0,-3.2320001125335693,0,0
1.2826693000097293,0.37896728515625,-0.455963134765625,0.30224609375,-0.746368408203125,-0.06103515625,-0.18310546875,-0.244140625,0.4505615234375,-0.7957763671875,0.40234375,-301.0,152.0,-142.0,101713.0,-3.2320001125335693,0,0
1.282726500008721,0.37896728515625,-0.455963134765625,0.30224609375,-0.746368408203125,0.0,-0.30517578125,-0.06103515625,0.45166015625,-0.795654296875,0.402099609375,-301.0,152.0,-142.0,101713.0,-3.2320001125335693,0,0
1.2827837000077125,0.37896728515625,-0.455963134765625,0.30224609375,-0.746368408203125,0.30517578125,-0.06103515625,0.1220703125,0.451171875,-0.7967529296875,0.4013671875,-301.0,152.0,-142.0,101713.0,-3.2320001125335693,0,0
1.2828407000051811,0.37896728515625,-0.455963134765625,0.30224609375,-0.746368408203125,0.244140625,-0.06103515625,-0.06103515625,0.4525146484375,-0.7962646484375,0.400634765625,-301.0,152.0,-142.0,101713.0,-3.2320001125335693,0,0
1.34442080000008,0.37896728515625,-0.455963134765625,0.30224609375,-0.746368408203125,0.30517578125,-0.244140625,0.0,0.449951171875,-0.7952880859375,0.4012451171875,-301.0,152.0,-142.0,101713.0,-3.2320001125335693,0,0
1.3444968000112567,0.37896728515625,-0.455963134765625,0.30224609375,-0.746368408203125,0.06103515625,-0.244140625,-0.06103515625,0.4512939453125,-0.7955322265625,0.4019775390625,-301.0,152.0,-142.0,101713.0,-3.2320001125335693,0,0
1.3445558000094024,0.37896728515625,-0.455963134765625,0.30224609375,-0.746368408203125,-0.18310546875,-0.244140625,-0.18310546875,0.449462890625,-0.7950439453125,0.4012451171875,-301.0,152.0,-142.0,101713.0,-3.2320001125335693,0,0
1.344611900000018,0.37896728515625,-0.455963134765625,0.30224609375,-0.746368408203125,0.18310546875,-0.1220703125,0.0,0.4532470703125,-0.79736328125,0.40234375,-301.0,152.0,-142.0,101713.0,-3.2320001125335693,0,0
1.344667400000617,0.37896728515625,-0.455963134765625,0.30224609375,-0.746368408203125,0.18310546875,-0.1220703125,0.0,0.4532470703125,-0.79736328125,0.40234375,-301.0,152.0,-142.0,101713.0,-3.2320001125335693,0,0
1.3472062000073493,0.37896728515625,-0.455963134765625,0.30224609375,-0.746368408203125,0.0,-0.30517578125,-0.06103515625,0.4520263671875,-0.7969970703125,0.401611328125,-302.0,151.0,-142.0,101713.0,-3.2330000400543213,0,0
1.3474735000054352,0.379364013671875,-0.45611572265625,0.302001953125,-0.74615478515625,0.244140625,-0.244140625,-0.1220703125,0.4512939453125,-0.7977294921875,0.4002685546875,-302.0,151.0,-142.0,101713.0,-3.2330000400543213,0,0
1.347538000001805,0.379364013671875,-0.45611572265625,0.302001953125,-0.746185302734375,0.06103515625,-0.3662109375,-0.18310546875,0.4522705078125,-0.79638671875,0.402587890625,-302.0,151.0,-142.0,101713.0,-3.2330000400543213,0,0
1.3475916000024881,0.379364013671875,-0.45611572265625,0.302001953125,-0.746185302734375,0.0,-0.30517578125,-0.1220703125,0.4512939453125,-0.794921875,0.4024658203125,-302.0,151.0,-142.0,101713.0,-3.2330000400543213,0,0
1.347646000009263,0.379364013671875,-0.45611572265625,0.302001953125,-0.746185302734375,-0.06103515625,-0.30517578125,-0.06103515625,0.450439453125,-0.7943115234375,0.402587890625,-302.0,151.0,-142.0,101713.0,-3.2330000400543213,0,0
1.347699800011469,0.379364013671875,-0.45611572265625,0.302001953125,-0.746185302734375,0.06103515625,-0.3662109375,-0.18310546875,0.4532470703125,-0.7955322265625,0.4007568359375,-302.0,151.0,-142.0,101713.0,-3.2330000400543213,0,0
1.347756200004369,0.379364013671875,-0.45611572265625,0.302001953125,-0.746185302734375,0.30517578125,-0.18310546875,-0.1220703125,0.4512939453125,-0.7967529296875,0.4013671875,-302.0,151.0,-142.0,101713.0,-3.2330000400543213,0,0
1.407137000001967,0.379364013671875,-0.45611572265625,0.302001953125,-0.746185302734375,0.0,-0.1220703125,-0.1220703125,0.4520263671875,-0.7978515625,0.402099609375,-302.0,151.0,-142.0,101713.0,-3.2330000400543213,0,0
1.4072032000112813,0.379364013671875,-0.45611572265625,0.302001953125,-0.746185302734375,-0.06103515625,0.0,-0.1220703125,0.4508056640625,-0.7955322265625,0.401123046875,-302.0,151.0,-142.0,101713.0,-3.2330000400543213,0,0
1.4072605000110343,0.379364013671875,-0.45611572265625,0.302001953125,-0.746185302734375,0.06103515625,-0.30517578125,-0.3662109375,0.45166015625,-0.794921875,0.4007568359375,-302.0,151.0,-142.0,101713.0,-3.2330000400543213,0,0
1.4073169000039343,0.379364013671875,-0.45611572265625,0.302001953125,-0.746185302734375,0.1220703125,-0.1220703125,-0.06103515625,0.4498291015625,-0.7965087890625,0.4013671875,-302.0,151.0,-142.0,101713.0,-3.2330000400543213,0,0
1.4082696000114083,0.379364013671875,-0.45611572265625,0.302001953125,-0.746185302734375,0.244140625,-0.244140625,-0.1220703125,0.451416015625,-0.7955322265625,0.39990234375,-302.0,151.0,-142.0,101713.0,-3.2330000400543213,0,0
1.4083309000125155,0.379364013671875,-0.45611572265625,0.302001953125,-0.746185302734375,-0.1220703125,-0.06103515625,-0.18310546875,0.4493408203125,-0.7978515625,0.3997802734375,-302.0,151.0,-142.0,101713.0,-3.2330000400543213,0,0
1.4083882000122685,0.379364013671875,-0.45611572265625,0.302001953125,-0.746185302734375,0.1220703125,-0.30517578125,-0.18310546875,0.45068359375,-0.796875,0.4013671875,-302.0,151.0,-142.0,101713.0,-3.2330000400543213,0,0
1.408441200008383,0.379364013671875,-0.45611572265625,0.302001953125,-0.746185302734375,-0.42724609375,-0.3662109375,-0.06103515625,0.4498291015625,-0.7960205078125,0.40185546875,-302.0,151.0,-142.0,101713.0,-3.2330000400543213,0,0
1.4084953000128735,0.379364013671875,-0.45611572265625,0.302001953125,-0.746185302734375,0.3662109375,-0.30517578125,-0.18310546875,0.4500732421875,-0.7967529296875,0.40234375,-302.0,151.0,-142.0,101713.0,-3.2330000400543213,0,0
1.4085522000095807,0.379364013671875,-0.45611572265625,0.302001953125,-0.746185302734375,0.3662109375,-0.30517578125,-0.18310546875,0.4500732421875,-0.7967529296875,0.40234375,-302.0,151.0,-142.0,101713.0,-3.2330000400543213,0,0
1.4086097000108566,0.379364013671875,-0.45611572265625,0.302001953125,-0.746185302734375,0.06103515625,-0.244140625,0.06103515625,0.4503173828125,-0.7982177734375,0.4013671875,-302.0,151.0,-142.0,101713.0,-3.2330000400543213,0,0
1.4755390000063926,0.379364013671875,-0.45611572265625,0.302001953125,-0.746185302734375,0.06103515625,-0.244140625,0.06103515625,0.4503173828125,-0.7982177734375,0.4013671875,-301.0,152.0,-143.0,101714.0,-3.2330000400543213,0,0
1.475624600003357,0.379669189453125,-0.45623779296875,0.30181884765625,-0.74603271484375,0.30517578125,-0.1220703125,-0.1220703125,0.451904296875,-0.797607421875,0.4014892578125,-301.0,152.0,-143.0,101714.0,-3.2330000400543213,0,0
1.475972100000945,0.379669189453125,-0.45623779296875,0.30181884765625,-0.74603271484375,-0.1220703125,0.0,-0.06103515625,0.4508056640625,-0.7947998046875,0.40234375,-301.0,152.0,-143.0,101714.0,-3.2330000400543213,0,0
1.476072600009502,0.379669189453125,-0.45623779296875,0.30181884765625,-0.74603271484375,-0.30517578125,-0.244140625,0.06103515625,0.4515380859375,-0.796142578125,0.401611328125,-301.0,152.0,-143.0,101714.0,-3.2330000400543213,0,0
1.476137200006633,0.379669189453125,-0.45623779296875,0.30181884765625,-0.74603271484375,0.30517578125,-0.1220703125,-0.244140625,0.453369140625,-0.7978515625,0.40087890625,-301.0,152.0,-143.0,101714.0,-3.2330000400543213,0,0
1.4761972000123933,0.379669189453125,-0.45623779296875,0.30181884765625,-0.74603271484375,0.18310546875,-0.1220703125,-0.18310546875,0.448974609375,-0.7972412109375,0.401611328125,-301.0,152.0,-143.0,101714.0,-3.2330000400543213,0,0
1.476275600012741,0.379669189453125,-0.45623779296875,0.30181884765625,-0.74603271484375,0.06103515625,-0.18310546875,0.06103515625,0.4488525390625,-0.7955322265625,0.40087890625,-301.0,152.0,-143.0,101714.0,-3.2330000400543213,0,0
1.4763295000011567,0.379669189453125,-0.45623779296875,0.30181884765625,-0.74603271484375,0.06103515625,-0.18310546875,0.06103515625,0.4488525390625,-0.7955322265625,0.40087890625,-301.0,152.0,-143.0,101714.0,-3.2330000400543213,0,0
1.4763863000116544,0.379669189453125,-0.45623779296875,0.301849365234375,-0.746002197265625,0.0,-0.1220703125,-0.244140625,0.4500732421875,-0.79638671875,0.40283203125,-301.0,152.0,-143.0,101714.0,-3.2330000400543213,0,0
1.476462000005995,0.379669189453125,-0.45623779296875,0.301849365234375,-0.74603271484375,0.1220703125,-0.06103515625,0.0,0.45166015625,-0.7950439453125,0.4010009765625,-301.0,152.0,-143.0,101714.0,-3.2330000400543213,0,0
1.476522600001772,0.379669189453125,-0.45623779296875,0.30181884765625,-0.74603271484375,0.1220703125,-0.06103515625,0.0,0.45166015625,-0.7950439453125,0.4010009765625,-301.0,152.0,-143.0,101714.0,-3.2330000400543213,0,0
1.476581900002202,0.379669189453125,-0.45623779296875,0.30181884765625,-0.74603271484375,-0.06103515625,-0.30517578125,0.06103515625,0.452880859375,-0.796875,0.40185546875,-301.0,152.0,-143.0,101714.0,-3.2330000400543213,0,0
1.4766355000028852,0.379669189453125,-0.45623779296875,0.30181884765625,-0.74603271484375,0.06103515625,0.1220703125,-0.1220703125,0.4520263671875,-0.7955322265625,0.400634765625,-301.0,152.0,-143.0,101714.0,-3.2330000400543213,0,0
1.5378751000098418,0.379669189453125,-0.456207275390625,0.30181884765625,-0.74603271484375,0.06103515625,-0.06103515625,-0.18310546875,0.451416015625,-0.7955322265625,0.40283203125,-301.0,152.0,-143.0,101714.0,-3.2330000400543213,0,0
1.5379405000130646,0.379669189453125,-0.456207275390625,0.30181884765625,-0.74603271484375,0.06103515625,-0.3662109375,0.18310546875,0.4522705078125,-0.7957763671875,0.40283203125,-301.0,152.0,-143.0,101714.0,-3.2330000400543213,0,0
1.5380654000036884,0.379669189453125,-0.456207275390625,0.30181884765625,-0.74603271484375,0.06103515625,-0.3662109375,0.18310546875,0.4522705078125,-0.7957763671875,0.40283203125,-301.0,152.0,-143.0,101714.0,-3.2330000400543213,0,0
1.5381578000087757,0.379669189453125,-0.456207275390625,0.30181884765625,-0.74603271484375,0.1220703125,-0.18310546875,-0.06103515625,0.4503173828125,-0.7952880859375,0.40087890625,-301.0,152.0,-143.0,101714.0,-3.2330000400543213,0,0
1.5399631000036607,0.379669189453125,-0.45623779296875,0.30181884765625,-0.74603271484375,0.0,-0.244140625,0.18310546875,0.451904296875,-0.7952880859375,0.4005126953125,-301.0,152.0,-143.0,101714.0,-3.2330000400543213,0,0
1.540025100010098,0.379669189453125,-0.45623779296875,0.30181884765625,-0.74603271484375,0.0,-0.244140625,-0.06103515625,0.45166015625,-0.7974853515625,0.400390625,-301.0,153.0,-143.0,101713.0,-3.2300002574920654,0,0
1.5401415000087582,0.379669189453125,-0.45623779296875,0.30181884765625,-0.74603271484375,0.3662109375,-0.1220703125,-0.3662109375,0.4505615234375,-0.79541015625,0.4013671875,-301.0,153.0,-143.0,101713.0,-3.2300002574920654,0,0
1.540200300005381,0.380157470703125,-0.4564208984375,0.301513671875,-0.745758056640625,-0.244140625,-0.6103515625,-0.30517578125,0.4495849609375,-0.7955322265625,0.400390625,-301.0,153.0,-143.0,101713.0,-3.2300002574920654,0,0
1.540420700010145,0.380157470703125,-0.4564208984375,0.301513671875,-0.745758056640625,-0.18310546875,-0.1220703125,0.0,0.450927734375,-0.7943115234375,0.4005126953125,-301.0,153.0,-143.0,101713.0,-3.2300002574920654,0,0
1.5404803000128595,0.38018798828125,-0.4564208984375,0.301513671875,-0.745758056640625,0.18310546875,-0.6103515625,-0.1220703125,0.4510498046875,-0.7967529296875,0.4012451171875,-301.0,153.0,-143.0,101713.0,-3.2300002574920654,0,0
1.5405363000027137,0.38018798828125,-0.4564208984375,0.301513671875,-0.745758056640625,0.06103515625,-0.3662109375,-0.06103515625,0.4501953125,-0.796630859375,0.4019775390625,-301.0,153.0,-143.0,101713.0,-3.2300002574920654,0,0
1.6065010000020266,0.38018798828125,-0.4564208984375,0.301513671875,-0.74578857421875,0.1220703125,-0.30517578125,-0.244140625,0.4508056640625,-0.7952880859375,0.40087890625,-301.0,153.0,-143.0,101713.0,-3.2300002574920654,0,0
1.6065687000082107,0.38018798828125,-0.4564208984375,0.301513671875,-0.74578857421875,0.18310546875,-0.18310546875,-0.06103515625,0.451171875,-0.796875,0.4027099609375,-301.0,153.0,-143.0,101713.0,-3.2300002574920654,0,0
1.6066258000064408,0.38018798828125,-0.4564208984375,0.301513671875,-0.74578857421875,-0.18310546875,-0.1220703125,-0.3662109375,0.450927734375,-0.7978515625,0.401611328125,-301.0,153.0,-143.0,101713.0,-3.2300002574920654,0,0
1.6066822000138927,0.38018798828125,-0.4564208984375,0.301513671875,-0.74578857421875,0.18310546875,-0.244140625,-0.1220703125,0.4521484375,-0.7969970703125,0.4019775390625,-301.0,153.0,-143.0,101713.0,-3.2300002574920654,0,0
1.6067370000091614,0.38018798828125,-0.4564208984375,0.301513671875,-0.74578857421875,0.0,-0.1220703125,0.1220703125,0.4530029296875,-0.797119140625,0.400634765625,-301.0,153.0,-143.0,101713.0,-3.2300002574920654,0,0
1.6068104000005405,0.38018798828125,-0.4564208984375,0.301513671875,-0.745758056640625,0.0,-0.1220703125,-0.244140625,0.4493408203125,-0.796630859375,0.4010009765625,-301.0,153.0,-143.0,101713.0,-3.2300002574920654,0,0
1.606864300003508,0.38018798828125,-0.4564208984375,0.301513671875,-0.74578857421875,0.18310546875,-0.244140625,-0.1220703125,0.450927734375,-0.795166015625,0.402099609375,-301.0,153.0,-143.0,101713.0,-3.2300002574920654,0,0
1.606917600001907,0.38018798828125,-0.4564208984375,0.301513671875,-0.745758056640625,-0.1220703125,-0.18310546875,0.0,0.4486083984375,-0.798828125,0.4014892578125,-301.0,153.0,-143.0,101713.0,-3.2300002574920654,0,0
1.6069719000079203,0.38018798828125,-0.4564208984375,0.301513671875,-0.745758056640625,-0.1220703125,-0.18310546875,0.0,0.4486083984375,-0.798828125,0.4014892578125,-301.0,153.0,-143.0,101713.0,-3.2300002574920654,0,0
1.6070284000015818,0.38018798828125,-0.4564208984375,0.301513671875,-0.745758056640625,0.0,-0.1220703125,0.06103515625,0.4508056640625,-0.796142578125,0.400390625,-301.0,153.0,-143.0,101713.0,-3.2300002574920654,0,0
1.6070823000045493,0.38018798828125,-0.4564208984375,0.301513671875,-0.745758056640625,0.0,-0.30517578125,-0.1220703125,0.4522705078125,-0.797119140625,0.4014892578125,-301.0,153.0,-143.0,101713.0,-3.2300002574920654,0,0
1.6770972000085749,0.38018798828125,-0.4564208984375,0.301544189453125,-0.745758056640625,0.18310546875,-0.1220703125,-0.1220703125,0.4500732421875,-0.7969970703125,0.399658203125,-301.0,153.0,-143.0,101713.0,-3.2300002574920654,0,0
1.6771701000106987,0.38018798828125,-0.4564208984375,0.301544189453125,-0.745758056640625,0.0,-0.3662109375,-0.1220703125,0.4505615234375,-0.798095703125,0.4017333984375,-301.0,153.0,-143.0,101713.0,-3.2300002574920654,0,0
1.6772305000049528,0.38018798828125,-0.4564208984375,0.301544189453125,-0.745758056640625,-0.30517578125,-0.30517578125,0.06103515625,0.452392578125,-0.7967529296875,0.400634765625,-300.0,151.0,-143.0,101713.0,-3.2320001125335693,0,0
1.677290700012236,0.3804931640625,-0.45654296875,0.301361083984375,-0.74560546875,0.1220703125,-0.1220703125,-0.1220703125,0.4508056640625,-0.796875,0.401611328125,-300.0,151.0,-143.0,101713.0,-3.2320001125335693,0,0
1.6773487000027671,0.3804931640625,-0.45654296875,0.30133056640625,-0.74560546875,0.0,-0.3662109375,0.0,0.4515380859375,-0.7940673828125,0.4013671875,-300.0,151.0,-143.0,101713.0,-3.2320001125335693,0,0
1.677406200004043,0.3804931640625,-0.45654296875,0.301361083984375,-0.74560546875,0.18310546875,-0.1220703125,-0.30517578125,0.44921875,-0.79638671875,0.400146484375,-300.0,151.0,-143.0,101713.0,-3.2320001125335693,0,0
1.6775245000026189,0.3804931640625,-0.45654296875,0.301361083984375,-0.74560546875,0.18310546875,-0.1220703125,-0.30517578125,0.44921875,-0.79638671875,0.400146484375,-300.0,151.0,-143.0,101713.0,-3.2320001125335693,0,0
1.677577000009478,0.3804931640625,-0.45654296875,0.301361083984375,-0.74560546875,0.0,-0.3662109375,-0.1220703125,0.451171875,-0.7958984375,0.401611328125,-300.0,151.0,-143.0,101713.0,-3.2320001125335693,0,0
1.677630300007877,0.3804931640625,-0.45654296875,0.301361083984375,-0.74560546875,0.30517578125,-0.06103515625,0.06103515625,0.4522705078125,-0.79541015625,0.4013671875,-300.0,151.0,-143.0,101713.0,-3.2320001125335693,0,0
1.6776833000039915,0.380462646484375,-0.45654296875,0.301361083984375,-0.74560546875,-0.06103515625,-0.244140625,0.06103515625,0.4522705078125,-0.795654296875,0.3994140625,-300.0,151.0,-143.0,101713.0,-3.2320001125335693,0,0
1.6777370000054361,0.3804931640625,-0.45654296875,0.30133056640625,-0.74560546875,0.30517578125,-0.06103515625,0.06103515625,0.4508056640625,-0.796142578125,0.4027099609375,-300.0,151.0,-143.0,101713.0,-3.2320001125335693,0,0
1.6777893000107724,0.3804931640625,-0.45654296875,0.30133056640625,-0.74560546875,-0.244140625,-0.06103515625,-0.18310546875,0.4503173828125,-0.793701171875,0.402099609375,-300.0,151.0,-143.0,101713.0,-3.2320001125335693,0,0
1.6778424000076484,0.3804931640625,-0.45654296875,0.30133056640625,-0.74560546875,0.06103515625,0.0,0.0,0.4510498046875,-0.79443359375,0.400634765625,-300.0,151.0,-143.0,101713.0,-3.2320001125335693,0,0
1.7335578000056557,0.380462646484375,-0.45654296875,0.30133056640625,-0.74560546875,0.30517578125,-0.06103515625,-0.06103515625,0.4508056640625,-0.797119140625,0.4005126953125,-300.0,151.0,-143.0,101713.0,-3.2320001125335693,0,0
1.733622200001264,0.380462646484375,-0.45654296875,0.30133056640625,-0.74560546875,0.30517578125,-0.06103515625,-0.06103515625,0.4508056640625,-0.797119140625,0.4005126953125,-300.0,151.0,-143.0,101713.0,-3.2320001125335693,0,0
1.73368040000787,0.3804931640625,-0.45654296875,0.30133056640625,-0.745635986328125,0.0,-0.18310546875,-0.1220703125,0.451416015625,-0.796142578125,0.401611328125,-300.0,151.0,-143.0,101713.0,-3.2320001125335693,0,0
1.7337356000061845,0.3804931640625,-0.45654296875,0.30133056640625,-0.74560546875,0.244140625,-0.06103515625,-0.1220703125,0.45068359375,-0.7967529296875,0.399658203125,-300.0,151.0,-143.0,101713.0,-3.2320001125335693,0,0
1.7337890000053449,0.3804931640625,-0.45654296875,0.30133056640625,-0.74560546875,0.0,-0.30517578125,-0.06103515625,0.449951171875,-0.795166015625,0.4019775390625,-300.0,151.0,-143.0,101713.0,-3.2320001125335693,0,0
1.7346502000000328,0.3804931640625,-0.456512451171875,0.30133056640625,-0.74560546875,0.0,-0.244140625,-0.18310546875,0.4503173828125,-0.79443359375,0.40087890625,-300.0,151.0,-143.0,101713.0,-3.2320001125335693,0,0
1.7347138000041014,0.3804931640625,-0.456512451171875,0.30133056640625,-0.74560546875,-0.18310546875,-0.1220703125,-0.18310546875,0.45068359375,-0.79638671875,0.400146484375,-300.0,151.0,-143.0,101713.0,-3.2320001125335693,0,0
1.7347700000100303,0.3804931640625,-0.456512451171875,0.30133056640625,-0.74560546875,-0.18310546875,-0.1220703125,-0.18310546875,0.45068359375,-0.79638671875,0.400146484375,-300.0,151.0,-145.0,101713.0,-3.2310001850128174,0,0
1.734825900013675,0.3804931640625,-0.456512451171875,0.30133056640625,-0.74560546875,0.18310546875,0.1220703125,-0.1220703125,0.449951171875,-0.7952880859375,0.4005126953125,-300.0,151.0,-145.0,101713.0,-3.2310001850128174,0,0
1.7348819000035292,0.38067626953125,-0.45660400390625,0.30120849609375,-0.745513916015625,0.18310546875,-0.18310546875,0.244140625,0.45263671875,-0.79638671875,0.400390625,-300.0,151.0,-145.0,101713.0,-3.2310001850128174,0,0
1.734938300010981,0.38067626953125,-0.45660400390625,0.30120849609375,-0.745513916015625,0.18310546875,-0.18310546875,0.244140625,0.45263671875,-0.79638671875,0.400390625,-300.0,151.0,-145.0,101713.0,-3.2310001850128174,0,0
1.7934177000133786,0.38067626953125,-0.45660400390625,0.30120849609375,-0.745513916015625,0.0,-0.1220703125,0.18310546875,0.45166015625,-0.79541015625,0.401123046875,-300.0,151.0,-145.0,101713.0,-3.2310001850128174,0,0
1.7934843000111869,0.38067626953125,-0.45660400390625,0.30120849609375,-0.745513916015625,0.18310546875,-0.244140625,0.0,0.45361328125,-0.7967529296875,0.4005126953125,-300.0,151.0,-145.0,101713.0,-3.2310001850128174,0,0
1.7935431000078097,0.38067626953125,-0.45660400390625,0.30120849609375,-0.745513916015625,-0.06103515625,-0.30517578125,-0.06103515625,0.450927734375,-0.79541015625,0.4000244140625,-300.0,151.0,-145.0,101713.0,-3.2310001850128174,0,0
1.7935984000068856,0.38067626953125,-0.45660400390625,0.30120849609375,-0.745513916015625,0.18310546875,-0.3662109375,0.0,0.4520263671875,-0.7962646484375,0.4019775390625,-300.0,151.0,-145.0,101713.0,-3.2310001850128174,0,0
1.793654000008246,0.38067626953125,-0.45660400390625,0.30120849609375,-0.745513916015625,-0.06103515625,-0.3662109375,0.1220703125,0.4512939453125,-0.7950439453125,0.4022216796875,-300.0,151.0,-145.0,101713.0,-3.2310001850128174,0,0
1.8035847000137437,0.38067626953125,-0.45660400390625,0.30120849609375,-0.745513916015625,-0.06103515625,-0.244140625,-0.06103515625,0.4512939453125,-0.79541015625,0.400634765625,-300.0,151.0,-145.0,101713.0,-3.2310001850128174,0,0
1.8036703000107082,0.38067626953125,-0.45660400390625,0.30120849609375,-0.745513916015625,0.1220703125,0.0,-0.06103515625,0.45166015625,-0.7960205078125,0.4017333984375,-300.0,151.0,-145.0,101713.0,-3.2310001850128174,0,0
1.8037284000020009,0.38067626953125,-0.45660400390625,0.30120849609375,-0.745513916015625,0.1220703125,0.0,-0.06103515625,0.45166015625,-0.7960205078125,0.4017333984375,-300.0,151.0,-145.0,101713.0,-3.2310001850128174,0,0
1.8037843000056455,0.38067626953125,-0.45660400390625,0.30120849609375,-0.745513916015625,0.30517578125,-0.18310546875,-0.1220703125,0.4503173828125,-0.7957763671875,0.403076171875,-300.0,151.0,-145.0,101713.0,-3.2310001850128174,0,0
1.8038390000001527,0.38067626953125,-0.45660400390625,0.30120849609375,-0.745513916015625,0.06103515625,-0.18310546875,-0.18310546875,0.4537353515625,-0.7962646484375,0.4031982421875,-300.0,151.0,-145.0,101713.0,-3.2310001850128174,0,0
1.803892400013865,0.38067626953125,-0.45660400390625,0.30120849609375,-0.74554443359375,0.06103515625,-0.18310546875,0.0,0.4503173828125,-0.7987060546875,0.4031982421875,-300.0,151.0,-145.0,101713.0,-3.2310001850128174,0,0
1.8580442000093171,0.38067626953125,-0.45660400390625,0.30120849609375,-0.745513916015625,0.1220703125,-0.244140625,0.0,0.450439453125,-0.79736328125,0.400634765625,-300.0,151.0,-145.0,101713.0,-3.2310001850128174,0,0
1.8581174000137253,0.38067626953125,-0.45660400390625,0.30120849609375,-0.745513916015625,0.244140625,-0.1220703125,-0.244140625,0.4508056640625,-0.797119140625,0.401611328125,-300.0,151.0,-145.0,101713.0,-3.2310001850128174,0,0
1.8581752000027336,0.38067626953125,-0.45660400390625,0.30120849609375,-0.745513916015625,0.244140625,-0.30517578125,-0.06103515625,0.4515380859375,-0.7967529296875,0.3994140625,-300.0,151.0,-145.0,101713.0,-3.2310001850128174,0,0
1.8582311000063783,0.38067626953125,-0.45660400390625,0.30120849609375,-0.745513916015625,0.244140625,0.0,-0.18310546875,0.448486328125,-0.7952880859375,0.4027099609375,-300.0,151.0,-145.0,101713.0,-3.2310001850128174,0,0
1.858286600006977,0.38067626953125,-0.45660400390625,0.30120849609375,-0.74554443359375,-0.06103515625,-0.30517578125,-0.06103515625,0.451904296875,-0.7923583984375,0.400390625,-300.0,151.0,-145.0,101713.0,-3.2310001850128174,0,0
1.8583417000045301,0.38067626953125,-0.45660400390625,0.30120849609375,-0.74554443359375,-0.06103515625,-0.30517578125,-0.06103515625,0.451904296875,-0.7923583984375,0.400390625,-300.0,151.0,-145.0,101713.0,-3.2310001850128174,0,0
1.8584169000096153,0.380889892578125,-0.4566650390625,0.30108642578125,-0.74542236328125,-0.06103515625,-0.3662109375,-0.1220703125,0.45263671875,-0.7967529296875,0.4013671875,-300.0,151.0,-145.0,101713.0,-3.2310001850128174,0,0
1.8584701000072528,0.380889892578125,-0.4566650390625,0.30108642578125,-0.74542236328125,0.06103515625,0.0,0.0,0.4522705078125,-0.7958984375,0.399658203125,-300.0,151.0,-145.0,101713.0,-3.2310001850128174,0,0
1.8585244000132661,0.380889892578125,-0.456695556640625,0.30108642578125,-0.74542236328125,0.18310546875,-0.1220703125,-0.1220703125,0.450439453125,-0.795654296875,0.398681640625,-300.0,151.0,-145.0,101713.0,-3.2310001850128174,0,0
1.8585770000063349,0.380889892578125,-0.4566650390625,0.30108642578125,-0.74542236328125,-0.244140625,-0.18310546875,0.0,0.450439453125,-0.7952880859375,0.40283203125,-300.0,151.0,-145.0,101713.0,-3.2310001850128174,0,0
1.8586318000016036,0.380889892578125,-0.4566650390625,0.30108642578125,-0.74542236328125,0.06103515625,-0.06103515625,-0.1220703125,0.448974609375,-0.7952880859375,0.4022216796875,-300.0,151.0,-145.0,101713.0,-3.2310001850128174,0,0
1.8586851000000024,0.380889892578125,-0.4566650390625,0.30108642578125,-0.74542236328125,0.06103515625,0.0,0.1220703125,0.452392578125,-0.794921875,0.4019775390625,-300.0,151.0,-145.0,101713.0,-3.2310001850128174,0,0
1.8587387000006856,0.380889892578125,-0.4566650390625,0.30108642578125,-0.74542236328125,0.0,-0.1220703125,-0.244140625,0.4508056640625,-0.796142578125,0.4012451171875,-300.0,151.0,-145.0,101713.0,-3.2310001850128174,0,0
1.9182620000065072,0.380889892578125,-0.4566650390625,0.301055908203125,-0.745452880859375,0.1220703125,-0.06103515625,0.18310546875,0.4512939453125,-0.792724609375,0.4019775390625,-300.0,151.0,-145.0,101713.0,-3.2310001850128174,0,0
1.9183451999997487,0.380889892578125,-0.4566650390625,0.301055908203125,-0.745452880859375,0.30517578125,-0.1220703125,-0.06103515625,0.4498291015625,-0.795166015625,0.402099609375,-300.0,151.0,-145.0,101713.0,-3.2310001850128174,0,0
1.9184051000047475,0.380889892578125,-0.4566650390625,0.301055908203125,-0.745452880859375,-0.18310546875,-0.244140625,0.0,0.4501953125,-0.7950439453125,0.4010009765625,-300.0,151.0,-145.0,101713.0,-3.2310001850128174,0,0
1.9184626000060234,0.380889892578125,-0.4566650390625,0.301055908203125,-0.745452880859375,0.18310546875,-0.30517578125,-0.06103515625,0.4527587890625,-0.7960205078125,0.401123046875,-300.0,151.0,-145.0,101713.0,-3.2310001850128174,0,0
1.9185396000102628,0.380889892578125,-0.4566650390625,0.301055908203125,-0.745452880859375,0.0,-0.244140625,0.0,0.4510498046875,-0.7930908203125,0.3997802734375,-300.0,151.0,-145.0,101713.0,-3.2310001850128174,0,0
1.9186350000090897,0.380889892578125,-0.4566650390625,0.301055908203125,-0.745452880859375,0.0,-0.1220703125,-0.18310546875,0.4515380859375,-0.79541015625,0.4027099609375,-300.0,151.0,-145.0,101713.0,-3.2310001850128174,0,0
1.9187082000134978,0.380889892578125,-0.4566650390625,0.301055908203125,-0.745452880859375,0.1220703125,0.06103515625,-0.30517578125,0.4500732421875,-0.79248046875,0.40234375,-300.0,151.0,-145.0,101713.0,-3.2310001850128174,0,0
1.918834700001753,0.380889892578125,-0.4566650390625,0.301055908203125,-0.745452880859375,-0.1220703125,-0.244140625,-0.18310546875,0.45166015625,-0.7957763671875,0.4024658203125,-300.0,151.0,-145.0,101713.0,-3.2310001850128174,0,0
1.9188987000088673,0.380889892578125,-0.4566650390625,0.301055908203125,-0.745452880859375,0.1220703125,-0.30517578125,-0.18310546875,0.45166015625,-0.7962646484375,0.403076171875,-300.0,151.0,-145.0,101713.0,-3.2310001850128174,0,0
1.9189604000130203,0.380889892578125,-0.4566650390625,0.301055908203125,-0.745452880859375,0.1220703125,-0.30517578125,-0.18310546875,0.45166015625,-0.7962646484375,0.403076171875,-300.0,151.0,-145.0,101713.0,-3.2310001850128174,0,0
1.9190739000041503,0.380889892578125,-0.4566650390625,0.301025390625,-0.745452880859375,0.1220703125,-0.1220703125,-0.06103515625,0.450927734375,-0.79296875,0.40087890625,-299.0,151.0,-146.0,101713.0,-3.2300002574920654,0,0
1.9817393000121228,0.3809814453125,-0.456695556640625,0.300994873046875,-0.74542236328125,0.1220703125,-0.244140625,0.06103515625,0.45068359375,-0.797119140625,0.4029541015625,-299.0,151.0,-146.0,101713.0,-3.2300002574920654,0,0
1.9818036000069696,0.3809814453125,-0.456695556640625,0.30096435546875,-0.74542236328125,0.1220703125,0.1220703125,-0.06103515625,0.451171875,-0.796875,0.4019775390625,-299.0,151.0,-146.0,101713.0,-3.2300002574920654,0,0
1.9820081000070786,0.3809814453125,-0.4566650390625,0.30096435546875,-0.74542236328125,0.06103515625,-0.30517578125,0.18310546875,0.4521484375,-0.797119140625,0.403564453125,-299.0,151.0,-146.0,101713.0,-3.2300002574920654,0,0
1.9820733000087785,0.381011962890625,-0.4566650390625,0.30096435546875,-0.74542236328125,0.0,-0.18310546875,-0.18310546875,0.4508056640625,-0.7945556640625,0.404052734375,-299.0,151.0,-146.0,101713.0,-3.2300002574920654,0,0
1.9834764000115683,0.381011962890625,-0.4566650390625,0.30096435546875,-0.74542236328125,0.1220703125,0.0,-0.06103515625,0.4512939453125,-0.796142578125,0.403076171875,-299.0,151.0,-146.0,101713.0,-3.2300002574920654,0,0
1.9864383000094676,0.381011962890625,-0.4566650390625,0.30096435546875,-0.74542236328125,-0.1220703125,-0.244140625,-0.1220703125,0.4512939453125,-0.795654296875,0.40185546875,-299.0,151.0,-146.0,101713.0,-3.2300002574920654,0,0
1.9865026000043144,0.381011962890625,-0.4566650390625,0.30096435546875,-0.74542236328125,-0.1220703125,-0.244140625,-0.1220703125,0.4512939453125,-0.795654296875,0.40185546875,-299.0,151.0,-146.0,101713.0,-3.2300002574920654,0,0
1.986557800002629,0.3809814453125,-0.4566650390625,0.30096435546875,-0.74542236328125,0.18310546875,-0.06103515625,-0.18310546875,0.4522705078125,-0.79736328125,0.4000244140625,-299.0,151.0,-146.0,101713.0,-3.2300002574920654,0,0
1.9866120000078809,0.381011962890625,-0.4566650390625,0.30096435546875,-0.74542236328125,0.1220703125,-0.3662109375,0.06103515625,0.4510498046875,-0.7978515625,0.402099609375,-299.0,151.0,-146.0,101713.0,-3.2300002574920654,0,0
1.9866646000009496,0.3809814453125,-0.4566650390625,0.30096435546875,-0.74542236328125,0.244140625,0.0,-0.06103515625,0.4505615234375,-0.796875,0.40234375,-299.0,151.0,-146.0,101713.0,-3.2300002574920654,0,0
1.9867179000139004,0.381011962890625,-0.4566650390625,0.30096435546875,-0.74542236328125,-0.06103515625,-0.3662109375,0.0,0.4532470703125,-0.7947998046875,0.40234375,-299.0,151.0,-146.0,101713.0,-3.2300002574920654,0,0
2.0454109000129392,0.381011962890625,-0.4566650390625,0.30096435546875,-0.74542236328125,0.06103515625,-0.1220703125,-0.06103515625,0.450439453125,-0.796142578125,0.403564453125,-299.0,151.0,-146.0,101713.0,-3.2300002574920654,0,0
2.045484000002034,0.381011962890625,-0.456634521484375,0.30096435546875,-0.74542236328125,-0.244140625,-0.18310546875,0.0,0.44873046875,-0.795166015625,0.40283203125,-299.0,151.0,-146.0,101713.0,-3.2300002574920654,0,0
2.0455852000013692,0.381011962890625,-0.456634521484375,0.30096435546875,-0.74542236328125,-0.06103515625,0.0,-0.06103515625,0.4505615234375,-0.7962646484375,0.40380859375,-299.0,151.0,-146.0,101713.0,-3.2300002574920654,0,0
2.045644400001038,0.381011962890625,-0.456634521484375,0.30096435546875,-0.74542236328125,0.244140625,0.1220703125,-0.244140625,0.45166015625,-0.7967529296875,0.400634765625,-299.0,151.0,-146.0,101713.0,-3.2300002574920654,0,0
2.0490161000052467,0.381011962890625,-0.456634521484375,0.30096435546875,-0.74542236328125,0.244140625,0.1220703125,-0.244140625,0.45166015625,-0.7967529296875,0.400634765625,-299.0,151.0,-146.0,101713.0,-3.2300002574920654,0,0
2.0490936000132933,0.381011962890625,-0.456634521484375,0.30096435546875,-0.74542236328125,0.18310546875,0.0,-0.1220703125,0.449462890625,-0.794189453125,0.4007568359375,-299.0,151.0,-146.0,101713.0,-3.2300002574920654,0,0
2.0491540000075474,0.381103515625,-0.456695556640625,0.3009033203125,-0.745391845703125,-0.06103515625,-0.1220703125,-0.1220703125,0.4515380859375,-0.795166015625,0.4007568359375,-298.0,152.0,-146.0,101713.0,-3.2300002574920654,0,0
2.0519135000067763,0.381103515625,-0.456695556640625,0.3009033203125,-0.745391845703125,-0.1220703125,-0.42724609375,-0.42724609375,0.4508056640625,-0.7940673828125,0.4022216796875,-298.0,152.0,-146.0,101713.0,-3.2300002574920654,0,0
2.0519717000133824,0.381103515625,-0.456695556640625,0.3009033203125,-0.745391845703125,0.30517578125,0.06103515625,0.18310546875,0.4505615234375,-0.7938232421875,0.4010009765625,-298.0,152.0,-146.0,101713.0,-3.2300002574920654,0,0
2.0520270000124583,0.381103515625,-0.456695556640625,0.300872802734375,-0.745391845703125,-0.30517578125,-0.3662109375,-0.244140625,0.4515380859375,-0.7958984375,0.4017333984375,-298.0,152.0,-146.0,101713.0,-3.2300002574920654,0,0
2.0520817000069655,0.381103515625,-0.456695556640625,0.300872802734375,-0.745391845703125,0.0,-0.244140625,-0.06103515625,0.44921875,-0.7939453125,0.4013671875,-298.0,152.0,-146.0,101713.0,-3.2300002574920654,0,0
2.0521363000007113,0.381103515625,-0.456695556640625,0.300872802734375,-0.745391845703125,0.3662109375,-0.3662109375,0.0,0.4522705078125,-0.7958984375,0.4033203125,-298.0,152.0,-146.0,101713.0,-3.2300002574920654,0,0
2.052189800000633,0.381103515625,-0.456695556640625,0.300872802734375,-0.745391845703125,-0.244140625,-0.244140625,0.0,0.4522705078125,-0.797119140625,0.40234375,-298.0,152.0,-146.0,101713.0,-3.2300002574920654,0,0
2.1167671000002883,0.381103515625,-0.4566650390625,0.300872802734375,-0.745391845703125,-0.1220703125,-0.1220703125,0.0,0.449951171875,-0.79541015625,0.4024658203125,-298.0,152.0,-146.0,101713.0,-3.2300002574920654,0,0
2.1169132000068203,0.381103515625,-0.4566650390625,0.300872802734375,-0.745391845703125,-0.1220703125,-0.1220703125,0.0,0.449951171875,-0.79541015625,0.4024658203125,-298.0,152.0,-146.0,101713.0,-3.2300002574920654,0,0
2.1170142000046326,0.381103515625,-0.4566650390625,0.300872802734375,-0.745391845703125,0.30517578125,-0.18310546875,-0.1220703125,0.4495849609375,-0.79541015625,0.40087890625,-298.0,152.0,-146.0,101713.0,-3.2300002574920654,0,0
2.1171175000054063,0.381134033203125,-0.4566650390625,0.300872802734375,-0.745391845703125,0.1220703125,-0.30517578125,0.0,0.4498291015625,-0.7967529296875,0.40234375,-298.0,152.0,-146.0,101713.0,-3.2300002574920654,0,0
2.117177600011928,0.381134033203125,-0.4566650390625,0.300872802734375,-0.745391845703125,0.0,-0.18310546875,-0.1220703125,0.45068359375,-0.7955322265625,0.4036865234375,-298.0,152.0,-146.0,101713.0,-3.2300002574920654,0,0
2.117317300013383,0.381134033203125,-0.4566650390625,0.300872802734375,-0.745391845703125,0.06103515625,-0.06103515625,-0.244140625,0.45068359375,-0.7952880859375,0.4014892578125,-298.0,152.0,-146.0,101713.0,-3.2300002574920654,0,0
2.1276347000093665,0.381134033203125,-0.4566650390625,0.300872802734375,-0.745391845703125,0.18310546875,-0.06103515625,-0.244140625,0.4515380859375,-0.7950439453125,0.4034423828125,-298.0,152.0,-146.0,101713.0,-3.2300002574920654,0,0
2.1277303000097163,0.381134033203125,-0.456634521484375,0.300872802734375,-0.74542236328125,0.0,-0.48828125,-0.1220703125,0.4515380859375,-0.796630859375,0.4039306640625,-298.0,152.0,-146.0,101713.0,-3.2300002574920654,0,0
2.127793500010739,0.381134033203125,-0.456634521484375,0.300872802734375,-0.74542236328125,0.0,-0.48828125,-0.1220703125,0.4515380859375,-0.796630859375,0.4039306640625,-298.0,152.0,-146.0,101713.0,-3.2300002574920654,0,0
2.127851400000509,0.381134033203125,-0.456634521484375,0.300872802734375,-0.74542236328125,-0.06103515625,-0.244140625,-0.1220703125,0.4493408203125,-0.7955322265625,0.40234375,-298.0,152.0,-146.0,101713.0,-3.2300002574920654,0,0
2.127907400004915,0.381134033203125,-0.456634521484375,0.300872802734375,-0.74542236328125,-0.244140625,-0.30517578125,-0.244140625,0.45068359375,-0.7947998046875,0.402099609375,-298.0,152.0,-146.0,101713.0,-3.2300002574920654,0,0
2.1732708000054117,0.381011962890625,-0.45660400390625,0.300933837890625,-0.745452880859375,-0.1220703125,-0.244140625,0.06103515625,0.4503173828125,-0.7979736328125,0.4012451171875,-298.0,152.0,-147.0,101713.0,-3.2300002574920654,0,0
2.1733487000019522,0.381011962890625,-0.45660400390625,0.300933837890625,-0.745452880859375,0.18310546875,-0.30517578125,0.0,0.4515380859375,-0.7957763671875,0.402587890625,-298.0,152.0,-147.0,101713.0,-3.2300002574920654,0,0
2.173412600008305,0.381011962890625,-0.45660400390625,0.300933837890625,-0.745452880859375,-0.30517578125,-0.3662109375,0.1220703125,0.4505615234375,-0.7958984375,0.4024658203125,-298.0,152.0,-147.0,101713.0,-3.2300002574920654,0,0
2.173471400004928,0.381011962890625,-0.45660400390625,0.300933837890625,-0.745452880859375,0.30517578125,0.0,0.1220703125,0.4527587890625,-0.795654296875,0.4014892578125,-298.0,152.0,-147.0,101713.0,-3.2300002574920654,0,0
2.1735312000091653,0.381011962890625,-0.45660400390625,0.300933837890625,-0.7454833984375,0.18310546875,-0.18310546875,-0.244140625,0.452392578125,-0.7972412109375,0.4010009765625,-298.0,152.0,-147.0,101713.0,-3.2300002574920654,0,0
2.1736518000107026,0.381011962890625,-0.45660400390625,0.300933837890625,-0.7454833984375,0.18310546875,-0.18310546875,-0.244140625,0.452392578125,-0.7972412109375,0.4010009765625,-298.0,152.0,-147.0,101713.0,-3.2300002574920654,0,0
2.173720400009188,0.381011962890625,-0.45660400390625,0.300933837890625,-0.7454833984375,0.06103515625,-0.244140625,-0.06103515625,0.4512939453125,-0.7958984375,0.4014892578125,-298.0,152.0,-147.0,101713.0,-3.2300002574920654,0,0
2.173780600001919,0.381011962890625,-0.45660400390625,0.300933837890625,-0.7454833984375,-0.244140625,-0.30517578125,0.06103515625,0.448974609375,-0.797119140625,0.4022216796875,-298.0,152.0,-147.0,101713.0,-3.2300002574920654,0,0
2.1738404000061564,0.38104248046875,-0.456573486328125,0.300933837890625,-0.7454833984375,0.0,-0.1220703125,-0.1220703125,0.45068359375,-0.796630859375,0.402587890625,-298.0,152.0,-147.0,101713.0,-3.2300002574920654,0,0
2.173900300011155,0.38104248046875,-0.456573486328125,0.3009033203125,-0.7454833984375,0.244140625,-0.1220703125,-0.06103515625,0.4515380859375,-0.793212890625,0.4022216796875,-298.0,152.0,-147.0,101713.0,-3.2300002574920654,0,0
2.1739590000070166,0.38104248046875,-0.456573486328125,0.3009033203125,-0.7454833984375,-0.06103515625,-0.06103515625,0.0,0.4515380859375,-0.795166015625,0.4033203125,-298.0,152.0,-147.0,101713.0,-3.2300002574920654,0,0
2.236857300013071,0.38104248046875,-0.456573486328125,0.3009033203125,-0.7454833984375,0.18310546875,-0.18310546875,-0.06103515625,0.450439453125,-0.7955322265625,0.401611328125,-298.0,152.0,-147.0,101713.0,-3.2300002574920654,0,0
2.236924500000896,0.38104248046875,-0.456573486328125,0.3009033203125,-0.7454833984375,-0.1220703125,-0.244140625,-0.06103515625,0.4488525390625,-0.7943115234375,0.4027099609375,-298.0,152.0,-147.0,101713.0,-3.2300002574920654,0,0
2.236984200004372,0.38104248046875,-0.456573486328125,0.3009033203125,-0.7454833984375,0.06103515625,-0.1220703125,-0.30517578125,0.4488525390625,-0.7965087890625,0.403564453125,-298.0,152.0,-147.0,101713.0,-3.2300002574920654,0,0
2.237043300003279,0.38104248046875,-0.456573486328125,0.3009033203125,-0.7454833984375,0.06103515625,-0.1220703125,-0.30517578125,0.4488525390625,-0.7965087890625,0.403564453125,-298.0,152.0,-147.0,101713.0,-3.2300002574920654,0,0
2.2371840000123484,0.38104248046875,-0.456573486328125,0.3009033203125,-0.7454833984375,-0.1220703125,-0.18310546875,-0.06103515625,0.451171875,-0.7958984375,0.404052734375,-298.0,152.0,-147.0,101713.0,-3.2300002574920654,0,0
2.237238800007617,0.38104248046875,-0.456573486328125,0.3009033203125,-0.7454833984375,0.18310546875,-0.244140625,0.1220703125,0.4501953125,-0.794677734375,0.4022216796875,-298.0,152.0,-147.0,101713.0,-3.2300002574920654,0,0
2.2372935000021243,0.38104248046875,-0.45654296875,0.3009033203125,-0.7454833984375,0.06103515625,-0.244140625,-0.1220703125,0.450927734375,-0.7969970703125,0.40234375,-298.0,152.0,-147.0,101713.0,-3.2300002574920654,0,0
2.2374478000128875,0.38104248046875,-0.456573486328125,0.3009033203125,-0.7454833984375,0.06103515625,-0.244140625,-0.1220703125,0.4508056640625,-0.7950439453125,0.400634765625,-298.0,152.0,-147.0,101713.0,-3.2290000915527344,0,0
2.2375077000033343,0.380828857421875,-0.45648193359375,0.301025390625,-0.74560546875,0.06103515625,-0.244140625,-0.1220703125,0.4508056640625,-0.7950439453125,0.400634765625,-297.0,151.0,-147.0,101713.0,-3.2290000915527344,0,0
2.237563800008502,0.380828857421875,-0.45648193359375,0.301025390625,-0.74560546875,-0.3662109375,-0.42724609375,-0.30517578125,0.4501953125,-0.797607421875,0.4014892578125,-297.0,151.0,-147.0,101713.0,-3.2290000915527344,0,0
2.237620900006732,0.380828857421875,-0.45648193359375,0.301055908203125,-0.74560546875,0.244140625,-0.18310546875,-0.1220703125,0.450439453125,-0.7958984375,0.4010009765625,-297.0,151.0,-147.0,101713.0,-3.2290000915527344,0,0
2.237676200005808,0.380828857421875,-0.45648193359375,0.301025390625,-0.74560546875,-0.1220703125,-0.3662109375,-0.1220703125,0.4512939453125,-0.794921875,0.4027099609375,-297.0,151.0,-147.0,101713.0,-3.2290000915527344,0,0
2.237728899999638,0.380828857421875,-0.45648193359375,0.301025390625,-0.74560546875,0.3662109375,-0.18310546875,-0.06103515625,0.4520263671875,-0.7947998046875,0.4027099609375,-297.0,151.0,-147.0,101713.0,-3.2290000915527344,0,0
2.305850900011137,0.380859375,-0.456451416015625,0.301025390625,-0.74560546875,0.42724609375,-0.18310546875,0.0,0.4512939453125,-0.7952880859375,0.40283203125,-297.0,151.0,-147.0,101713.0,-3.2290000915527344,0,0
2.305917000005138,0.380828857421875,-0.456451416015625,0.301025390625,-0.74560546875,-0.1220703125,-0.06103515625,-0.06103515625,0.452392578125,-0.7945556640625,0.4027099609375,-297.0,151.0,-147.0,101713.0,-3.2290000915527344,0,0
2.3059739000018453,0.380828857421875,-0.456451416015625,0.301025390625,-0.74560546875,-0.1220703125,-0.06103515625,-0.06103515625,0.452392578125,-0.7945556640625,0.4027099609375,-297.0,151.0,-147.0,101713.0,-3.2290000915527344,0,0
2.3060293000016827,0.380828857421875,-0.456451416015625,0.301025390625,-0.74560546875,0.0,0.06103515625,-0.244140625,0.450439453125,-0.7969970703125,0.4031982421875,-297.0,151.0,-147.0,101713.0,-3.2290000915527344,0,0
2.3060839000099804,0.380859375,-0.456451416015625,0.301025390625,-0.74560546875,-0.1220703125,-0.244140625,-0.18310546875,0.44921875,-0.7957763671875,0.4027099609375,-297.0,151.0,-147.0,101713.0,-3.2290000915527344,0,0
2.3062174000078812,0.380859375,-0.456451416015625,0.301025390625,-0.74560546875,0.18310546875,-0.06103515625,-0.06103515625,0.448974609375,-0.7952880859375,0.403076171875,-297.0,151.0,-147.0,101713.0,-3.2290000915527344,0,0
2.306271300010849,0.380859375,-0.456451416015625,0.301025390625,-0.74560546875,0.1220703125,-0.1220703125,-0.18310546875,0.4503173828125,-0.7962646484375,0.4029541015625,-297.0,151.0,-147.0,101713.0,-3.2290000915527344,0,0
2.306322900010855,0.380859375,-0.456451416015625,0.301025390625,-0.74560546875,0.1220703125,-0.1220703125,-0.18310546875,0.4503173828125,-0.7962646484375,0.4029541015625,-297.0,151.0,-147.0,101713.0,-3.2290000915527344,0,0
2.3063742000085767,0.380859375,-0.456451416015625,0.301025390625,-0.74560546875,0.6103515625,0.0,-0.06103515625,0.451904296875,-0.79638671875,0.4027099609375,-297.0,151.0,-147.0,101713.0,-3.2290000915527344,0,0
2.3064286000007996,0.380859375,-0.4564208984375,0.301025390625,-0.74560546875,0.1220703125,-0.30517578125,-0.06103515625,0.4505615234375,-0.79638671875,0.403564453125,-297.0,151.0,-147.0,101713.0,-3.2290000915527344,0,0
2.306481400009943,0.380859375,-0.4564208984375,0.301025390625,-0.745635986328125,-0.244140625,-0.18310546875,-0.06103515625,0.4501953125,-0.7935791015625,0.4019775390625,-297.0,151.0,-147.0,101713.0,-3.2290000915527344,0,0
2.3642601000028662,0.380859375,-0.4564208984375,0.300994873046875,-0.745635986328125,0.1220703125,-0.1220703125,0.0,0.4490966796875,-0.796630859375,0.402099609375,-296.0,152.0,-146.0,101713.0,-3.2290000915527344,0,0
2.364384100001189,0.380859375,-0.4564208984375,0.300994873046875,-0.745635986328125,0.30517578125,-0.18310546875,0.0,0.451416015625,-0.7939453125,0.401611328125,-296.0,152.0,-146.0,101713.0,-3.2290000915527344,0,0
2.364499600007548,0.380859375,-0.4564208984375,0.300994873046875,-0.745635986328125,0.06103515625,-0.244140625,-0.1220703125,0.4495849609375,-0.797119140625,0.4024658203125,-296.0,152.0,-146.0,101713.0,-3.2290000915527344,0,0
2.3646106000087457,0.380859375,-0.4564208984375,0.300994873046875,-0.745635986328125,0.06103515625,-0.244140625,-0.1220703125,0.4495849609375,-0.797119140625,0.4024658203125,-296.0,152.0,-146.0,101713.0,-3.2290000915527344,0,0
2.3647203000000445,0.380859375,-0.4564208984375,0.300994873046875,-0.745635986328125,-0.1220703125,-0.3662109375,-0.1220703125,0.453125,-0.7945556640625,0.40283203125,-296.0,152.0,-146.0,101713.0,-3.2290000915527344,0,0
2.3648543000017526,0.380859375,-0.4564208984375,0.300994873046875,-0.745635986328125,0.1220703125,-0.18310546875,0.06103515625,0.4495849609375,-0.796142578125,0.4007568359375,-296.0,152.0,-146.0,101713.0,-3.2290000915527344,0,0
2.364971600007266,0.380859375,-0.4564208984375,0.300994873046875,-0.745635986328125,0.18310546875,-0.1220703125,-0.3662109375,0.44775390625,-0.79638671875,0.4031982421875,-296.0,152.0,-146.0,101713.0,-3.2290000915527344,0,0
2.3650794999994105,0.380859375,-0.456390380859375,0.300994873046875,-0.745635986328125,0.0,-0.244140625,-0.06103515625,0.448486328125,-0.7945556640625,0.402587890625,-296.0,152.0,-146.0,101713.0,-3.2290000915527344,0,0
2.365192700002808,0.380859375,-0.456390380859375,0.300994873046875,-0.745635986328125,0.0,0.06103515625,-0.1220703125,0.449951171875,-0.7962646484375,0.405029296875,-296.0,152.0,-146.0,101713.0,-3.2290000915527344,0,0
2.3655861000006553,0.380859375,-0.456390380859375,0.300994873046875,-0.745635986328125,0.0,-0.30517578125,0.0,0.4510498046875,-0.7960205078125,0.401123046875,-296.0,152.0,-146.0,101713.0,-3.2290000915527344,0,0
2.365680100003374,0.380859375,-0.456390380859375,0.300994873046875,-0.745635986328125,0.1220703125,-0.244140625,-0.06103515625,0.4501953125,-0.79638671875,0.4022216796875,-296.0,152.0,-146.0,101713.0,-3.2290000915527344,0,0
2.428290300013032,0.380859375,-0.456390380859375,0.300994873046875,-0.745635986328125,0.42724609375,-0.1220703125,0.0,0.451416015625,-0.794677734375,0.4022216796875,-296.0,152.0,-146.0,101713.0,-3.2290000915527344,0,0
2.428362400009064,0.380889892578125,-0.456390380859375,0.301025390625,-0.745635986328125,0.0,-0.244140625,-0.244140625,0.45166015625,-0.7955322265625,0.40185546875,-296.0,152.0,-146.0,101713.0,-3.2290000915527344,0,0
2.428421200005687,0.380889892578125,-0.456390380859375,0.301025390625,-0.745635986328125,0.0,-0.244140625,-0.244140625,0.45166015625,-0.7955322265625,0.40185546875,-296.0,152.0,-146.0,101713.0,-3.2290000915527344,0,0
2.4284773000108544,0.380889892578125,-0.456390380859375,0.301025390625,-0.745635986328125,0.18310546875,-0.06103515625,-0.1220703125,0.451171875,-0.796630859375,0.403564453125,-296.0,152.0,-146.0,101713.0,-3.2290000915527344,0,0
2.428532800011453,0.380889892578125,-0.456390380859375,0.300994873046875,-0.745635986328125,-0.244140625,-0.244140625,0.18310546875,0.4500732421875,-0.7945556640625,0.4027099609375,-296.0,152.0,-146.0,101713.0,-3.2290000915527344,0,0
2.4285895000066375,0.380889892578125,-0.456390380859375,0.300994873046875,-0.745635986328125,0.18310546875,-0.06103515625,0.0,0.4501953125,-0.794921875,0.4027099609375,-296.0,152.0,-146.0,101713.0,-3.2290000915527344,0,0
2.428645400010282,0.380889892578125,-0.456390380859375,0.300994873046875,-0.745635986328125,0.18310546875,-0.244140625,0.06103515625,0.4510498046875,-0.7955322265625,0.40234375,-296.0,152.0,-146.0,101713.0,-3.2290000915527344,0,0
2.42871500000183,0.380889892578125,-0.456390380859375,0.300994873046875,-0.745635986328125,-0.06103515625,-0.42724609375,0.1220703125,0.4510498046875,-0.796142578125,0.4031982421875,-296.0,152.0,-146.0,101713.0,-3.2290000915527344,0,0
2.4287728000053903,0.380889892578125,-0.456390380859375,0.300994873046875,-0.745635986328125,0.1220703125,0.06103515625,-0.06103515625,0.4510498046875,-0.7940673828125,0.4012451171875,-296.0,152.0,-146.0,101713.0,-3.2290000915527344,0,0
2.428832200006582,0.380889892578125,-0.456390380859375,0.300994873046875,-0.745635986328125,0.244140625,-0.30517578125,0.06103515625,0.4527587890625,-0.795166015625,0.403564453125,-296.0,152.0,-146.0,101713.0,-3.2290000915527344,0,0
2.428889100003289,0.380767822265625,-0.456329345703125,0.301055908203125,-0.745697021484375,0.06103515625,-0.18310546875,0.06103515625,0.451416015625,-0.7969970703125,0.4022216796875,-296.0,151.0,-147.0,101713.0,-3.2290000915527344,0,0
2.428943300008541,0.380767822265625,-0.456329345703125,0.301055908203125,-0.745697021484375,0.06103515625,-0.18310546875,0.06103515625,0.451416015625,-0.7969970703125,0.4022216796875,-296.0,151.0,-147.0,101713.0,-3.2290000915527344,0,0
2.428994900008547,0.380767822265625,-0.45635986328125,0.301055908203125,-0.745697021484375,0.0,-0.244140625,0.06103515625,0.4525146484375,-0.79541015625,0.4022216796875,-296.0,151.0,-147.0,101713.0,-3.2290000915527344,0,0
2.4995973000040976,0.380767822265625,-0.45635986328125,0.301025390625,-0.7457275390625,-0.1220703125,-0.3662109375,-0.1220703125,0.4525146484375,-0.79541015625,0.4041748046875,-296.0,151.0,-147.0,101713.0,-3.2290000915527344,0,0
2.4996608000074048,0.380767822265625,-0.45635986328125,0.301025390625,-0.7457275390625,-0.1220703125,-0.3662109375,-0.1220703125,0.4525146484375,-0.79541015625,0.4041748046875,-296.0,151.0,-147.0,101713.0,-3.2290000915527344,0,0
2.5007576000061817,0.380767822265625,-0.45635986328125,0.301025390625,-0.7457275390625,0.06103515625,0.0,0.06103515625,0.4508056640625,-0.7965087890625,0.4010009765625,-296.0,151.0,-147.0,101713.0,-3.2290000915527344,0,0
2.5008254000131274,0.380767822265625,-0.45635986328125,0.301025390625,-0.745697021484375,0.06103515625,0.0,0.06103515625,0.4508056640625,-0.7965087890625,0.4010009765625,-296.0,151.0,-147.0,101713.0,-3.2290000915527344,0,0
2.500885900008143,0.380767822265625,-0.45635986328125,0.301025390625,-0.745697021484375,0.0,-0.18310546875,0.3662109375,0.449462890625,-0.7958984375,0.4024658203125,-296.0,151.0,-147.0,101713.0,-3.2290000915527344,0,0
2.5010193000052823,0.380767822265625,-0.45635986328125,0.301025390625,-0.745697021484375,0.06103515625,0.06103515625,-0.244140625,0.4512939453125,-0.79638671875,0.4007568359375,-296.0,151.0,-147.0,101713.0,-3.2290000915527344,0,0
2.556392100013909,0.380767822265625,-0.45635986328125,0.301025390625,-0.745697021484375,0.0,-0.1220703125,0.06103515625,0.4515380859375,-0.795654296875,0.4024658203125,-296.0,151.0,-147.0,101713.0,-3.2290000915527344,0,0
2.5564541000057943,0.380767822265625,-0.45635986328125,0.301025390625,-0.7457275390625,0.0,-0.1220703125,0.06103515625,0.4515380859375,-0.795654296875,0.4024658203125,-296.0,151.0,-147.0,101713.0,-3.2290000915527344,0,0
2.55651090000174,0.380767822265625,-0.45635986328125,0.301025390625,-0.7457275390625,0.0,-0.1220703125,0.06103515625,0.4515380859375,-0.795654296875,0.4024658203125,-296.0,151.0,-147.0,101713.0,-3.2290000915527344,0,0
2.5565659000130836,0.380462646484375,-0.45623779296875,0.30120849609375,-0.745880126953125,0.0,-0.1220703125,-0.06103515625,0.452880859375,-0.7952880859375,0.40087890625,-295.0,151.0,-147.0,101713.0,-3.2290000915527344,0,0
2.556621700001415,0.380462646484375,-0.45623779296875,0.30120849609375,-0.745880126953125,0.3662109375,-0.1220703125,-0.1220703125,0.4490966796875,-0.79541015625,0.4024658203125,-295.0,151.0,-147.0,101713.0,-3.2290000915527344,0,0
2.5566930000059074,0.380462646484375,-0.45623779296875,0.30120849609375,-0.745880126953125,0.18310546875,-0.1220703125,0.1220703125,0.4503173828125,-0.7974853515625,0.4017333984375,-295.0,151.0,-147.0,101713.0,-3.2290000915527344,0,0
2.556750700008706,0.380462646484375,-0.45623779296875,0.30120849609375,-0.745880126953125,0.18310546875,-0.1220703125,-0.244140625,0.451904296875,-0.796142578125,0.4019775390625,-295.0,151.0,-147.0,101713.0,-3.2290000915527344,0,0
2.556804200008628,0.380462646484375,-0.45623779296875,0.30120849609375,-0.745880126953125,0.0,-0.244140625,-0.1220703125,0.4520263671875,-0.79541015625,0.4012451171875,-295.0,151.0,-147.0,101713.0,-3.2290000915527344,0,0
2.5568583000131184,0.380462646484375,-0.45623779296875,0.30120849609375,-0.745880126953125,0.06103515625,-0.18310546875,0.06103515625,0.450439453125,-0.7972412109375,0.4013671875,-295.0,151.0,-147.0,101713.0,-3.2290000915527344,0,0
2.5569149000075413,0.380462646484375,-0.45623779296875,0.30120849609375,-0.745849609375,-0.18310546875,-0.1220703125,0.0,0.449951171875,-0.795166015625,0.40185546875,-295.0,151.0,-147.0,101713.0,-3.2290000915527344,0,0
2.5569680000044173,0.380462646484375,-0.45623779296875,0.301239013671875,-0.745849609375,-0.06103515625,-0.30517578125,0.1220703125,0.4500732421875,-0.7962646484375,0.4007568359375,-295.0,151.0,-147.0,101713.0,-3.2290000915527344,0,0
2.557074600001215,0.380462646484375,-0.45623779296875,0.301239013671875,-0.745849609375,0.30517578125,-0.1220703125,-0.1220703125,0.451416015625,-0.79736328125,0.3994140625,-295.0,151.0,-147.0,101713.0,-3.2290000915527344,0,0
2.6237609000090742,0.380462646484375,-0.45623779296875,0.301239013671875,-0.745849609375,0.30517578125,-0.1220703125,-0.1220703125,0.451416015625,-0.79736328125,0.3994140625,-295.0,151.0,-147.0,101713.0,-3.2290000915527344,0,0
2.623828499999945,0.380462646484375,-0.45623779296875,0.301239013671875,-0.745849609375,-0.18310546875,-0.06103515625,0.1220703125,0.4501953125,-0.7950439453125,0.40087890625,-295.0,151.0,-147.0,101713.0,-3.2290000915527344,0,0
2.623887800000375,0.380462646484375,-0.45623779296875,0.301239013671875,-0.745849609375,0.244140625,0.18310546875,-0.244140625,0.4522705078125,-0.79541015625,0.4041748046875,-295.0,151.0,-147.0,101713.0,-3.2290000915527344,0,0
2.6239430000132415,0.380462646484375,-0.45623779296875,0.301239013671875,-0.745849609375,-0.1220703125,-0.244140625,-0.06103515625,0.4510498046875,-0.7962646484375,0.4014892578125,-295.0,151.0,-147.0,101713.0,-3.2290000915527344,0,0
2.6239979000092717,0.380462646484375,-0.45623779296875,0.301239013671875,-0.745849609375,0.0,-0.244140625,0.0,0.452880859375,-0.796630859375,0.4029541015625,-295.0,151.0,-147.0,101713.0,-3.2290000915527344,0,0
2.6240538000129163,0.380462646484375,-0.45623779296875,0.301239013671875,-0.745849609375,-0.30517578125,-0.18310546875,-0.244140625,0.452392578125,-0.79638671875,0.402099609375,-295.0,151.0,-147.0,101713.0,-3.2290000915527344,0,0
2.6241558000037912,0.380462646484375,-0.45623779296875,0.301239013671875,-0.745849609375,0.1220703125,-0.244140625,-0.06103515625,0.4490966796875,-0.794921875,0.401123046875,-295.0,151.0,-147.0,101713.0,-3.2290000915527344,0,0
2.624209700006759,0.380462646484375,-0.45623779296875,0.30120849609375,-0.745849609375,0.3662109375,0.0,0.0,0.451904296875,-0.7952880859375,0.4012451171875,-295.0,151.0,-147.0,101713.0,-3.2290000915527344,0,0
2.624264600002789,0.380462646484375,-0.45623779296875,0.30120849609375,-0.745849609375,-0.1220703125,-0.30517578125,-0.06103515625,0.451416015625,-0.7965087890625,0.40234375,-295.0,151.0,-147.0,101713.0,-3.2290000915527344,0,0
2.624319700000342,0.380462646484375,-0.45623779296875,0.30120849609375,-0.745849609375,-0.1220703125,-0.30517578125,-0.06103515625,0.451416015625,-0.7965087890625,0.40234375,-295.0,151.0,-147.0,101713.0,-3.2290000915527344,0,0
2.6243753000017023,0.380462646484375,-0.45623779296875,0.30120849609375,-0.745849609375,-0.06103515625,-0.3662109375,0.0,0.45263671875,-0.79638671875,0.4031982421875,-296.0,151.0,-148.0,101713.0,-3.2290000915527344,0,0
2.6244302000122843,0.380340576171875,-0.456207275390625,0.30126953125,-0.74591064453125,-0.06103515625,-0.244140625,0.1220703125,0.4530029296875,-0.795166015625,0.40185546875,-296.0,151.0,-148.0,101713.0,-3.2290000915527344,0,0
2.686473699999624,0.380340576171875,-0.456207275390625,0.301300048828125,-0.74591064453125,0.06103515625,-0.18310546875,-0.1220703125,0.4510498046875,-0.7962646484375,0.4013671875,-296.0,151.0,-148.0,101713.0,-3.2290000915527344,0,0
2.6865405999997165,0.380340576171875,-0.456207275390625,0.301300048828125,-0.74591064453125,0.06103515625,-0.244140625,0.0,0.45068359375,-0.79736328125,0.4010009765625,-296.0,151.0,-148.0,101713.0,-3.2290000915527344,0,0
2.686596700004884,0.380340576171875,-0.456207275390625,0.301300048828125,-0.74591064453125,-0.30517578125,-0.06103515625,-0.06103515625,0.4527587890625,-0.7989501953125,0.402099609375,-296.0,151.0,-148.0,101713.0,-3.2290000915527344,0,0
2.686653100012336,0.380340576171875,-0.456207275390625,0.301300048828125,-0.74591064453125,0.1220703125,-0.244140625,-0.18310546875,0.450439453125,-0.7943115234375,0.402587890625,-296.0,151.0,-148.0,101713.0,-3.2290000915527344,0,0
2.6867099000082817,0.38037109375,-0.456207275390625,0.301300048828125,-0.74591064453125,0.30517578125,-0.1220703125,-0.1220703125,0.4495849609375,-0.79541015625,0.4024658203125,-296.0,151.0,-148.0,101713.0,-3.2290000915527344,0,0
2.6869721000111895,0.38037109375,-0.456207275390625,0.301300048828125,-0.74591064453125,0.30517578125,-0.1220703125,-0.1220703125,0.4495849609375,-0.79541015625,0.4024658203125,-296.0,151.0,-148.0,101713.0,-3.2290000915527344,0,0
2.687026200001128,0.38037109375,-0.456207275390625,0.301300048828125,-0.74591064453125,0.18310546875,-0.18310546875,-0.18310546875,0.4500732421875,-0.79638671875,0.4007568359375,-296.0,151.0,-148.0,101713.0,-3.2290000915527344,0,0
2.687078400005703,0.38037109375,-0.456207275390625,0.301300048828125,-0.74591064453125,0.244140625,-0.1220703125,-0.244140625,0.4527587890625,-0.7952880859375,0.4022216796875,-296.0,151.0,-148.0,101713.0,-3.2290000915527344,0,0
2.6871345000108704,0.380340576171875,-0.456207275390625,0.301300048828125,-0.74591064453125,0.0,-0.30517578125,-0.1220703125,0.4495849609375,-0.7958984375,0.400634765625,-296.0,151.0,-148.0,101713.0,-3.2290000915527344,0,0
2.6871872000047006,0.380340576171875,-0.456207275390625,0.301300048828125,-0.74591064453125,0.1220703125,-0.244140625,0.1220703125,0.4520263671875,-0.7955322265625,0.4014892578125,-296.0,151.0,-148.0,101713.0,-3.2290000915527344,0,0
2.6872476000135066,0.380340576171875,-0.456207275390625,0.301300048828125,-0.74591064453125,0.244140625,-0.18310546875,-0.30517578125,0.4512939453125,-0.7955322265625,0.4010009765625,-296.0,151.0,-148.0,101713.0,-3.2290000915527344,0,0
2.687302600010298,0.380340576171875,-0.456207275390625,0.301300048828125,-0.74591064453125,0.06103515625,-0.244140625,-0.06103515625,0.450927734375,-0.7958984375,0.4014892578125,-296.0,151.0,-148.0,101713.0,-3.2290000915527344,0,0
2.7502935000084108,0.380340576171875,-0.456207275390625,0.301300048828125,-0.74591064453125,-0.06103515625,-0.244140625,-0.1220703125,0.451416015625,-0.79541015625,0.4010009765625,-296.0,151.0,-148.0,101713.0,-3.2290000915527344,0,0
2.750354800009518,0.380340576171875,-0.456207275390625,0.301300048828125,-0.74591064453125,-0.06103515625,-0.244140625,-0.1220703125,0.451416015625,-0.79541015625,0.4010009765625,-296.0,151.0,-148.0,101713.0,-3.2290000915527344,0,0
2.7504125000123167,0.380340576171875,-0.456207275390625,0.301300048828125,-0.74591064453125,0.244140625,-0.244140625,0.0,0.4520263671875,-0.7965087890625,0.403076171875,-296.0,151.0,-148.0,101713.0,-3.2290000915527344,0,0
2.7505131000070833,0.380340576171875,-0.456207275390625,0.301300048828125,-0.74591064453125,0.18310546875,-0.3662109375,0.06103515625,0.4520263671875,-0.7958984375,0.402587890625,-295.0,151.0,-148.0,101713.0,-3.2290000915527344,0,0
2.7505704000068363,0.380035400390625,-0.456085205078125,0.301483154296875,-0.746063232421875,0.1220703125,-0.06103515625,-0.18310546875,0.4501953125,-0.7947998046875,0.40087890625,-295.0,151.0,-148.0,101713.0,-3.2290000915527344,0,0
2.7507117000059225,0.380035400390625,-0.456085205078125,0.301483154296875,-0.746063232421875,-0.06103515625,-0.1220703125,0.0,0.4501953125,-0.7957763671875,0.3997802734375,-295.0,151.0,-148.0,101713.0,-3.2290000915527344,0,0
2.7507659000111744,0.380035400390625,-0.456085205078125,0.301483154296875,-0.746063232421875,0.0,-0.1220703125,-0.18310546875,0.4490966796875,-0.7940673828125,0.4017333984375,-295.0,151.0,-148.0,101713.0,-3.2290000915527344,0,0
2.7508173000096576,0.380035400390625,-0.456085205078125,0.301483154296875,-0.746063232421875,0.0,-0.1220703125,0.0,0.4505615234375,-0.796142578125,0.4017333984375,-295.0,151.0,-148.0,101713.0,-3.2290000915527344,0,0
2.750869400013471,0.380035400390625,-0.456085205078125,0.301483154296875,-0.746063232421875,-0.1220703125,-0.30517578125,-0.06103515625,0.44970703125,-0.795654296875,0.401123046875,-295.0,151.0,-148.0,101713.0,-3.2290000915527344,0,0
2.7509213000012096,0.380035400390625,-0.456085205078125,0.301483154296875,-0.746063232421875,0.06103515625,-0.1220703125,-0.244140625,0.45166015625,-0.79638671875,0.4013671875,-295.0,151.0,-148.0,101713.0,-3.2290000915527344,0,0
2.7509744000126375,0.380035400390625,-0.456085205078125,0.301483154296875,-0.746063232421875,0.0,-0.1220703125,-0.30517578125,0.453125,-0.796142578125,0.401123046875,-295.0,151.0,-148.0,101713.0,-3.2290000915527344,0,0
2.751026500001899,0.380035400390625,-0.456085205078125,0.301483154296875,-0.746063232421875,0.0,-0.1220703125,-0.30517578125,0.453125,-0.796142578125,0.401123046875,-295.0,151.0,-148.0,101713.0,-3.2290000915527344,0,0
2.8138850000104867,0.380035400390625,-0.456085205078125,0.301483154296875,-0.746063232421875,0.18310546875,-0.244140625,0.0,0.449462890625,-0.794677734375,0.40185546875,-295.0,151.0,-148.0,101713.0,-3.2290000915527344,0,0
2.8139480000099866,0.380035400390625,-0.456085205078125,0.301483154296875,-0.746063232421875,0.0,-0.244140625,-0.1220703125,0.4498291015625,-0.7950439453125,0.4022216796875,-295.0,151.0,-148.0,101713.0,-3.2290000915527344,0,0
2.814003900013631,0.380035400390625,-0.456085205078125,0.301483154296875,-0.746063232421875,0.244140625,-0.18310546875,-0.1220703125,0.45068359375,-0.7958984375,0.403564453125,-295.0,151.0,-148.0,101713.0,-3.2320001125335693,0,0
2.8140582000050927,0.380035400390625,-0.456085205078125,0.301483154296875,-0.746063232421875,0.30517578125,-0.18310546875,-0.244140625,0.451416015625,-0.7969970703125,0.4027099609375,-295.0,151.0,-148.0,101713.0,-3.2320001125335693,0,0
2.8141122000088217,0.380035400390625,-0.456085205078125,0.301483154296875,-0.746063232421875,0.244140625,-0.1220703125,0.18310546875,0.450439453125,-0.79541015625,0.400390625,-295.0,151.0,-148.0,101713.0,-3.2320001125335693,0,0
2.8141661000117892,0.380035400390625,-0.456085205078125,0.301483154296875,-0.746063232421875,0.0,0.0,-0.1220703125,0.45166015625,-0.7962646484375,0.4012451171875,-295.0,151.0,-148.0,101713.0,-3.2320001125335693,0,0
2.814567300010822,0.380035400390625,-0.456085205078125,0.301483154296875,-0.746063232421875,-0.18310546875,-0.06103515625,-0.18310546875,0.4501953125,-0.7965087890625,0.4022216796875,-295.0,151.0,-148.0,101713.0,-3.2320001125335693,0,0
2.81463020000956,0.380035400390625,-0.456085205078125,0.301513671875,-0.746063232421875,0.1220703125,-0.30517578125,-0.06103515625,0.4525146484375,-0.796875,0.4036865234375,-295.0,151.0,-148.0,101713.0,-3.2320001125335693,0,0
2.8146875000093132,0.380035400390625,-0.456085205078125,0.301513671875,-0.746063232421875,0.1220703125,-0.30517578125,-0.06103515625,0.4525146484375,-0.796875,0.4036865234375,-295.0,151.0,-148.0,101713.0,-3.2320001125335693,0,0
2.8147440000029746,0.380035400390625,-0.456085205078125,0.301513671875,-0.746063232421875,0.18310546875,0.0,-0.1220703125,0.4510498046875,-0.794677734375,0.4010009765625,-295.0,151.0,-148.0,101713.0,-3.2320001125335693,0,0
2.814799200001289,0.38006591796875,-0.456085205078125,0.301513671875,-0.746063232421875,0.1220703125,-0.06103515625,0.18310546875,0.4503173828125,-0.79736328125,0.4033203125,-295.0,151.0,-148.0,101713.0,-3.2320001125335693,0,0
2.8148562000133097,0.38006591796875,-0.456085205078125,0.301483154296875,-0.746063232421875,0.244140625,-0.1220703125,-0.06103515625,0.45263671875,-0.796875,0.4024658203125,-295.0,151.0,-148.0,101713.0,-3.2320001125335693,0,0
2.8789517000113847,0.37994384765625,-0.4560546875,0.30157470703125,-0.74609375,0.06103515625,-0.244140625,0.06103515625,0.4508056640625,-0.7952880859375,0.39990234375,-295.0,152.0,-148.0,101713.0,-3.2320001125335693,0,0
2.879013000012492,0.37994384765625,-0.4560546875,0.30157470703125,-0.74609375,0.0,-0.244140625,-0.06103515625,0.45166015625,-0.7965087890625,0.401611328125,-295.0,152.0,-148.0,101713.0,-3.2320001125335693,0,0
2.879068400012329,0.37994384765625,-0.456024169921875,0.30157470703125,-0.74609375,-0.3662109375,-0.244140625,0.0,0.449951171875,-0.7965087890625,0.4007568359375,-295.0,152.0,-148.0,101713.0,-3.2320001125335693,0,0
2.879125000006752,0.37994384765625,-0.4560546875,0.30157470703125,-0.74609375,0.0,-0.244140625,-0.06103515625,0.4527587890625,-0.79638671875,0.40234375,-295.0,152.0,-148.0,101713.0,-3.2320001125335693,0,0
2.8791791000112426,0.37994384765625,-0.4560546875,0.30157470703125,-0.74609375,0.0,-0.244140625,-0.06103515625,0.4527587890625,-0.79638671875,0.40234375,-295.0,152.0,-148.0,101713.0,-3.2320001125335693,0,0
2.879288300013286,0.37994384765625,-0.4560546875,0.301544189453125,-0.74609375,-0.18310546875,-0.30517578125,-0.42724609375,0.453125,-0.796875,0.401123046875,-295.0,152.0,-148.0,101713.0,-3.2320001125335693,0,0
2.8793472000106703,0.37994384765625,-0.4560546875,0.301544189453125,-0.74609375,0.0,0.0,-0.06103515625,0.45166015625,-0.794677734375,0.401611328125,-295.0,152.0,-148.0,101713.0,-3.2320001125335693,0,0
2.8794016000028932,0.37994384765625,-0.4560546875,0.301544189453125,-0.74609375,0.06103515625,-0.244140625,-0.06103515625,0.4510498046875,-0.7950439453125,0.4002685546875,-295.0,152.0,-148.0,101713.0,-3.2320001125335693,0,0
2.879457100003492,0.37994384765625,-0.4560546875,0.301544189453125,-0.74609375,-0.18310546875,-0.1220703125,-0.244140625,0.452392578125,-0.796875,0.4013671875,-295.0,152.0,-148.0,101713.0,-3.2320001125335693,0,0
2.8795110000064597,0.37994384765625,-0.4560546875,0.301544189453125,-0.74609375,0.1220703125,-0.1220703125,-0.06103515625,0.4512939453125,-0.7958984375,0.401611328125,-295.0,152.0,-148.0,101713.0,-3.2320001125335693,0,0
