Time stamp(sec),quaternion_0,quaternion_1,quaternion_2,quaternion_3,roll_angular_rate,pitch_angular_rate,yaw_angular_rate,acc_X,acc_Y,acc_Z,mag_X,mag_Y,mag_Z,pressure,altitude
82.016996,0.003204345703125,0.672637939453125,0.739471435546875,0.02655029296875,0.0,0.0,0.3662109375,0.0284423828125,0.0426025390625,-1.0128173828125,225.0,115.0,-91.0,101446.0,-1.0080000162124634,0,0
82.023995,0.003204345703125,0.672637939453125,0.739471435546875,0.026519775390625,-0.18310546875,-0.06103515625,-0.06103515625,0.0291748046875,0.0411376953125,-1.012939453125,225.0,115.0,-91.0,101446.0,-1.0080000162124634,0,0
82.030994,0.003204345703125,0.672637939453125,0.739471435546875,0.026519775390625,0.0,0.1220703125,0.18310546875,0.030029296875,0.042236328125,-1.0123291015625,225.0,115.0,-91.0,101446.0,-1.0080000162124634,0,0
82.037998,0.003204345703125,0.672637939453125,0.739471435546875,0.0264892578125,0.1220703125,0.06103515625,-0.1220703125,0.0296630859375,0.043701171875,-1.0137939453125,225.0,115.0,-91.0,101444.0,-0.9960000514984131,0,0
82.044998,0.003204345703125,0.672637939453125,0.739471435546875,0.026458740234375,-0.18310546875,-0.1220703125,0.18310546875,0.0272216796875,0.04150390625,-1.0126953125,225.0,115.0,-91.0,101444.0,-0.9960000514984131,0,0
82.051997,0.003204345703125,0.672637939453125,0.739471435546875,0.026458740234375,-0.42724609375,-0.30517578125,-0.06103515625,0.02978515625,0.0433349609375,-1.0140380859375,225.0,115.0,-91.0,101444.0,-0.9960000514984131,0,0
82.058996,0.003204345703125,0.672637939453125,0.739471435546875,0.026458740234375,-0.42724609375,0.244140625,0.18310546875,0.02880859375,0.042724609375,-1.0145263671875,225.0,115.0,-91.0,101444.0,-0.9960000514984131,0,0
82.065996,0.00323486328125,0.672637939453125,0.739471435546875,0.02642822265625,0.0,-0.1220703125,0.1220703125,0.0299072265625,0.0430908203125,-1.01220703125,225.0,115.0,-91.0,101444.0,-0.9960000514984131,0,0
82.072995,0.00323486328125,0.672637939453125,0.739471435546875,0.02642822265625,0.48828125,0.18310546875,0.42724609375,0.0302734375,0.04052734375,-1.0101318359375,225.0,115.0,-91.0,101444.0,-0.9960000514984131,0,0
82.079996,0.00323486328125,0.672637939453125,0.739471435546875,0.02642822265625,-0.732421875,-0.244140625,0.06103515625,0.031494140625,0.0439453125,-1.0137939453125,225.0,115.0,-91.0,101444.0,-0.9960000514984131,0,0
82.086027,0.00323486328125,0.672637939453125,0.739471435546875,0.02642822265625,-0.732421875,-0.244140625,0.06103515625,0.031494140625,0.0439453125,-1.0137939453125,225.0,115.0,-91.0,101444.0,-0.9960000514984131,0,0
82.106996,0.003021240234375,0.665985107421875,0.745452880859375,0.026397705078125,-0.06103515625,0.18310546875,-0.06103515625,0.0283203125,0.043212890625,-1.0120849609375,232.0,113.0,-96.0,101444.0,-0.9960000514984131,0,0
82.113995,0.003021240234375,0.665985107421875,0.745452880859375,0.026397705078125,-0.244140625,0.06103515625,0.0,0.027099609375,0.0435791015625,-1.0147705078125,232.0,113.0,-96.0,101444.0,-0.9960000514984131,0,0
82.120994,0.0030517578125,0.665985107421875,0.745452880859375,0.0263671875,-0.06103515625,0.0,-0.18310546875,0.0279541015625,0.0418701171875,-1.012451171875,232.0,113.0,-96.0,101444.0,-0.9960000514984131,0,0
82.127998,0.003082275390625,0.665985107421875,0.745452880859375,0.0263671875,-0.06103515625,-0.1220703125,0.1220703125,0.029296875,0.044189453125,-1.013916015625,232.0,113.0,-96.0,101444.0,-0.9960000514984131,0,0
82.134998,0.003082275390625,0.665985107421875,0.745452880859375,0.0263671875,0.06103515625,0.06103515625,0.30517578125,0.025390625,0.0433349609375,-1.0133056640625,232.0,113.0,-96.0,101444.0,-0.9960000514984131,0,0
82.141997,0.003082275390625,0.665985107421875,0.745452880859375,0.026336669921875,-0.06103515625,0.18310546875,-0.06103515625,0.02734375,0.0458984375,-1.013671875,232.0,113.0,-96.0,101446.0,-1.0080000162124634,0,0
82.148996,0.00311279296875,0.665985107421875,0.745452880859375,0.026336669921875,0.3662109375,0.06103515625,0.30517578125,0.0264892578125,0.0440673828125,-1.01318359375,232.0,113.0,-96.0,101446.0,-1.0080000162124634,0,0
82.155996,0.00311279296875,0.665985107421875,0.745452880859375,0.02630615234375,-0.244140625,0.0,0.1220703125,0.029296875,0.0445556640625,-1.014892578125,232.0,113.0,-96.0,101446.0,-1.0080000162124634,0,0
82.162995,0.00311279296875,0.665985107421875,0.745452880859375,0.02630615234375,-0.1220703125,0.0,0.18310546875,0.0284423828125,0.0439453125,-1.0157470703125,232.0,113.0,-96.0,101446.0,-1.0080000162124634,0,0
82.17,0.00311279296875,0.665985107421875,0.745452880859375,0.02630615234375,-0.1220703125,-0.06103515625,0.1220703125,0.0303955078125,0.04052734375,-1.014404296875,232.0,113.0,-96.0,101446.0,-1.0080000162124634,0,0
82.176999,0.00311279296875,0.665985107421875,0.745452880859375,0.026275634765625,-0.06103515625,-0.06103515625,0.0,0.029541015625,0.0445556640625,-1.0164794921875,232.0,113.0,-96.0,101446.0,-1.0080000162124634,0,0
82.183032,0.00311279296875,0.665985107421875,0.745452880859375,0.026275634765625,-0.06103515625,-0.06103515625,0.0,0.029541015625,0.0445556640625,-1.0164794921875,232.0,113.0,-96.0,101446.0,-1.0080000162124634,0,0
82.189996,0.00311279296875,0.665985107421875,0.745452880859375,0.026275634765625,-0.06103515625,0.0,-0.06103515625,0.03173828125,0.0419921875,-1.01611328125,232.0,113.0,-96.0,101446.0,-1.0080000162124634,0,0
82.197,0.00286865234375,0.659881591796875,0.750885009765625,0.026275634765625,-0.18310546875,0.244140625,0.0,0.02978515625,0.041015625,-1.012939453125,237.0,111.0,-101.0,101446.0,-1.0080000162124634,0,0
82.203999,0.002899169921875,0.659881591796875,0.750885009765625,0.026275634765625,-0.1220703125,0.0,0.244140625,0.02880859375,0.0433349609375,-1.0128173828125,237.0,111.0,-101.0,101446.0,-1.0080000162124634,0,0
82.210999,0.00286865234375,0.659881591796875,0.750885009765625,0.026275634765625,-0.18310546875,0.18310546875,-0.18310546875,0.02978515625,0.0430908203125,-1.0133056640625,237.0,111.0,-101.0,101446.0,-1.0080000162124634,0,0
82.217998,0.002899169921875,0.659881591796875,0.750885009765625,0.0262451171875,-0.18310546875,0.18310546875,-0.1220703125,0.0296630859375,0.0435791015625,-1.0146484375,237.0,111.0,-101.0,101446.0,-1.0080000162124634,0,0
82.224998,0.002899169921875,0.659881591796875,0.750885009765625,0.0262451171875,0.0,0.06103515625,0.0,0.0286865234375,0.0423583984375,-1.01220703125,237.0,111.0,-101.0,101446.0,-1.0080000162124634,0,0
82.231997,0.002899169921875,0.659881591796875,0.750885009765625,0.026214599609375,0.0,-0.1220703125,-0.06103515625,0.02734375,0.0439453125,-1.01513671875,237.0,111.0,-101.0,101446.0,-1.0080000162124634,0,0
82.238996,0.002899169921875,0.659881591796875,0.750885009765625,0.026214599609375,0.0,0.18310546875,-0.18310546875,0.02880859375,0.0421142578125,-1.0142822265625,237.0,111.0,-101.0,101446.0,-1.0080000162124634,0,0
82.245996,0.0029296875,0.659881591796875,0.750885009765625,0.026214599609375,0.0,0.1220703125,0.06103515625,0.0274658203125,0.044677734375,-1.01513671875,237.0,111.0,-101.0,101445.0,-0.999000072479248,0,0
82.252996,0.002899169921875,0.659881591796875,0.750885009765625,0.02618408203125,-0.244140625,0.0,0.06103515625,0.02880859375,0.046630859375,-1.0152587890625,237.0,111.0,-101.0,101445.0,-0.999000072479248,0,0
82.259996,0.0029296875,0.659881591796875,0.750885009765625,0.02618408203125,0.1220703125,0.30517578125,-0.06103515625,0.027587890625,0.044677734375,-1.0152587890625,237.0,111.0,-101.0,101445.0,-0.999000072479248,0,0
82.279995,0.0029296875,0.659881591796875,0.750885009765625,0.026153564453125,0.1220703125,0.06103515625,-0.06103515625,0.0301513671875,0.0426025390625,-1.016845703125,237.0,111.0,-101.0,101445.0,-0.999000072479248,0,0
82.286996,0.0029296875,0.659881591796875,0.750885009765625,0.026123046875,0.0,-0.06103515625,0.06103515625,0.0296630859375,0.0435791015625,-1.0145263671875,237.0,111.0,-101.0,101445.0,-0.999000072479248,0,0
82.293995,0.0029296875,0.659881591796875,0.750885009765625,0.026123046875,0.18310546875,0.06103515625,-0.1220703125,0.026611328125,0.0411376953125,-1.015380859375,242.0,106.0,-104.0,101445.0,-0.999000072479248,0,0
82.300994,0.00274658203125,0.654541015625,0.75555419921875,0.026123046875,0.06103515625,0.0,-0.30517578125,0.0302734375,0.0418701171875,-1.0140380859375,242.0,106.0,-104.0,101445.0,-0.999000072479248,0,0
82.307998,0.00274658203125,0.654541015625,0.75555419921875,0.026123046875,-0.18310546875,0.06103515625,0.0,0.027587890625,0.0428466796875,-1.0146484375,242.0,106.0,-104.0,101445.0,-0.999000072479248,0,0
82.314998,0.002777099609375,0.654541015625,0.75555419921875,0.026123046875,0.1220703125,0.244140625,0.244140625,0.0289306640625,0.045654296875,-1.0152587890625,242.0,106.0,-104.0,101445.0,-0.999000072479248,0,0
82.321997,0.002777099609375,0.654541015625,0.75555419921875,0.026123046875,0.1220703125,0.18310546875,0.30517578125,0.0306396484375,0.042236328125,-1.01513671875,242.0,106.0,-104.0,101445.0,-0.999000072479248,0,0
82.328996,0.002777099609375,0.654541015625,0.75555419921875,0.026123046875,0.18310546875,-0.1220703125,-0.1220703125,0.03076171875,0.0438232421875,-1.0152587890625,242.0,106.0,-104.0,101445.0,-0.999000072479248,0,0
82.335996,0.002777099609375,0.654541015625,0.75555419921875,0.026092529296875,0.0,0.18310546875,-0.06103515625,0.0291748046875,0.0433349609375,-1.0150146484375,242.0,106.0,-104.0,101445.0,-0.999000072479248,0,0
82.342995,0.002777099609375,0.654541015625,0.75555419921875,0.026092529296875,0.18310546875,0.0,-0.1220703125,0.027099609375,0.0445556640625,-1.01708984375,242.0,106.0,-104.0,101446.0,-1.0070000886917114,0,0
82.349996,0.0028076171875,0.654541015625,0.75555419921875,0.026092529296875,0.06103515625,-0.06103515625,0.18310546875,0.0264892578125,0.0438232421875,-1.0135498046875,242.0,106.0,-104.0,101446.0,-1.0070000886917114,0,0
82.370026,0.0028076171875,0.654541015625,0.75555419921875,0.02606201171875,0.1220703125,0.3662109375,-0.06103515625,0.0274658203125,0.0450439453125,-1.01611328125,242.0,106.0,-104.0,101446.0,-1.0070000886917114,0,0
82.376996,0.002838134765625,0.654541015625,0.75555419921875,0.026031494140625,0.18310546875,0.06103515625,-0.3662109375,0.028564453125,0.04052734375,-1.0152587890625,242.0,106.0,-104.0,101446.0,-1.0070000886917114,0,0
82.383995,0.002838134765625,0.654541015625,0.75555419921875,0.026031494140625,-0.18310546875,0.0,-0.06103515625,0.02734375,0.0458984375,-1.0140380859375,242.0,106.0,-104.0,101446.0,-1.0070000886917114,0,0
82.390994,0.00286865234375,0.654541015625,0.75555419921875,0.026031494140625,0.0,-0.1220703125,0.06103515625,0.0267333984375,0.04345703125,-1.01611328125,242.0,106.0,-104.0,101446.0,-1.0070000886917114,0,0
82.397998,0.002685546875,0.64984130859375,0.759613037109375,0.026031494140625,0.0,-0.06103515625,0.0,0.0279541015625,0.04150390625,-1.0155029296875,246.0,102.0,-108.0,101446.0,-1.0070000886917114,0,0
82.404998,0.002716064453125,0.64984130859375,0.759613037109375,0.026031494140625,-0.06103515625,0.30517578125,0.06103515625,0.0296630859375,0.0452880859375,-1.0164794921875,246.0,102.0,-108.0,101446.0,-1.0070000886917114,0,0
82.411997,0.002685546875,0.64984130859375,0.759613037109375,0.0260009765625,-0.18310546875,-0.06103515625,-0.06103515625,0.0313720703125,0.04248046875,-1.014892578125,246.0,102.0,-108.0,101446.0,-1.0070000886917114,0,0
82.418996,0.002685546875,0.64984130859375,0.759613037109375,0.026031494140625,-0.1220703125,0.244140625,0.06103515625,0.03173828125,0.04296875,-1.012939453125,246.0,102.0,-108.0,101446.0,-1.0070000886917114,0,0
82.425996,0.002685546875,0.64984130859375,0.759613037109375,0.0260009765625,-0.30517578125,0.18310546875,0.42724609375,0.0294189453125,0.043212890625,-1.0155029296875,246.0,102.0,-108.0,101446.0,-1.0070000886917114,0,0
82.432995,0.002685546875,0.64984130859375,0.759613037109375,0.0260009765625,-0.244140625,-0.18310546875,0.1220703125,0.0306396484375,0.04296875,-1.015625,246.0,102.0,-108.0,101446.0,-1.0070000886917114,0,0
82.439996,0.002685546875,0.64984130859375,0.759613037109375,0.0260009765625,0.06103515625,-0.06103515625,0.18310546875,0.0286865234375,0.0457763671875,-1.0150146484375,246.0,102.0,-108.0,101445.0,-1.0,0,0
82.446995,0.002685546875,0.64984130859375,0.759613037109375,0.0260009765625,-0.244140625,0.1220703125,0.1220703125,0.029052734375,0.043212890625,-1.013671875,246.0,102.0,-108.0,101445.0,-1.0,0,0
82.453994,0.002685546875,0.64984130859375,0.759613037109375,0.025970458984375,0.6103515625,0.06103515625,0.1220703125,0.0296630859375,0.0445556640625,-1.0146484375,246.0,102.0,-108.0,101445.0,-1.0,0,0
82.460026,0.002685546875,0.64984130859375,0.759613037109375,0.025970458984375,0.6103515625,0.06103515625,0.1220703125,0.0296630859375,0.0445556640625,-1.0146484375,246.0,102.0,-108.0,101445.0,-1.0,0,0
82.467,0.002685546875,0.64984130859375,0.759613037109375,0.025970458984375,-0.18310546875,0.0,0.06103515625,0.0284423828125,0.043701171875,-1.0155029296875,246.0,102.0,-108.0,101445.0,-1.0,0,0
82.473999,0.002716064453125,0.64984130859375,0.759613037109375,0.02593994140625,-0.06103515625,0.244140625,-0.18310546875,0.0286865234375,0.0439453125,-1.015869140625,246.0,102.0,-108.0,101445.0,-1.0,0,0
82.480999,0.002716064453125,0.64984130859375,0.759613037109375,0.02593994140625,0.06103515625,0.0,0.244140625,0.0284423828125,0.0439453125,-1.01611328125,246.0,102.0,-108.0,101445.0,-1.0,0,0
82.487998,0.002716064453125,0.64984130859375,0.759613037109375,0.02593994140625,-0.42724609375,-0.244140625,-0.18310546875,0.026123046875,0.0433349609375,-1.0155029296875,246.0,102.0,-108.0,101445.0,-1.0,0,0
82.494998,0.002716064453125,0.64984130859375,0.759613037109375,0.02593994140625,0.06103515625,0.06103515625,-0.1220703125,0.02783203125,0.0430908203125,-1.015625,248.0,100.0,-110.0,101445.0,-1.0,0,0
82.501997,0.002593994140625,0.645477294921875,0.7633056640625,0.02593994140625,0.1220703125,-0.06103515625,0.1220703125,0.026123046875,0.04443359375,-1.0152587890625,248.0,100.0,-110.0,101445.0,-1.0,0,0
82.508996,0.002593994140625,0.645477294921875,0.7633056640625,0.02593994140625,0.06103515625,0.244140625,0.0,0.026611328125,0.0443115234375,-1.0146484375,248.0,100.0,-110.0,101445.0,-1.0,0,0
82.515996,0.002593994140625,0.645477294921875,0.7633056640625,0.02593994140625,-0.244140625,0.0,0.06103515625,0.030029296875,0.0438232421875,-1.0166015625,248.0,100.0,-110.0,101445.0,-1.0,0,0
82.522996,0.002593994140625,0.645477294921875,0.7633056640625,0.02593994140625,0.06103515625,0.1220703125,0.0,0.03173828125,0.041259765625,-1.0152587890625,248.0,100.0,-110.0,101445.0,-1.0,0,0
82.543999,0.0025634765625,0.645477294921875,0.7633056640625,0.02587890625,0.6103515625,0.0,-0.06103515625,0.030029296875,0.041748046875,-1.015869140625,248.0,100.0,-110.0,101446.0,-1.0070000886917114,0,0
82.550998,0.0025634765625,0.645477294921875,0.7633056640625,0.025848388671875,-0.18310546875,0.0,0.0,0.0291748046875,0.0416259765625,-1.0147705078125,248.0,100.0,-110.0,101446.0,-1.0070000886917114,0,0
82.557026,0.0025634765625,0.645477294921875,0.7633056640625,0.025848388671875,-0.18310546875,0.0,0.0,0.0291748046875,0.0416259765625,-1.0147705078125,248.0,100.0,-110.0,101446.0,-1.0070000886917114,0,0
82.563995,0.002532958984375,0.645477294921875,0.7633056640625,0.02581787109375,0.8544921875,0.1220703125,0.1220703125,0.0286865234375,0.044921875,-1.0164794921875,248.0,100.0,-110.0,101446.0,-1.0070000886917114,0,0
82.570994,0.0025634765625,0.645477294921875,0.7633056640625,0.02581787109375,0.42724609375,0.06103515625,0.244140625,0.0283203125,0.0438232421875,-1.0142822265625,248.0,100.0,-110.0,101446.0,-1.0070000886917114,0,0
82.577998,0.0025634765625,0.645477294921875,0.7633056640625,0.02581787109375,-0.06103515625,0.18310546875,0.30517578125,0.026611328125,0.0452880859375,-1.017578125,248.0,100.0,-110.0,101446.0,-1.0070000886917114,0,0
82.584998,0.0025634765625,0.645477294921875,0.7633056640625,0.025787353515625,0.244140625,0.1220703125,-0.06103515625,0.0299072265625,0.042724609375,-1.01611328125,248.0,100.0,-110.0,101446.0,-1.0070000886917114,0,0
82.591997,0.0025634765625,0.645477294921875,0.7633056640625,0.025787353515625,-0.54931640625,0.3662109375,0.0,0.0289306640625,0.04345703125,-1.017333984375,248.0,100.0,-110.0,101446.0,-1.0070000886917114,0,0
82.598996,0.00244140625,0.641510009765625,0.766632080078125,0.02581787109375,-0.1220703125,0.30517578125,0.06103515625,0.0289306640625,0.0430908203125,-1.016357421875,249.0,99.0,-109.0,101446.0,-1.0070000886917114,0,0
82.605996,0.00244140625,0.641510009765625,0.766632080078125,0.02581787109375,0.1220703125,0.244140625,-0.30517578125,0.031982421875,0.04296875,-1.0137939453125,249.0,99.0,-109.0,101446.0,-1.0070000886917114,0,0
82.626995,0.00244140625,0.641510009765625,0.766632080078125,0.025787353515625,0.0,0.1220703125,0.48828125,0.0274658203125,0.0428466796875,-1.0147705078125,249.0,99.0,-109.0,101446.0,-1.0070000886917114,0,0
82.633994,0.00244140625,0.641510009765625,0.766632080078125,0.025787353515625,0.06103515625,0.18310546875,0.1220703125,0.0291748046875,0.0423583984375,-1.01953125,249.0,99.0,-109.0,101446.0,-1.0070000886917114,0,0
82.640998,0.00244140625,0.641510009765625,0.76666259765625,0.025787353515625,0.0,0.06103515625,-0.06103515625,0.0289306640625,0.044921875,-1.0162353515625,249.0,99.0,-109.0,101446.0,-1.0070000886917114,0,0
82.647026,0.00244140625,0.641510009765625,0.76666259765625,0.025787353515625,0.0,0.06103515625,-0.06103515625,0.0289306640625,0.044921875,-1.0162353515625,249.0,99.0,-109.0,101446.0,-1.0070000886917114,0,0
82.653995,0.00244140625,0.641510009765625,0.76666259765625,0.0257568359375,0.0,-0.06103515625,-0.18310546875,0.030029296875,0.0419921875,-1.014892578125,249.0,99.0,-109.0,101446.0,-1.0070000886917114,0,0
82.660994,0.002471923828125,0.641510009765625,0.76666259765625,0.0257568359375,0.1220703125,0.06103515625,0.0,0.0267333984375,0.044921875,-1.0150146484375,249.0,99.0,-109.0,101446.0,-1.0070000886917114,0,0
82.667998,0.002471923828125,0.641510009765625,0.76666259765625,0.0257568359375,-0.244140625,0.30517578125,0.3662109375,0.02587890625,0.0445556640625,-1.0157470703125,249.0,99.0,-109.0,101446.0,-1.0070000886917114,0,0
82.674998,0.00250244140625,0.641510009765625,0.76666259765625,0.0257568359375,0.48828125,0.06103515625,0.1220703125,0.028564453125,0.0479736328125,-1.015380859375,249.0,99.0,-109.0,101446.0,-1.0070000886917114,0,0
82.681997,0.00250244140625,0.641510009765625,0.76666259765625,0.0257568359375,-0.06103515625,0.0,0.18310546875,0.0283203125,0.0421142578125,-1.0164794921875,249.0,99.0,-109.0,101446.0,-1.0070000886917114,0,0
82.688996,0.00250244140625,0.641510009765625,0.76666259765625,0.0257568359375,0.30517578125,0.18310546875,-0.06103515625,0.0291748046875,0.04150390625,-1.015869140625,249.0,99.0,-109.0,101446.0,-1.0070000886917114,0,0
82.695996,0.00250244140625,0.641510009765625,0.76666259765625,0.025726318359375,-0.244140625,-0.06103515625,-0.06103515625,0.028076171875,0.0426025390625,-1.017822265625,250.0,98.0,-109.0,101445.0,-1.003000020980835,0,0
82.702995,0.00238037109375,0.6378173828125,0.76971435546875,0.025726318359375,0.06103515625,0.244140625,-0.18310546875,0.0279541015625,0.044189453125,-1.0155029296875,250.0,98.0,-109.0,101445.0,-1.003000020980835,0,0
82.709996,0.00238037109375,0.6378173828125,0.76971435546875,0.025726318359375,0.1220703125,0.0,0.0,0.0299072265625,0.0391845703125,-1.0167236328125,250.0,98.0,-109.0,101445.0,-1.003000020980835,0,0
82.716995,0.002349853515625,0.6378173828125,0.76971435546875,0.025726318359375,-0.3662109375,-0.06103515625,0.1220703125,0.0296630859375,0.041015625,-1.013916015625,250.0,98.0,-109.0,101445.0,-1.003000020980835,0,0
82.723994,0.002349853515625,0.6378173828125,0.76971435546875,0.025726318359375,0.1220703125,-0.18310546875,-0.06103515625,0.0302734375,0.042724609375,-1.0166015625,250.0,98.0,-109.0,101445.0,-1.003000020980835,0,0
82.730998,0.002349853515625,0.6378173828125,0.76971435546875,0.025726318359375,0.0,-0.06103515625,0.18310546875,0.030029296875,0.043212890625,-1.015869140625,250.0,98.0,-109.0,101445.0,-1.003000020980835,0,0
82.737998,0.002349853515625,0.6378173828125,0.76971435546875,0.025726318359375,0.0,0.30517578125,0.0,0.0296630859375,0.044189453125,-1.015380859375,250.0,98.0,-109.0,101445.0,-1.003000020980835,0,0
82.74403,0.002349853515625,0.6378173828125,0.76971435546875,0.025726318359375,0.0,0.30517578125,0.0,0.0296630859375,0.044189453125,-1.015380859375,250.0,98.0,-109.0,101445.0,-1.003000020980835,0,0
82.750994,0.002349853515625,0.6378173828125,0.76971435546875,0.025726318359375,-0.18310546875,0.18310546875,0.244140625,0.031494140625,0.044921875,-1.0155029296875,250.0,98.0,-109.0,101445.0,-1.003000020980835,0,0
82.757998,0.002349853515625,0.6378173828125,0.76971435546875,0.025726318359375,0.18310546875,-0.06103515625,-0.1220703125,0.02880859375,0.0430908203125,-1.016845703125,250.0,98.0,-109.0,101445.0,-1.003000020980835,0,0
82.764998,0.002349853515625,0.6378173828125,0.76971435546875,0.025726318359375,-0.06103515625,0.06103515625,-0.1220703125,0.0294189453125,0.0423583984375,-1.0162353515625,250.0,98.0,-109.0,101445.0,-1.003000020980835,0,0
82.771997,0.002349853515625,0.6378173828125,0.76971435546875,0.025726318359375,0.06103515625,0.244140625,-0.06103515625,0.0286865234375,0.0435791015625,-1.015625,250.0,98.0,-109.0,101445.0,-1.003000020980835,0,0
82.778996,0.002349853515625,0.6378173828125,0.76971435546875,0.02569580078125,-0.54931640625,-0.1220703125,0.18310546875,0.02587890625,0.0416259765625,-1.015869140625,250.0,98.0,-109.0,101445.0,-1.003000020980835,0,0
82.8,0.002288818359375,0.634246826171875,0.772674560546875,0.025665283203125,0.0,0.06103515625,-0.1220703125,0.0263671875,0.04248046875,-1.014892578125,250.0,98.0,-109.0,101446.0,-1.0070000886917114,0,0
82.806999,0.002288818359375,0.634246826171875,0.772674560546875,0.02569580078125,0.0,-0.06103515625,0.06103515625,0.02783203125,0.0469970703125,-1.015625,250.0,98.0,-109.0,101446.0,-1.0070000886917114,0,0
82.813999,0.002288818359375,0.634246826171875,0.772674560546875,0.025665283203125,0.06103515625,0.18310546875,0.0,0.02734375,0.0450439453125,-1.014404296875,250.0,98.0,-109.0,101446.0,-1.0070000886917114,0,0
82.820998,0.002288818359375,0.634246826171875,0.772674560546875,0.02569580078125,-0.30517578125,-0.3662109375,0.0,0.031005859375,0.044921875,-1.0179443359375,250.0,98.0,-109.0,101446.0,-1.0070000886917114,0,0
82.827998,0.002288818359375,0.634246826171875,0.772674560546875,0.02569580078125,0.06103515625,0.06103515625,0.0,0.030517578125,0.0445556640625,-1.0167236328125,250.0,98.0,-109.0,101446.0,-1.0070000886917114,0,0
82.83403,0.002288818359375,0.634246826171875,0.772674560546875,0.02569580078125,0.06103515625,0.06103515625,0.0,0.030517578125,0.0445556640625,-1.0167236328125,250.0,98.0,-109.0,101446.0,-1.0070000886917114,0,0
82.840999,0.002288818359375,0.634246826171875,0.772674560546875,0.02569580078125,0.06103515625,0.0,-0.1220703125,0.0301513671875,0.0440673828125,-1.0147705078125,250.0,98.0,-109.0,101446.0,-1.0070000886917114,0,0
82.847998,0.002288818359375,0.634246826171875,0.772674560546875,0.025665283203125,-0.06103515625,-0.06103515625,0.0,0.028564453125,0.041015625,-1.01513671875,250.0,98.0,-109.0,101446.0,-1.0070000886917114,0,0
82.854998,0.002288818359375,0.634246826171875,0.772674560546875,0.025665283203125,-0.1220703125,0.0,0.18310546875,0.03125,0.0390625,-1.014892578125,250.0,98.0,-109.0,101446.0,-1.0070000886917114,0,0
82.861997,0.002288818359375,0.634246826171875,0.772674560546875,0.025665283203125,0.244140625,0.18310546875,-0.06103515625,0.029541015625,0.043701171875,-1.018798828125,250.0,98.0,-109.0,101446.0,-1.0070000886917114,0,0
82.868996,0.002288818359375,0.634246826171875,0.772674560546875,0.025665283203125,0.30517578125,0.06103515625,0.244140625,0.029296875,0.04296875,-1.0162353515625,250.0,98.0,-109.0,101446.0,-1.0070000886917114,0,0
82.889996,0.002288818359375,0.63427734375,0.772674560546875,0.025634765625,0.1220703125,0.18310546875,0.1220703125,0.0296630859375,0.0428466796875,-1.015380859375,250.0,98.0,-109.0,101446.0,-1.0070000886917114,0,0
82.896995,0.002288818359375,0.63427734375,0.772674560546875,0.025634765625,0.06103515625,-0.1220703125,0.0,0.0277099609375,0.0445556640625,-1.015380859375,249.0,97.0,-111.0,101445.0,-1.0040000677108765,0,0
82.903994,0.002166748046875,0.63092041015625,0.775390625,0.025634765625,0.3662109375,0.06103515625,0.30517578125,0.02783203125,0.0428466796875,-1.016845703125,249.0,97.0,-111.0,101445.0,-1.0040000677108765,0,0
82.910998,0.002197265625,0.63092041015625,0.775390625,0.025634765625,-0.18310546875,-0.1220703125,0.18310546875,0.0263671875,0.046142578125,-1.016845703125,249.0,97.0,-111.0,101445.0,-1.0040000677108765,0,0
82.917998,0.002197265625,0.63092041015625,0.775390625,0.025634765625,-0.30517578125,0.06103515625,0.06103515625,0.0274658203125,0.0428466796875,-1.0166015625,249.0,97.0,-111.0,101445.0,-1.0040000677108765,0,0
82.924997,0.002227783203125,0.63092041015625,0.775390625,0.025634765625,0.06103515625,0.06103515625,0.0,0.02490234375,0.0440673828125,-1.016357421875,249.0,97.0,-111.0,101445.0,-1.0040000677108765,0,0
82.931025,0.002227783203125,0.63092041015625,0.775390625,0.025634765625,0.06103515625,0.06103515625,0.0,0.02490234375,0.0440673828125,-1.016357421875,249.0,97.0,-111.0,101445.0,-1.0040000677108765,0,0
82.937998,0.002227783203125,0.63092041015625,0.775390625,0.025634765625,0.0,0.06103515625,0.1220703125,0.0296630859375,0.043701171875,-1.015869140625,249.0,97.0,-111.0,101445.0,-1.0040000677108765,0,0
82.944998,0.002227783203125,0.63092041015625,0.775390625,0.025634765625,-0.42724609375,-0.244140625,-0.1220703125,0.02978515625,0.0438232421875,-1.0164794921875,249.0,97.0,-111.0,101445.0,-1.0040000677108765,0,0
82.951997,0.002227783203125,0.63092041015625,0.775390625,0.025634765625,-0.6103515625,-0.06103515625,-0.244140625,0.029052734375,0.04345703125,-1.01708984375,249.0,97.0,-111.0,101445.0,-1.0040000677108765,0,0
82.958996,0.002227783203125,0.63092041015625,0.775390625,0.025634765625,0.1220703125,-0.06103515625,-0.244140625,0.030029296875,0.042724609375,-1.0155029296875,249.0,97.0,-111.0,101445.0,-1.0040000677108765,0,0
82.965996,0.002227783203125,0.63092041015625,0.775390625,0.025634765625,-0.1220703125,0.06103515625,-0.1220703125,0.028564453125,0.0428466796875,-1.0157470703125,249.0,97.0,-111.0,101445.0,-1.0040000677108765,0,0
82.972995,0.002227783203125,0.63092041015625,0.775390625,0.025604248046875,0.1220703125,-0.06103515625,-0.06103515625,0.026611328125,0.0433349609375,-1.0164794921875,249.0,97.0,-111.0,101445.0,-1.0040000677108765,0,0
82.979996,0.002227783203125,0.63092041015625,0.775390625,0.025604248046875,0.06103515625,0.0,0.0,0.0289306640625,0.0428466796875,-1.0166015625,249.0,97.0,-111.0,101445.0,-1.0040000677108765,0,0
82.986995,0.002227783203125,0.63092041015625,0.775390625,0.025604248046875,0.0,0.18310546875,-0.18310546875,0.0289306640625,0.0445556640625,-1.0159912109375,249.0,97.0,-111.0,101445.0,-1.0040000677108765,0,0
82.993994,0.00225830078125,0.63092041015625,0.775390625,0.025634765625,-0.732421875,0.18310546875,0.18310546875,0.0279541015625,0.0452880859375,-1.0169677734375,248.0,96.0,-111.0,101445.0,-1.00600004196167,0,0
83.000998,0.00213623046875,0.62774658203125,0.777984619140625,0.025634765625,-0.244140625,0.1220703125,0.0,0.0302734375,0.0438232421875,-1.017333984375,248.0,96.0,-111.0,101445.0,-1.00600004196167,0,0
83.007998,0.00213623046875,0.62774658203125,0.777984619140625,0.025634765625,-0.06103515625,0.06103515625,0.1220703125,0.0296630859375,0.04248046875,-1.0162353515625,248.0,96.0,-111.0,101445.0,-1.00600004196167,0,0
83.014997,0.002166748046875,0.62774658203125,0.777984619140625,0.025634765625,0.1220703125,0.0,-0.06103515625,0.0260009765625,0.0445556640625,-1.0159912109375,248.0,96.0,-111.0,101445.0,-1.00600004196167,0,0
83.021024,0.002166748046875,0.62774658203125,0.777984619140625,0.025634765625,0.1220703125,0.0,-0.06103515625,0.0260009765625,0.0445556640625,-1.0159912109375,248.0,96.0,-111.0,101445.0,-1.00600004196167,0,0
83.027998,0.002166748046875,0.62774658203125,0.777984619140625,0.025604248046875,0.06103515625,0.1220703125,0.0,0.0284423828125,0.0428466796875,-1.0137939453125,248.0,96.0,-111.0,101445.0,-1.00600004196167,0,0
83.034998,0.002197265625,0.62774658203125,0.777984619140625,0.025604248046875,-0.3662109375,0.244140625,-0.244140625,0.0283203125,0.041259765625,-1.0162353515625,248.0,96.0,-111.0,101445.0,-1.00600004196167,0,0
83.041997,0.002197265625,0.62774658203125,0.777984619140625,0.025604248046875,0.18310546875,-0.06103515625,0.0,0.0281982421875,0.0455322265625,-1.017578125,248.0,96.0,-111.0,101445.0,-1.00600004196167,0,0
83.062996,0.002227783203125,0.62774658203125,0.777984619140625,0.025604248046875,0.06103515625,0.06103515625,-0.3662109375,0.0286865234375,0.0433349609375,-1.015380859375,248.0,96.0,-111.0,101445.0,-1.00600004196167,0,0
83.07,0.002227783203125,0.62774658203125,0.777984619140625,0.025604248046875,-0.06103515625,0.06103515625,-0.30517578125,0.028076171875,0.0457763671875,-1.017333984375,248.0,96.0,-111.0,101445.0,-1.00600004196167,0,0
83.076999,0.002227783203125,0.62774658203125,0.777984619140625,0.025634765625,0.1220703125,-0.244140625,0.0,0.028564453125,0.0443115234375,-1.0157470703125,248.0,96.0,-111.0,101445.0,-1.00600004196167,0,0
83.083999,0.002227783203125,0.62774658203125,0.777984619140625,0.025634765625,-0.06103515625,0.0,0.1220703125,0.0308837890625,0.04296875,-1.0147705078125,248.0,96.0,-111.0,101445.0,-1.00600004196167,0,0
83.090998,0.002197265625,0.62774658203125,0.777984619140625,0.025634765625,0.1220703125,0.0,0.1220703125,0.03076171875,0.0419921875,-1.0167236328125,248.0,96.0,-111.0,101445.0,-1.00600004196167,0,0
83.097998,0.002105712890625,0.62457275390625,0.780517578125,0.025634765625,-0.42724609375,0.06103515625,0.1220703125,0.030517578125,0.04248046875,-1.0162353515625,248.0,97.0,-110.0,101446.0,-1.0070000886917114,0,0
83.104997,0.002105712890625,0.62457275390625,0.780517578125,0.025634765625,-0.1220703125,0.1220703125,0.18310546875,0.029541015625,0.0428466796875,-1.017578125,248.0,97.0,-110.0,101446.0,-1.0070000886917114,0,0
83.111996,0.0020751953125,0.62457275390625,0.780517578125,0.025634765625,-0.1220703125,-0.06103515625,0.06103515625,0.0302734375,0.044189453125,-1.0159912109375,248.0,97.0,-110.0,101446.0,-1.0070000886917114,0,0
83.118029,0.0020751953125,0.62457275390625,0.780517578125,0.025634765625,-0.1220703125,-0.06103515625,0.06103515625,0.0302734375,0.044189453125,-1.0159912109375,248.0,97.0,-110.0,101446.0,-1.0070000886917114,0,0
83.124998,0.002105712890625,0.62457275390625,0.780517578125,0.025604248046875,0.06103515625,0.06103515625,0.0,0.0283203125,0.0440673828125,-1.0174560546875,248.0,97.0,-110.0,101446.0,-1.0070000886917114,0,0
83.131997,0.002105712890625,0.62457275390625,0.780517578125,0.025604248046875,0.18310546875,-0.06103515625,0.06103515625,0.0281982421875,0.0440673828125,-1.0174560546875,248.0,97.0,-110.0,101446.0,-1.0070000886917114,0,0
83.152996,0.002105712890625,0.62457275390625,0.780517578125,0.025604248046875,-0.54931640625,-0.1220703125,0.1220703125,0.028076171875,0.04296875,-1.01611328125,248.0,97.0,-110.0,101446.0,-1.0070000886917114,0,0
83.159996,0.002105712890625,0.62457275390625,0.780517578125,0.025604248046875,0.06103515625,0.0,-0.06103515625,0.0296630859375,0.043212890625,-1.01513671875,248.0,97.0,-110.0,101446.0,-1.0070000886917114,0,0
83.166995,0.002105712890625,0.62457275390625,0.780517578125,0.025604248046875,0.06103515625,0.06103515625,-0.06103515625,0.0284423828125,0.0438232421875,-1.0181884765625,248.0,97.0,-110.0,101446.0,-1.0070000886917114,0,0
83.173994,0.002105712890625,0.62457275390625,0.780517578125,0.025604248046875,-0.48828125,0.0,-0.06103515625,0.030029296875,0.04345703125,-1.0145263671875,248.0,97.0,-110.0,101446.0,-1.0070000886917114,0,0
83.180998,0.002105712890625,0.62457275390625,0.780517578125,0.025604248046875,0.0,0.244140625,0.06103515625,0.0301513671875,0.0438232421875,-1.0164794921875,248.0,97.0,-110.0,101446.0,-1.0070000886917114,0,0
83.187998,0.002105712890625,0.62457275390625,0.780517578125,0.025604248046875,0.30517578125,0.06103515625,-0.18310546875,0.0274658203125,0.0421142578125,-1.015869140625,248.0,97.0,-110.0,101446.0,-1.0070000886917114,0,0
83.194997,0.002105712890625,0.62457275390625,0.780517578125,0.02557373046875,0.1220703125,0.06103515625,0.1220703125,0.029052734375,0.042236328125,-1.017578125,248.0,97.0,-110.0,101446.0,-1.0070000886917114,0,0
83.201996,0.00201416015625,0.62164306640625,0.7828369140625,0.025604248046875,0.06103515625,0.0,-0.06103515625,0.029052734375,0.044677734375,-1.01806640625,249.0,97.0,-109.0,101446.0,-1.0070000886917114,0,0
83.208029,0.00201416015625,0.62164306640625,0.7828369140625,0.025604248046875,0.06103515625,0.0,-0.06103515625,0.029052734375,0.044677734375,-1.01806640625,249.0,97.0,-109.0,101446.0,-1.0070000886917114,0,0
83.214998,0.00201416015625,0.62164306640625,0.7828369140625,0.025604248046875,0.244140625,0.244140625,-0.06103515625,0.027587890625,0.0435791015625,-1.0157470703125,249.0,97.0,-109.0,101446.0,-1.0070000886917114,0,0
83.221997,0.002044677734375,0.62164306640625,0.7828369140625,0.025604248046875,0.1220703125,0.1220703125,0.06103515625,0.0277099609375,0.0443115234375,-1.0164794921875,249.0,97.0,-109.0,101446.0,-1.0070000886917114,0,0
83.228996,0.00201416015625,0.62164306640625,0.7828369140625,0.02557373046875,0.48828125,0.0,-0.06103515625,0.027587890625,0.04248046875,-1.017333984375,249.0,97.0,-109.0,101446.0,-1.0070000886917114,0,0
83.235996,0.002044677734375,0.62164306640625,0.7828369140625,0.025604248046875,0.06103515625,-0.18310546875,-0.06103515625,0.0302734375,0.0452880859375,-1.0174560546875,249.0,97.0,-109.0,101446.0,-1.0070000886917114,0,0
83.242995,0.002044677734375,0.62164306640625,0.7828369140625,0.025604248046875,0.06103515625,0.1220703125,-0.244140625,0.0294189453125,0.0443115234375,-1.0172119140625,249.0,97.0,-109.0,101446.0,-1.0070000886917114,0,0
83.249996,0.00201416015625,0.62164306640625,0.7828369140625,0.025604248046875,0.3662109375,-0.06103515625,-0.244140625,0.0303955078125,0.0426025390625,-1.017333984375,249.0,97.0,-109.0,101446.0,-1.0070000886917114,0,0
83.256995,0.002044677734375,0.62164306640625,0.7828369140625,0.025604248046875,0.06103515625,-0.06103515625,-0.244140625,0.027587890625,0.0458984375,-1.016845703125,249.0,97.0,-109.0,101446.0,-1.0070000886917114,0,0
83.263994,0.002044677734375,0.62164306640625,0.7828369140625,0.025604248046875,-0.18310546875,0.0,0.1220703125,0.0274658203125,0.0430908203125,-1.01806640625,249.0,97.0,-109.0,101446.0,-1.0070000886917114,0,0
83.270998,0.002044677734375,0.62164306640625,0.7828369140625,0.025604248046875,-0.244140625,0.0,0.06103515625,0.0264892578125,0.044921875,-1.017333984375,249.0,97.0,-109.0,101446.0,-1.0070000886917114,0,0
83.277998,0.002044677734375,0.62164306640625,0.7828369140625,0.025604248046875,0.30517578125,0.18310546875,-0.30517578125,0.0299072265625,0.045166015625,-1.0179443359375,249.0,97.0,-109.0,101446.0,-1.0070000886917114,0,0
83.284997,0.002044677734375,0.62164306640625,0.7828369140625,0.025604248046875,-0.06103515625,0.0,0.06103515625,0.0286865234375,0.0419921875,-1.0169677734375,249.0,97.0,-109.0,101446.0,-1.0070000886917114,0,0
83.291996,0.002044677734375,0.62164306640625,0.7828369140625,0.02557373046875,0.06103515625,-0.06103515625,-0.244140625,0.0291748046875,0.041015625,-1.0166015625,249.0,97.0,-109.0,101446.0,-1.0080000162124634,0,0
83.298029,0.002044677734375,0.62164306640625,0.7828369140625,0.02557373046875,0.06103515625,-0.06103515625,-0.244140625,0.0291748046875,0.041015625,-1.0166015625,249.0,97.0,-109.0,101446.0,-1.0080000162124634,0,0
83.304998,0.001953125,0.618927001953125,0.785003662109375,0.02557373046875,-0.06103515625,-0.06103515625,0.18310546875,0.030029296875,0.0411376953125,-1.0179443359375,248.0,96.0,-110.0,101446.0,-1.0080000162124634,0,0
83.325996,0.001922607421875,0.618927001953125,0.785003662109375,0.02557373046875,-0.3662109375,0.3662109375,-0.06103515625,0.0302734375,0.0428466796875,-1.015869140625,248.0,96.0,-110.0,101446.0,-1.0080000162124634,0,0
83.332995,0.001922607421875,0.618927001953125,0.785003662109375,0.02557373046875,0.1220703125,0.18310546875,0.0,0.030517578125,0.04248046875,-1.017333984375,248.0,96.0,-110.0,101446.0,-1.0080000162124634,0,0
83.339996,0.001922607421875,0.618927001953125,0.785003662109375,0.02557373046875,0.1220703125,0.244140625,0.1220703125,0.0296630859375,0.0439453125,-1.0169677734375,248.0,96.0,-110.0,101446.0,-1.0080000162124634,0,0
83.346995,0.001922607421875,0.618927001953125,0.785003662109375,0.02557373046875,0.18310546875,-0.1220703125,0.1220703125,0.0286865234375,0.0452880859375,-1.0177001953125,248.0,96.0,-110.0,101446.0,-1.0080000162124634,0,0
83.353994,0.001922607421875,0.618927001953125,0.785003662109375,0.02557373046875,0.30517578125,0.54931640625,-0.1220703125,0.0296630859375,0.0421142578125,-1.015625,248.0,96.0,-110.0,101446.0,-1.0080000162124634,0,0
83.360998,0.001922607421875,0.618927001953125,0.785003662109375,0.02557373046875,0.0,-0.06103515625,0.1220703125,0.02978515625,0.0428466796875,-1.0164794921875,248.0,96.0,-110.0,101446.0,-1.0080000162124634,0,0
83.367998,0.001922607421875,0.618927001953125,0.785003662109375,0.02557373046875,-0.06103515625,0.18310546875,-0.1220703125,0.02490234375,0.0438232421875,-1.0147705078125,248.0,96.0,-110.0,101446.0,-1.0080000162124634,0,0
83.374997,0.001953125,0.618927001953125,0.785003662109375,0.02557373046875,-0.244140625,0.1220703125,0.06103515625,0.0277099609375,0.04150390625,-1.0162353515625,248.0,96.0,-110.0,101446.0,-1.0080000162124634,0,0
83.381996,0.001953125,0.618927001953125,0.785003662109375,0.025543212890625,-0.06103515625,-0.06103515625,0.06103515625,0.026611328125,0.0423583984375,-1.0167236328125,248.0,96.0,-110.0,101446.0,-1.0080000162124634,0,0
83.388996,0.001953125,0.618927001953125,0.785003662109375,0.025543212890625,0.244140625,0.244140625,-0.06103515625,0.02734375,0.043701171875,-1.0172119140625,248.0,96.0,-110.0,101446.0,-1.0080000162124634,0,0
83.395028,0.001953125,0.618927001953125,0.785003662109375,0.025543212890625,0.244140625,0.244140625,-0.06103515625,0.02734375,0.043701171875,-1.0172119140625,248.0,96.0,-110.0,101446.0,-1.0080000162124634,0,0
83.415996,0.00189208984375,0.616241455078125,0.787109375,0.025543212890625,-0.06103515625,0.1220703125,-0.18310546875,0.027099609375,0.0435791015625,-1.0166015625,247.0,96.0,-109.0,101446.0,-1.0070000886917114,0,0
83.422996,0.001922607421875,0.616241455078125,0.787109375,0.025543212890625,0.30517578125,0.18310546875,-0.30517578125,0.0291748046875,0.0445556640625,-1.0164794921875,247.0,96.0,-109.0,101446.0,-1.0070000886917114,0,0
83.43,0.001922607421875,0.616241455078125,0.787109375,0.025543212890625,-0.244140625,0.18310546875,0.1220703125,0.0283203125,0.04443359375,-1.0167236328125,247.0,96.0,-109.0,101446.0,-1.0070000886917114,0,0
83.436999,0.001922607421875,0.616241455078125,0.787109375,0.025543212890625,0.67138671875,-0.06103515625,0.1220703125,0.0299072265625,0.041015625,-1.0159912109375,247.0,96.0,-109.0,101446.0,-1.0070000886917114,0,0
83.443999,0.001922607421875,0.616241455078125,0.787109375,0.025543212890625,0.3662109375,0.0,-0.1220703125,0.0286865234375,0.0428466796875,-1.015625,247.0,96.0,-109.0,101446.0,-1.0070000886917114,0,0
83.450998,0.00189208984375,0.616241455078125,0.787109375,0.025543212890625,-0.1220703125,0.06103515625,0.3662109375,0.0296630859375,0.0423583984375,-1.01611328125,247.0,96.0,-109.0,101446.0,-1.0070000886917114,0,0
83.457998,0.00189208984375,0.616241455078125,0.787109375,0.025543212890625,0.67138671875,0.0,-0.1220703125,0.030517578125,0.0435791015625,-1.016357421875,247.0,96.0,-109.0,101446.0,-1.0070000886917114,0,0
83.464997,0.001861572265625,0.616241455078125,0.787109375,0.0255126953125,0.06103515625,0.06103515625,0.06103515625,0.0299072265625,0.0421142578125,-1.0164794921875,247.0,96.0,-109.0,101446.0,-1.0070000886917114,0,0
83.471996,0.001861572265625,0.616241455078125,0.787109375,0.0255126953125,0.244140625,-0.06103515625,0.244140625,0.0277099609375,0.04052734375,-1.016845703125,247.0,96.0,-109.0,101446.0,-1.0070000886917114,0,0
83.478996,0.001861572265625,0.616241455078125,0.787109375,0.0255126953125,0.06103515625,0.18310546875,0.1220703125,0.02783203125,0.0411376953125,-1.0157470703125,247.0,96.0,-109.0,101446.0,-1.0070000886917114,0,0
83.485028,0.001861572265625,0.616241455078125,0.787109375,0.0255126953125,0.06103515625,0.18310546875,0.1220703125,0.02783203125,0.0411376953125,-1.0157470703125,247.0,96.0,-109.0,101446.0,-1.0070000886917114,0,0
83.491997,0.001861572265625,0.616241455078125,0.787109375,0.0255126953125,0.18310546875,0.244140625,0.0,0.0291748046875,0.0419921875,-1.0167236328125,247.0,96.0,-109.0,101446.0,-1.0070000886917114,0,0
83.498996,0.001861572265625,0.616241455078125,0.787109375,0.025482177734375,0.0,0.1220703125,-0.1220703125,0.0257568359375,0.04248046875,-1.0164794921875,247.0,96.0,-109.0,101446.0,-1.0090000629425049,0,0
83.505996,0.001800537109375,0.61370849609375,0.789093017578125,0.025482177734375,0.244140625,-0.06103515625,-0.1220703125,0.029052734375,0.040771484375,-1.0181884765625,247.0,96.0,-109.0,101446.0,-1.0090000629425049,0,0
83.512995,0.001800537109375,0.61370849609375,0.789093017578125,0.025482177734375,0.1220703125,0.06103515625,0.244140625,0.028564453125,0.0447998046875,-1.0157470703125,247.0,96.0,-109.0,101446.0,-1.0090000629425049,0,0
83.519996,0.001800537109375,0.61370849609375,0.789093017578125,0.0255126953125,0.06103515625,-0.06103515625,0.48828125,0.0294189453125,0.0465087890625,-1.0172119140625,247.0,96.0,-109.0,101446.0,-1.0090000629425049,0,0
83.526995,0.001800537109375,0.613800048828125,0.789031982421875,0.02545166015625,-0.244140625,-0.48828125,2.99072265625,0.0284423828125,0.0281982421875,-1.01904296875,247.0,96.0,-109.0,101446.0,-1.0090000629425049,0,0
83.533994,0.00140380859375,0.6146240234375,0.788421630859375,0.02471923828125,4.39453125,-1.3427734375,29.11376953125,-0.00732421875,-0.177490234375,-1.0081787109375,247.0,96.0,-109.0,101446.0,-1.0090000629425049,0,0
83.540998,0.00201416015625,0.617218017578125,0.786346435546875,0.025665283203125,-12.6953125,-1.5869140625,35.888671875,0.052001953125,0.067626953125,-1.016357421875,247.0,96.0,-109.0,101446.0,-1.0090000629425049,0,0
83.547998,0.0020751953125,0.617584228515625,0.786041259765625,0.025848388671875,-0.244140625,-0.54931640625,13.12255859375,0.05126953125,0.09814453125,-1.0323486328125,247.0,96.0,-109.0,101446.0,-1.0090000629425049,0,0
83.554997,0.002166748046875,0.6177978515625,0.785888671875,0.02593994140625,0.1220703125,-0.8544921875,7.62939453125,0.041259765625,0.0927734375,-1.026611328125,247.0,96.0,-109.0,101446.0,-1.0090000629425049,0,0
83.561996,0.002166748046875,0.6177978515625,0.785888671875,0.0260009765625,-0.6103515625,0.18310546875,-0.06103515625,0.029296875,0.041748046875,-1.015380859375,247.0,96.0,-109.0,101446.0,-1.0090000629425049,0,0
83.568996,0.002166748046875,0.6177978515625,0.785888671875,0.025970458984375,-0.91552734375,0.30517578125,-0.06103515625,0.026611328125,0.0404052734375,-1.017578125,247.0,96.0,-109.0,101446.0,-1.0090000629425049,0,0
83.588996,0.00213623046875,0.6177978515625,0.785888671875,0.02593994140625,-0.06103515625,0.18310546875,-0.1220703125,0.0281982421875,0.0428466796875,-1.0169677734375,247.0,96.0,-109.0,101446.0,-1.0090000629425049,0,0
83.595996,0.00213623046875,0.6177978515625,0.785888671875,0.02593994140625,-0.244140625,-0.1220703125,0.06103515625,0.0291748046875,0.0439453125,-1.0157470703125,247.0,97.0,-109.0,101445.0,-1.00600004196167,0,0
83.602995,0.00201416015625,0.61395263671875,0.788909912109375,0.02593994140625,-0.42724609375,0.244140625,0.06103515625,0.0283203125,0.0426025390625,-1.015380859375,247.0,97.0,-109.0,101445.0,-1.00600004196167,0,0
83.609996,0.00201416015625,0.61395263671875,0.788909912109375,0.02593994140625,0.3662109375,-0.06103515625,0.18310546875,0.02978515625,0.0455322265625,-1.0162353515625,247.0,97.0,-109.0,101445.0,-1.00600004196167,0,0
83.616995,0.001861572265625,0.614410400390625,0.788543701171875,0.025787353515625,-0.18310546875,-0.3662109375,0.3662109375,0.0303955078125,0.0423583984375,-1.01708984375,247.0,97.0,-109.0,101445.0,-1.00600004196167,0,0
83.623994,0.0018310546875,0.614990234375,0.7880859375,0.02569580078125,-2.62451171875,-0.42724609375,20.44677734375,0.0194091796875,-0.0172119140625,-1.0203857421875,247.0,97.0,-109.0,101445.0,-1.00600004196167,0,0
83.630998,0.001922607421875,0.616241455078125,0.787109375,0.025665283203125,-2.74658203125,-0.67138671875,23.74267578125,0.0086669921875,0.0107421875,-1.02294921875,247.0,97.0,-109.0,101445.0,-1.00600004196167,0,0
83.637998,0.001800537109375,0.617584228515625,0.786041259765625,0.0255126953125,3.0517578125,0.18310546875,25.87890625,0.0218505859375,0.025390625,-1.0091552734375,247.0,97.0,-109.0,101445.0,-1.00600004196167,0,0
83.644997,0.001739501953125,0.618438720703125,0.785400390625,0.025390625,-0.67138671875,-0.3662109375,30.45654296875,0.016845703125,0.000732421875,-1.013671875,247.0,97.0,-109.0,101445.0,-1.00600004196167,0,0
83.651996,0.00177001953125,0.62030029296875,0.783905029296875,0.025543212890625,-5.79833984375,0.48828125,36.865234375,0.007080078125,-0.0233154296875,-1.0137939453125,247.0,97.0,-109.0,101445.0,-1.00600004196167,0,0
83.658996,0.001922607421875,0.6217041015625,0.782806396484375,0.0257568359375,0.67138671875,-0.6103515625,24.71923828125,0.02490234375,0.065673828125,-1.0186767578125,247.0,97.0,-109.0,101445.0,-1.00600004196167,0,0
83.678996,0.00201416015625,0.62347412109375,0.7813720703125,0.025970458984375,-1.03759765625,0.54931640625,1.03759765625,0.0386962890625,0.069091796875,-1.0147705078125,247.0,97.0,-109.0,101445.0,-1.00600004196167,0,0
83.685996,0.00201416015625,0.62347412109375,0.7813720703125,0.0260009765625,-0.6103515625,0.54931640625,0.18310546875,0.03515625,0.0546875,-1.0189208984375,247.0,97.0,-109.0,101445.0,-1.00600004196167,0,0
83.692996,0.00201416015625,0.62347412109375,0.7813720703125,0.0260009765625,0.3662109375,0.0,-0.06103515625,0.0294189453125,0.046142578125,-1.0167236328125,247.0,97.0,-109.0,101445.0,-1.00600004196167,0,0
83.7,0.00201416015625,0.62347412109375,0.7813720703125,0.0260009765625,-0.30517578125,0.18310546875,0.1220703125,0.031005859375,0.0455322265625,-1.0155029296875,248.0,97.0,-110.0,101445.0,-1.00600004196167,0,0
83.706999,0.00189208984375,0.619964599609375,0.784149169921875,0.0260009765625,0.1220703125,0.06103515625,0.244140625,0.030517578125,0.0418701171875,-1.0194091796875,248.0,97.0,-110.0,101445.0,-1.00600004196167,0,0
83.713999,0.00189208984375,0.619964599609375,0.784149169921875,0.0260009765625,-0.18310546875,-0.06103515625,0.0,0.0274658203125,0.0421142578125,-1.01708984375,248.0,97.0,-110.0,101445.0,-1.00600004196167,0,0
83.720998,0.00189208984375,0.619964599609375,0.784149169921875,0.025970458984375,0.3662109375,0.1220703125,0.06103515625,0.0267333984375,0.0399169921875,-1.017578125,248.0,97.0,-110.0,101445.0,-1.00600004196167,0,0
83.727998,0.00189208984375,0.619964599609375,0.784149169921875,0.02593994140625,0.0,0.06103515625,0.06103515625,0.0240478515625,0.0380859375,-1.015625,248.0,97.0,-110.0,101445.0,-1.00600004196167,0,0
83.734997,0.00189208984375,0.619964599609375,0.784149169921875,0.025909423828125,-0.42724609375,-0.06103515625,-0.06103515625,0.02783203125,0.0418701171875,-1.0179443359375,248.0,97.0,-110.0,101445.0,-1.00600004196167,0,0
83.741996,0.001922607421875,0.619964599609375,0.784149169921875,0.025909423828125,-0.1220703125,-0.06103515625,0.0,0.0277099609375,0.043701171875,-1.0177001953125,248.0,97.0,-110.0,101445.0,-1.00600004196167,0,0
83.748996,0.001922607421875,0.619964599609375,0.784149169921875,0.025909423828125,-0.18310546875,0.0,0.0,0.0279541015625,0.0423583984375,-1.016845703125,248.0,97.0,-110.0,101446.0,-1.0080000162124634,0,0
83.755995,0.001922607421875,0.619964599609375,0.784149169921875,0.025909423828125,-0.18310546875,0.06103515625,0.06103515625,0.0306396484375,0.0455322265625,-1.01708984375,248.0,97.0,-110.0,101446.0,-1.0080000162124634,0,0
83.762996,0.001922607421875,0.619964599609375,0.7841796875,0.025909423828125,0.0,0.0,0.1220703125,0.02734375,0.0440673828125,-1.013916015625,248.0,97.0,-110.0,101446.0,-1.0080000162124634,0,0
83.769027,0.001922607421875,0.619964599609375,0.7841796875,0.025909423828125,0.0,0.0,0.1220703125,0.02734375,0.0440673828125,-1.013916015625,248.0,97.0,-110.0,101446.0,-1.0080000162124634,0,0
83.775996,0.001922607421875,0.6199951171875,0.784149169921875,0.02587890625,-0.1220703125,0.244140625,1.0986328125,0.0260009765625,0.036865234375,-1.017333984375,248.0,97.0,-110.0,101446.0,-1.0080000162124634,0,0
83.782995,0.001922607421875,0.620147705078125,0.784027099609375,0.02581787109375,0.06103515625,0.0,1.64794921875,0.0260009765625,0.0379638671875,-1.016845703125,248.0,97.0,-110.0,101446.0,-1.0080000162124634,0,0
83.789996,0.001861572265625,0.620452880859375,0.7838134765625,0.02569580078125,-0.9765625,-0.244140625,10.25390625,0.0152587890625,-0.0067138671875,-1.0196533203125,248.0,97.0,-110.0,101446.0,-1.0080000162124634,0,0
83.796995,0.00189208984375,0.62115478515625,0.783233642578125,0.025726318359375,2.01416015625,-0.67138671875,9.58251953125,0.037109375,0.1033935546875,-1.00927734375,248.0,97.0,-110.0,101446.0,-1.0080000162124634,0,0
83.803994,0.00189208984375,0.62139892578125,0.783050537109375,0.02569580078125,0.48828125,-0.244140625,9.09423828125,0.0274658203125,0.0467529296875,-1.0137939453125,248.0,97.0,-111.0,101446.0,-1.0080000162124634,0,0
83.810998,0.001739501953125,0.617523193359375,0.786102294921875,0.025665283203125,0.06103515625,-0.3662109375,9.6435546875,0.0283203125,0.051025390625,-1.021240234375,248.0,97.0,-111.0,101446.0,-1.0080000162124634,0,0
83.817998,0.001708984375,0.6181640625,0.785614013671875,0.025543212890625,1.28173828125,-0.48828125,11.77978515625,0.0296630859375,0.0400390625,-1.0230712890625,248.0,97.0,-111.0,101446.0,-1.0080000162124634,0,0
83.824997,0.00164794921875,0.618988037109375,0.784942626953125,0.025482177734375,-1.220703125,-0.06103515625,15.68603515625,0.02880859375,0.034912109375,-1.02587890625,248.0,97.0,-111.0,101446.0,-1.0080000162124634,0,0
83.831996,0.001800537109375,0.61932373046875,0.78466796875,0.025665283203125,-4.8828125,-0.54931640625,12.02392578125,0.04150390625,0.0694580078125,-1.0294189453125,248.0,97.0,-111.0,101446.0,-1.0080000162124634,0,0
83.852996,0.00189208984375,0.61932373046875,0.78466796875,0.02593994140625,-0.3662109375,0.244140625,-0.1220703125,0.03076171875,0.04052734375,-1.015869140625,248.0,97.0,-111.0,101445.0,-1.0040000677108765,0,0
83.859027,0.00189208984375,0.61932373046875,0.78466796875,0.02593994140625,-0.3662109375,0.244140625,-0.1220703125,0.03076171875,0.04052734375,-1.015869140625,248.0,97.0,-111.0,101445.0,-1.0040000677108765,0,0
83.865996,0.001922607421875,0.61932373046875,0.78466796875,0.02593994140625,-0.18310546875,0.0,0.0,0.02783203125,0.0421142578125,-1.01708984375,248.0,97.0,-111.0,101445.0,-1.0040000677108765,0,0
83.872995,0.001922607421875,0.61932373046875,0.78466796875,0.025909423828125,-0.244140625,-0.06103515625,-0.18310546875,0.029296875,0.0400390625,-1.015380859375,248.0,97.0,-111.0,101445.0,-1.0040000677108765,0,0
83.879996,0.001922607421875,0.61932373046875,0.78466796875,0.025909423828125,-0.18310546875,0.18310546875,-0.1220703125,0.02783203125,0.0419921875,-1.0186767578125,248.0,97.0,-111.0,101445.0,-1.0040000677108765,0,0
83.886995,0.001922607421875,0.61932373046875,0.78466796875,0.02587890625,-0.06103515625,-0.06103515625,0.0,0.0257568359375,0.0433349609375,-1.0146484375,248.0,97.0,-111.0,101445.0,-1.0040000677108765,0,0
83.893994,0.001922607421875,0.61932373046875,0.78466796875,0.02587890625,-0.1220703125,-0.06103515625,-0.06103515625,0.0272216796875,0.0443115234375,-1.0166015625,248.0,97.0,-111.0,101445.0,-1.0040000677108765,0,0
83.900998,0.001922607421875,0.61932373046875,0.78466796875,0.02587890625,0.30517578125,0.06103515625,-0.1220703125,0.0283203125,0.04345703125,-1.0169677734375,248.0,97.0,-111.0,101445.0,-1.0040000677108765,0,0
83.907998,0.0018310546875,0.616790771484375,0.786651611328125,0.02587890625,-0.244140625,0.30517578125,0.0,0.027099609375,0.04296875,-1.0181884765625,248.0,97.0,-111.0,101445.0,-1.0040000677108765,0,0
83.914997,0.0018310546875,0.616790771484375,0.786651611328125,0.025848388671875,-0.18310546875,0.1220703125,-0.18310546875,0.029052734375,0.0426025390625,-1.0162353515625,248.0,97.0,-111.0,101445.0,-1.0040000677108765,0,0
83.935995,0.0018310546875,0.616790771484375,0.786651611328125,0.02581787109375,0.18310546875,0.244140625,0.0,0.031005859375,0.0390625,-1.016845703125,248.0,97.0,-111.0,101445.0,-1.0040000677108765,0,0
83.942996,0.0018310546875,0.616790771484375,0.786651611328125,0.02581787109375,-0.06103515625,0.1220703125,-0.06103515625,0.028564453125,0.0418701171875,-1.0166015625,248.0,97.0,-111.0,101445.0,-1.0040000677108765,0,0
83.949995,0.0018310546875,0.616790771484375,0.786651611328125,0.025787353515625,-0.06103515625,-0.244140625,0.18310546875,0.0294189453125,0.0401611328125,-1.019775390625,248.0,97.0,-111.0,101446.0,-1.0080000162124634,0,0
83.956023,0.0018310546875,0.616790771484375,0.786651611328125,0.025787353515625,-0.06103515625,-0.244140625,0.18310546875,0.0294189453125,0.0401611328125,-1.019775390625,248.0,97.0,-111.0,101446.0,-1.0080000162124634,0,0
83.962996,0.00177001953125,0.616851806640625,0.78662109375,0.02581787109375,-0.244140625,0.0,1.52587890625,0.0455322265625,0.037109375,-1.01611328125,248.0,97.0,-111.0,101446.0,-1.0080000162124634,0,0
83.97,0.001312255859375,0.617340087890625,0.7862548828125,0.0257568359375,2.86865234375,0.244140625,6.9580078125,0.0997314453125,0.0177001953125,-1.0057373046875,248.0,97.0,-111.0,101446.0,-1.0080000162124634,0,0
83.976999,0.001007080078125,0.61810302734375,0.78564453125,0.02593994140625,-3.11279296875,-0.42724609375,14.404296875,0.0843505859375,0.0457763671875,-1.0133056640625,248.0,97.0,-111.0,101446.0,-1.0080000162124634,0,0
83.983999,0.001068115234375,0.61859130859375,0.785247802734375,0.02630615234375,-10.25390625,0.79345703125,18.4326171875,0.080322265625,0.038818359375,-1.016357421875,248.0,97.0,-111.0,101446.0,-1.0080000162124634,0,0
83.990998,0.00103759765625,0.620025634765625,0.784088134765625,0.0267333984375,-3.173828125,-0.54931640625,28.50341796875,0.08349609375,0.0433349609375,-1.013427734375,248.0,97.0,-111.0,101446.0,-1.0080000162124634,0,0
83.997998,0.0013427734375,0.62066650390625,0.7835693359375,0.027252197265625,-13.61083984375,2.99072265625,6.591796875,-0.004638671875,0.0482177734375,-1.0389404296875,248.0,97.0,-111.0,101446.0,-1.0080000162124634,0,0
84.004997,0.00177001953125,0.6204833984375,0.783721923828125,0.027313232421875,-9.33837890625,1.5869140625,-6.40869140625,-0.080322265625,0.038818359375,-0.9906005859375,249.0,97.0,-111.0,101446.0,-1.0080000162124634,0,0
84.011996,0.001800537109375,0.615966796875,0.787261962890625,0.027252197265625,-5.4931640625,0.8544921875,-11.5966796875,-0.024658203125,0.0225830078125,-1.017578125,249.0,97.0,-111.0,101446.0,-1.0080000162124634,0,0
84.018996,0.001617431640625,0.615142822265625,0.787933349609375,0.02691650390625,6.103515625,-0.54931640625,-17.02880859375,0.027099609375,0.0255126953125,-1.0164794921875,249.0,97.0,-111.0,101446.0,-1.0080000162124634,0,0
84.025996,0.00140380859375,0.6141357421875,0.7886962890625,0.026947021484375,2.3193359375,2.197265625,-19.6533203125,0.0294189453125,0.0260009765625,-1.00927734375,249.0,97.0,-111.0,101446.0,-1.0080000162124634,0,0
84.033,0.001739501953125,0.61383056640625,0.7889404296875,0.02728271484375,-8.056640625,4.45556640625,-11.16943359375,-0.030029296875,0.1087646484375,-1.08056640625,249.0,97.0,-111.0,101446.0,-1.0080000162124634,0,0
84.039999,0.00201416015625,0.613494873046875,0.789215087890625,0.026947021484375,7.01904296875,-0.9765625,-3.11279296875,-0.0047607421875,0.0623779296875,-1.00390625,249.0,97.0,-111.0,101446.0,-1.0080000162124634,0,0
84.046032,0.00201416015625,0.613494873046875,0.789215087890625,0.026947021484375,7.01904296875,-0.9765625,-3.11279296875,-0.0047607421875,0.0623779296875,-1.00390625,249.0,97.0,-111.0,101446.0,-1.0080000162124634,0,0
84.052995,0.002044677734375,0.613494873046875,0.789215087890625,0.0269775390625,0.54931640625,0.0,0.18310546875,0.029052734375,0.0413818359375,-1.0177001953125,249.0,97.0,-111.0,101445.0,-1.003000020980835,0,0
84.059996,0.002044677734375,0.613494873046875,0.789215087890625,0.026947021484375,-0.48828125,0.06103515625,0.06103515625,0.028076171875,0.0419921875,-1.0159912109375,249.0,97.0,-111.0,101445.0,-1.003000020980835,0,0
84.066995,0.0020751953125,0.613494873046875,0.789215087890625,0.026947021484375,0.18310546875,0.30517578125,0.18310546875,0.0274658203125,0.0445556640625,-1.017822265625,249.0,97.0,-111.0,101445.0,-1.003000020980835,0,0
84.073994,0.0020751953125,0.613494873046875,0.789215087890625,0.026947021484375,0.30517578125,0.1220703125,0.06103515625,0.0286865234375,0.04296875,-1.0159912109375,249.0,97.0,-111.0,101445.0,-1.003000020980835,0,0
84.080998,0.0020751953125,0.613494873046875,0.789215087890625,0.02691650390625,-0.48828125,0.0,0.0,0.0284423828125,0.04345703125,-1.015869140625,249.0,97.0,-111.0,101445.0,-1.003000020980835,0,0
84.087998,0.0020751953125,0.613494873046875,0.789215087890625,0.02691650390625,0.18310546875,0.1220703125,0.06103515625,0.02783203125,0.04443359375,-1.0155029296875,249.0,97.0,-111.0,101445.0,-1.003000020980835,0,0
84.094997,0.002044677734375,0.613494873046875,0.789215087890625,0.026885986328125,-0.1220703125,0.0,0.1220703125,0.030029296875,0.0430908203125,-1.0159912109375,249.0,97.0,-111.0,101445.0,-1.003000020980835,0,0
84.115995,0.001983642578125,0.61199951171875,0.790374755859375,0.026824951171875,-0.30517578125,0.1220703125,0.18310546875,0.02880859375,0.039306640625,-1.018798828125,251.0,96.0,-112.0,101445.0,-1.003000020980835,0,0
84.122996,0.001953125,0.61199951171875,0.790374755859375,0.02679443359375,0.0,0.244140625,0.18310546875,0.0316162109375,0.0404052734375,-1.0164794921875,251.0,96.0,-112.0,101445.0,-1.003000020980835,0,0
84.129995,0.001922607421875,0.61199951171875,0.790374755859375,0.02679443359375,0.18310546875,0.1220703125,-0.06103515625,0.0311279296875,0.0391845703125,-1.0184326171875,251.0,96.0,-112.0,101445.0,-1.003000020980835,0,0
84.136994,0.001922607421875,0.61199951171875,0.790374755859375,0.026763916015625,-0.1220703125,0.0,0.18310546875,0.0303955078125,0.042236328125,-1.0172119140625,251.0,96.0,-112.0,101445.0,-1.003000020980835,0,0
84.143026,0.001922607421875,0.61199951171875,0.790374755859375,0.026763916015625,-0.1220703125,0.0,0.18310546875,0.0303955078125,0.042236328125,-1.0172119140625,251.0,96.0,-112.0,101445.0,-1.003000020980835,0,0
84.149996,0.00189208984375,0.61199951171875,0.790374755859375,0.0267333984375,0.06103515625,-0.06103515625,0.06103515625,0.0306396484375,0.0406494140625,-1.0152587890625,251.0,96.0,-112.0,101445.0,-1.003000020980835,0,0
84.156995,0.00189208984375,0.61199951171875,0.790374755859375,0.0267333984375,-0.244140625,0.06103515625,0.06103515625,0.0296630859375,0.0413818359375,-1.0177001953125,251.0,96.0,-112.0,101446.0,-1.0070000886917114,0,0
84.163994,0.001861572265625,0.61199951171875,0.790374755859375,0.026702880859375,0.06103515625,-0.244140625,-0.18310546875,0.0281982421875,0.042236328125,-1.017578125,251.0,96.0,-112.0,101446.0,-1.0070000886917114,0,0
84.170998,0.001861572265625,0.61199951171875,0.790374755859375,0.026702880859375,-0.06103515625,0.1220703125,0.06103515625,0.0286865234375,0.042724609375,-1.0169677734375,251.0,96.0,-112.0,101446.0,-1.0070000886917114,0,0
84.177998,0.001861572265625,0.61199951171875,0.790374755859375,0.02667236328125,-0.30517578125,0.18310546875,0.06103515625,0.03076171875,0.043701171875,-1.018310546875,251.0,96.0,-112.0,101446.0,-1.0070000886917114,0,0
84.198996,0.001861572265625,0.61199951171875,0.790374755859375,0.026611328125,0.30517578125,0.06103515625,0.0,0.0301513671875,0.0411376953125,-1.0185546875,251.0,96.0,-112.0,101446.0,-1.0070000886917114,0,0
84.205995,0.001800537109375,0.610107421875,0.791839599609375,0.026580810546875,0.1220703125,0.1220703125,0.06103515625,0.02880859375,0.0413818359375,-1.015625,251.0,94.0,-112.0,101446.0,-1.0070000886917114,0,0
84.212996,0.001800537109375,0.610107421875,0.791839599609375,0.026580810546875,0.18310546875,0.0,0.18310546875,0.0294189453125,0.0399169921875,-1.0166015625,251.0,94.0,-112.0,101446.0,-1.0070000886917114,0,0
84.219995,0.00177001953125,0.610107421875,0.791839599609375,0.02655029296875,0.0,0.0,0.18310546875,0.0303955078125,0.0423583984375,-1.017822265625,251.0,94.0,-112.0,101446.0,-1.0070000886917114,0,0
84.226994,0.00177001953125,0.610107421875,0.791839599609375,0.02655029296875,0.1220703125,0.0,-0.1220703125,0.029052734375,0.04443359375,-1.0169677734375,251.0,94.0,-112.0,101446.0,-1.0070000886917114,0,0
84.233026,0.00177001953125,0.610107421875,0.791839599609375,0.02655029296875,0.1220703125,0.0,-0.1220703125,0.029052734375,0.04443359375,-1.0169677734375,251.0,94.0,-112.0,101446.0,-1.0070000886917114,0,0
84.239996,0.00177001953125,0.610107421875,0.791839599609375,0.026519775390625,0.244140625,0.1220703125,0.0,0.029052734375,0.0450439453125,-1.0164794921875,251.0,94.0,-112.0,101446.0,-1.0070000886917114,0,0
84.246995,0.00177001953125,0.610107421875,0.791839599609375,0.026519775390625,0.1220703125,-0.06103515625,0.18310546875,0.029541015625,0.0419921875,-1.01708984375,251.0,94.0,-112.0,101445.0,-1.003000020980835,0,0
84.253994,0.00177001953125,0.610107421875,0.791839599609375,0.026519775390625,-0.06103515625,0.0,0.3662109375,0.0272216796875,0.0430908203125,-1.01806640625,251.0,94.0,-112.0,101445.0,-1.003000020980835,0,0
84.260998,0.00177001953125,0.610107421875,0.791839599609375,0.0264892578125,0.1220703125,0.1220703125,-0.06103515625,0.0264892578125,0.04150390625,-1.0179443359375,251.0,94.0,-112.0,101445.0,-1.003000020980835,0,0
84.267998,0.001739501953125,0.610107421875,0.791839599609375,0.026458740234375,-0.06103515625,-0.244140625,0.18310546875,0.0291748046875,0.0419921875,-1.0174560546875,251.0,94.0,-112.0,101445.0,-1.003000020980835,0,0
84.274997,0.001739501953125,0.610107421875,0.791839599609375,0.026458740234375,0.18310546875,0.1220703125,-0.244140625,0.0291748046875,0.0426025390625,-1.018310546875,251.0,94.0,-112.0,101445.0,-1.003000020980835,0,0
84.281996,0.001739501953125,0.610107421875,0.791839599609375,0.02642822265625,0.18310546875,-0.3662109375,-0.1220703125,0.027587890625,0.041015625,-1.0147705078125,251.0,94.0,-112.0,101445.0,-1.003000020980835,0,0
84.288996,0.001739501953125,0.610107421875,0.791839599609375,0.02642822265625,0.0,0.244140625,0.18310546875,0.0274658203125,0.0443115234375,-1.0167236328125,251.0,94.0,-112.0,101445.0,-1.003000020980835,0,0
84.295996,0.001739501953125,0.610107421875,0.791839599609375,0.02642822265625,-0.06103515625,0.1220703125,0.0,0.0308837890625,0.041748046875,-1.017822265625,251.0,94.0,-112.0,101445.0,-1.003000020980835,0,0
84.303,0.001739501953125,0.610107421875,0.791839599609375,0.026397705078125,0.48828125,0.0,-0.244140625,0.029296875,0.0413818359375,-1.0169677734375,252.0,94.0,-111.0,101445.0,-1.003000020980835,0,0
84.309999,0.001678466796875,0.60821533203125,0.793304443359375,0.0263671875,-0.18310546875,0.18310546875,-0.244140625,0.0291748046875,0.042236328125,-1.0150146484375,252.0,94.0,-111.0,101445.0,-1.003000020980835,0,0
84.316999,0.00164794921875,0.60821533203125,0.793304443359375,0.0263671875,-0.1220703125,0.1220703125,0.0,0.0301513671875,0.0419921875,-1.017578125,252.0,94.0,-111.0,101445.0,-1.003000020980835,0,0
84.323998,0.00164794921875,0.60821533203125,0.793304443359375,0.026336669921875,-0.1220703125,-0.06103515625,0.06103515625,0.030517578125,0.0411376953125,-1.018310546875,252.0,94.0,-111.0,101445.0,-1.003000020980835,0,0
84.330027,0.00164794921875,0.60821533203125,0.793304443359375,0.026336669921875,-0.1220703125,-0.06103515625,0.06103515625,0.030517578125,0.0411376953125,-1.018310546875,252.0,94.0,-111.0,101445.0,-1.003000020980835,0,0
84.336999,0.00164794921875,0.60821533203125,0.793304443359375,0.026336669921875,-0.244140625,0.18310546875,0.244140625,0.030029296875,0.042236328125,-1.0184326171875,252.0,94.0,-111.0,101445.0,-1.003000020980835,0,0
84.343999,0.00164794921875,0.60821533203125,0.793304443359375,0.02630615234375,0.0,0.06103515625,0.1220703125,0.0296630859375,0.040283203125,-1.0179443359375,252.0,94.0,-111.0,101445.0,-1.003000020980835,0,0
84.350998,0.001617431640625,0.60821533203125,0.793304443359375,0.02630615234375,0.1220703125,0.0,-0.244140625,0.02783203125,0.03955078125,-1.0166015625,252.0,94.0,-111.0,101446.0,-1.0070000886917114,0,0
84.371996,0.0015869140625,0.60821533203125,0.793304443359375,0.0262451171875,0.06103515625,0.0,0.06103515625,0.0299072265625,0.042724609375,-1.017578125,252.0,94.0,-111.0,101446.0,-1.0070000886917114,0,0
84.378996,0.0015869140625,0.60821533203125,0.793304443359375,0.0262451171875,-0.18310546875,0.06103515625,0.0,0.0289306640625,0.0428466796875,-1.015869140625,252.0,94.0,-111.0,101446.0,-1.0070000886917114,0,0
84.385995,0.0015869140625,0.60821533203125,0.793304443359375,0.0262451171875,0.244140625,0.1220703125,-0.06103515625,0.0289306640625,0.0426025390625,-1.0174560546875,252.0,94.0,-111.0,101446.0,-1.0070000886917114,0,0
84.392996,0.0015869140625,0.60821533203125,0.793304443359375,0.0262451171875,-0.244140625,-0.06103515625,0.18310546875,0.031005859375,0.042236328125,-1.01904296875,252.0,94.0,-111.0,101446.0,-1.0070000886917114,0,0
84.399995,0.0015869140625,0.60821533203125,0.793304443359375,0.026214599609375,0.06103515625,0.0,-0.06103515625,0.0284423828125,0.0445556640625,-1.018798828125,252.0,94.0,-111.0,101446.0,-1.0070000886917114,0,0
84.406994,0.00152587890625,0.6065673828125,0.7945556640625,0.026214599609375,-0.06103515625,0.06103515625,0.0,0.0308837890625,0.042236328125,-1.0159912109375,254.0,93.0,-112.0,101446.0,-1.0070000886917114,0,0
84.413998,0.00152587890625,0.6065673828125,0.7945556640625,0.026214599609375,-0.30517578125,-0.18310546875,-0.06103515625,0.0291748046875,0.0423583984375,-1.0185546875,254.0,93.0,-112.0,101446.0,-1.0070000886917114,0,0
84.420026,0.00152587890625,0.6065673828125,0.7945556640625,0.026214599609375,-0.30517578125,-0.18310546875,-0.06103515625,0.0291748046875,0.0423583984375,-1.0185546875,254.0,93.0,-112.0,101446.0,-1.0070000886917114,0,0
84.426995,0.00152587890625,0.606597900390625,0.7945556640625,0.02618408203125,0.18310546875,-0.06103515625,0.06103515625,0.0277099609375,0.04248046875,-1.0159912109375,254.0,93.0,-112.0,101446.0,-1.0070000886917114,0,0
84.433994,0.001495361328125,0.606597900390625,0.7945556640625,0.02618408203125,-0.42724609375,-0.30517578125,0.244140625,0.0279541015625,0.0408935546875,-1.01611328125,254.0,93.0,-112.0,101446.0,-1.0070000886917114,0,0
84.440998,0.00152587890625,0.606597900390625,0.7945556640625,0.026153564453125,-0.18310546875,0.0,0.0,0.028564453125,0.04150390625,-1.0166015625,254.0,93.0,-112.0,101446.0,-1.0070000886917114,0,0
84.461996,0.001495361328125,0.606597900390625,0.7945556640625,0.026123046875,-0.06103515625,0.18310546875,-0.06103515625,0.030517578125,0.042236328125,-1.0167236328125,254.0,93.0,-112.0,101445.0,-1.003000020980835,0,0
84.468996,0.001495361328125,0.606597900390625,0.7945556640625,0.026092529296875,0.1220703125,0.30517578125,0.06103515625,0.0274658203125,0.039794921875,-1.0177001953125,254.0,93.0,-112.0,101445.0,-1.003000020980835,0,0
84.475995,0.001495361328125,0.606597900390625,0.7945556640625,0.026092529296875,0.1220703125,-0.1220703125,-0.1220703125,0.030029296875,0.043701171875,-1.01708984375,254.0,93.0,-112.0,101445.0,-1.003000020980835,0,0
84.482996,0.001495361328125,0.606597900390625,0.7945556640625,0.026092529296875,-0.06103515625,0.18310546875,0.1220703125,0.0289306640625,0.0430908203125,-1.0167236328125,254.0,93.0,-112.0,101445.0,-1.003000020980835,0,0
84.489995,0.00146484375,0.606597900390625,0.7945556640625,0.02606201171875,0.1220703125,-0.18310546875,0.1220703125,0.0306396484375,0.042236328125,-1.0166015625,254.0,93.0,-112.0,101445.0,-1.003000020980835,0,0
84.496994,0.00146484375,0.606597900390625,0.7945556640625,0.02606201171875,0.244140625,0.1220703125,-0.06103515625,0.0306396484375,0.0419921875,-1.0167236328125,254.0,93.0,-112.0,101445.0,-1.003000020980835,0,0
84.503998,0.00146484375,0.606597900390625,0.7945556640625,0.02606201171875,0.1220703125,0.18310546875,-0.1220703125,0.0291748046875,0.0418701171875,-1.0169677734375,254.0,93.0,-112.0,101445.0,-1.003000020980835,0,0
84.510998,0.00140380859375,0.6051025390625,0.79571533203125,0.02606201171875,0.244140625,-0.1220703125,0.0,0.0289306640625,0.0426025390625,-1.017333984375,255.0,92.0,-112.0,101445.0,-1.003000020980835,0,0
84.51703,0.00140380859375,0.6051025390625,0.79571533203125,0.02606201171875,0.244140625,-0.1220703125,0.0,0.0289306640625,0.0426025390625,-1.017333984375,255.0,92.0,-112.0,101445.0,-1.003000020980835,0,0
84.523994,0.00140380859375,0.6051025390625,0.79571533203125,0.026031494140625,-0.244140625,0.06103515625,0.30517578125,0.0263671875,0.03955078125,-1.0185546875,255.0,92.0,-112.0,101445.0,-1.003000020980835,0,0
84.530998,0.00140380859375,0.6051025390625,0.79571533203125,0.0260009765625,-0.1220703125,-0.06103515625,0.0,0.027587890625,0.041259765625,-1.0185546875,255.0,92.0,-112.0,101445.0,-1.003000020980835,0,0
84.537998,0.00140380859375,0.6051025390625,0.79571533203125,0.0260009765625,0.06103515625,0.06103515625,0.0,0.0283203125,0.0404052734375,-1.0174560546875,255.0,92.0,-112.0,101445.0,-1.003000020980835,0,0
84.544997,0.00140380859375,0.6051025390625,0.79571533203125,0.025970458984375,0.42724609375,0.1220703125,-0.18310546875,0.0269775390625,0.0433349609375,-1.0186767578125,255.0,92.0,-112.0,101445.0,-1.003000020980835,0,0
84.551996,0.00140380859375,0.6051025390625,0.79571533203125,0.025970458984375,0.18310546875,-0.1220703125,0.1220703125,0.0291748046875,0.0421142578125,-1.0174560546875,255.0,92.0,-112.0,101446.0,-1.0070000886917114,0,0
84.558996,0.00140380859375,0.6051025390625,0.79571533203125,0.025970458984375,-0.06103515625,0.06103515625,0.06103515625,0.028076171875,0.044921875,-1.0169677734375,255.0,92.0,-112.0,101446.0,-1.0070000886917114,0,0
84.565996,0.00140380859375,0.6051025390625,0.79571533203125,0.025970458984375,-0.67138671875,0.18310546875,0.1220703125,0.0291748046875,0.0438232421875,-1.016357421875,255.0,92.0,-112.0,101446.0,-1.0070000886917114,0,0
84.573,0.00140380859375,0.6051025390625,0.79571533203125,0.025970458984375,0.0,0.0,0.18310546875,0.0289306640625,0.0443115234375,-1.016357421875,255.0,92.0,-112.0,101446.0,-1.0070000886917114,0,0
84.579999,0.00140380859375,0.6051025390625,0.79571533203125,0.025970458984375,-0.1220703125,0.0,0.0,0.0281982421875,0.0430908203125,-1.015869140625,255.0,92.0,-112.0,101446.0,-1.0070000886917114,0,0
84.586999,0.001434326171875,0.6051025390625,0.79571533203125,0.025970458984375,-0.06103515625,-0.1220703125,-0.30517578125,0.0281982421875,0.045166015625,-1.0164794921875,255.0,92.0,-112.0,101446.0,-1.0070000886917114,0,0
84.593998,0.00140380859375,0.6051025390625,0.79571533203125,0.025970458984375,-0.1220703125,-0.18310546875,0.0,0.030029296875,0.0416259765625,-1.0162353515625,255.0,92.0,-112.0,101446.0,-1.0070000886917114,0,0
84.600998,0.00140380859375,0.6051025390625,0.79571533203125,0.02593994140625,0.3662109375,0.0,-0.1220703125,0.0306396484375,0.039306640625,-1.017578125,255.0,92.0,-112.0,101446.0,-1.0070000886917114,0,0
84.60703,0.00140380859375,0.6051025390625,0.79571533203125,0.02593994140625,0.3662109375,0.0,-0.1220703125,0.0306396484375,0.039306640625,-1.017578125,255.0,92.0,-112.0,101446.0,-1.0070000886917114,0,0
84.613999,0.001312255859375,0.603729248046875,0.796722412109375,0.025970458984375,-0.06103515625,0.06103515625,-0.6103515625,0.03564453125,0.0435791015625,-1.016845703125,254.0,91.0,-112.0,101446.0,-1.0070000886917114,0,0
84.634997,0.001068115234375,0.60247802734375,0.79766845703125,0.0264892578125,-0.79345703125,-0.42724609375,-16.9677734375,0.081298828125,0.08154296875,-1.0106201171875,254.0,91.0,-112.0,101446.0,-1.0070000886917114,0,0
84.641996,0.001251220703125,0.600738525390625,0.7989501953125,0.0274658203125,-5.4931640625,-0.732421875,-18.24951171875,0.0706787109375,0.03857421875,-1.0262451171875,254.0,91.0,-112.0,101446.0,-1.0070000886917114,0,0
84.648996,0.00103759765625,0.5999755859375,0.79949951171875,0.027587890625,3.5400390625,2.86865234375,-26.85546875,0.0955810546875,0.0728759765625,-1.001708984375,254.0,91.0,-112.0,101446.0,-1.0070000886917114,0,0
84.655995,0.000274658203125,0.599029541015625,0.80023193359375,0.027252197265625,21.6064453125,6.16455078125,-33.447265625,0.0987548828125,0.0389404296875,-0.949462890625,254.0,91.0,-112.0,101445.0,-1.002000093460083,0,0
84.662996,-0.0008544921875,0.596099853515625,0.802459716796875,0.02557373046875,24.10888671875,0.732421875,-41.32080078125,0.0147705078125,0.00439453125,-0.9632568359375,254.0,91.0,-112.0,101445.0,-1.002000093460083,0,0
84.669995,-0.00103759765625,0.594757080078125,0.803466796875,0.02557373046875,5.67626953125,1.953125,-48.33984375,0.0653076171875,0.064697265625,-1.0615234375,254.0,91.0,-112.0,101445.0,-1.002000093460083,0,0
84.676994,-0.000701904296875,0.591552734375,0.805816650390625,0.026031494140625,-4.2724609375,-1.28173828125,-53.64990234375,0.0389404296875,0.091552734375,-1.079345703125,254.0,91.0,-112.0,101445.0,-1.002000093460083,0,0
84.683998,-0.000579833984375,0.588134765625,0.80828857421875,0.02655029296875,0.0,11.23046875,-57.6171875,-0.03125,0.0870361328125,-1.1092529296875,254.0,91.0,-112.0,101445.0,-1.002000093460083,0,0
84.690998,-0.00030517578125,0.587066650390625,0.809051513671875,0.026824951171875,-16.6015625,5.55419921875,-37.65869140625,-0.044677734375,-0.0303955078125,-1.01904296875,254.0,91.0,-112.0,101445.0,-1.002000093460083,0,0
84.697997,-0.00054931640625,0.58502197265625,0.810546875,0.02642822265625,-2.3193359375,2.86865234375,-32.65380859375,-0.0684814453125,-0.044677734375,-1.08154296875,254.0,91.0,-112.0,101445.0,-1.002000093460083,0,0
84.704024,-0.00054931640625,0.58502197265625,0.810546875,0.02642822265625,-2.3193359375,2.86865234375,-32.65380859375,-0.0684814453125,-0.044677734375,-1.08154296875,254.0,91.0,-112.0,101445.0,-1.002000093460083,0,0
84.724997,-0.00048828125,0.580047607421875,0.81414794921875,0.025238037109375,2.8076171875,-0.79345703125,-21.42333984375,0.0323486328125,0.0406494140625,-1.0123291015625,254.0,90.0,-112.0,101445.0,-1.002000093460083,0,0
84.731996,-0.000518798828125,0.57940673828125,0.81463623046875,0.025177001953125,1.64794921875,-0.732421875,-23.3154296875,0.0421142578125,0.03076171875,-1.018798828125,254.0,90.0,-112.0,101445.0,-1.002000093460083,0,0
84.738996,-0.00030517578125,0.5780029296875,0.81561279296875,0.025360107421875,-7.4462890625,4.8828125,-20.44677734375,0.0123291015625,0.057373046875,-1.049560546875,254.0,90.0,-112.0,101445.0,-1.002000093460083,0,0
84.745995,3.0517578125e-05,0.57794189453125,0.815643310546875,0.02545166015625,-5.7373046875,-0.8544921875,-1.953125,-0.0450439453125,0.064697265625,-1.045166015625,254.0,90.0,-112.0,101445.0,-1.002000093460083,0,0
84.752996,0.00030517578125,0.577972412109375,0.81561279296875,0.025665283203125,-7.62939453125,-1.52587890625,1.3427734375,0.0101318359375,0.0689697265625,-1.026611328125,254.0,90.0,-112.0,101446.0,-1.0070000886917114,0,0
84.759995,0.000946044921875,0.57806396484375,0.8155517578125,0.02618408203125,-8.36181640625,-2.3193359375,0.79345703125,0.016357421875,0.04345703125,-1.0247802734375,254.0,90.0,-112.0,101446.0,-1.0070000886917114,0,0
84.766994,0.001220703125,0.578094482421875,0.815521240234375,0.0263671875,-8.72802734375,-1.708984375,1.15966796875,0.0157470703125,0.04931640625,-1.0167236328125,254.0,90.0,-112.0,101446.0,-1.0070000886917114,0,0
84.773998,0.00146484375,0.578033447265625,0.8155517578125,0.02667236328125,-6.34765625,-1.52587890625,-1.28173828125,0.04296875,0.0419921875,-1.0106201171875,254.0,90.0,-112.0,101446.0,-1.0070000886917114,0,0
84.780998,0.00140380859375,0.577911376953125,0.81561279296875,0.02679443359375,2.62451171875,0.06103515625,-1.5869140625,0.048583984375,0.0369873046875,-0.9818115234375,254.0,90.0,-112.0,101446.0,-1.0070000886917114,0,0
84.787997,0.001495361328125,0.577850341796875,0.815673828125,0.026885986328125,-3.23486328125,-0.30517578125,-2.9296875,0.029296875,0.05322265625,-1.0355224609375,254.0,90.0,-112.0,101446.0,-1.0070000886917114,0,0
84.794025,0.001495361328125,0.577850341796875,0.815673828125,0.026885986328125,-3.23486328125,-0.30517578125,-2.9296875,0.029296875,0.05322265625,-1.0355224609375,254.0,90.0,-112.0,101446.0,-1.0070000886917114,0,0
84.800998,0.001556396484375,0.57763671875,0.815826416015625,0.0269775390625,0.244140625,-0.1220703125,-1.40380859375,0.0301513671875,0.0496826171875,-1.009521484375,254.0,90.0,-112.0,101446.0,-1.0070000886917114,0,0
84.807998,0.00152587890625,0.577606201171875,0.81585693359375,0.0269775390625,0.42724609375,0.06103515625,-1.5869140625,0.0301513671875,0.0458984375,-1.01318359375,253.0,90.0,-110.0,101446.0,-1.0070000886917114,0,0
84.814997,0.00146484375,0.578216552734375,0.815399169921875,0.02691650390625,0.9765625,0.0,-1.64794921875,0.02978515625,0.0452880859375,-1.01318359375,253.0,90.0,-110.0,101446.0,-1.0070000886917114,0,0
84.821996,0.001434326171875,0.578125,0.815460205078125,0.02685546875,0.9765625,0.48828125,-1.28173828125,0.025146484375,0.052001953125,-1.0179443359375,253.0,90.0,-110.0,101446.0,-1.0070000886917114,0,0
84.828996,0.001495361328125,0.578125,0.815460205078125,0.02691650390625,-0.18310546875,-0.06103515625,-0.48828125,0.02392578125,0.05224609375,-1.01611328125,253.0,90.0,-110.0,101446.0,-1.0070000886917114,0,0
84.835995,0.001556396484375,0.578094482421875,0.81549072265625,0.026947021484375,-2.0751953125,-0.18310546875,-0.9765625,0.0281982421875,0.0465087890625,-1.018310546875,253.0,90.0,-110.0,101446.0,-1.0070000886917114,0,0
84.842996,0.001922607421875,0.5780029296875,0.8155517578125,0.02734375,-9.6435546875,-1.77001953125,-2.0751953125,0.0296630859375,0.0469970703125,-1.032470703125,253.0,90.0,-110.0,101446.0,-1.0070000886917114,0,0
84.849995,0.00250244140625,0.577880859375,0.81561279296875,0.027862548828125,-10.986328125,-2.01416015625,-3.0517578125,0.0257568359375,0.0440673828125,-1.01708984375,253.0,90.0,-110.0,101446.0,-1.0070000886917114,0,0
84.856995,0.00286865234375,0.577728271484375,0.815704345703125,0.028167724609375,-13.97705078125,-2.38037109375,-4.82177734375,0.02392578125,0.0406494140625,-1.02587890625,253.0,90.0,-110.0,101446.0,-1.0070000886917114,0,0
84.863998,0.004486083984375,0.577239990234375,0.816009521484375,0.02960205078125,-20.8740234375,-3.84521484375,-5.4931640625,0.0189208984375,0.0477294921875,-1.0244140625,253.0,90.0,-110.0,101446.0,-1.0070000886917114,0,0
84.870998,0.005126953125,0.576995849609375,0.816131591796875,0.03009033203125,-24.10888671875,-4.94384765625,-8.1787109375,0.0120849609375,0.03271484375,-1.0216064453125,253.0,90.0,-110.0,101446.0,-1.0070000886917114,0,0
84.877997,0.005828857421875,0.57672119140625,0.81634521484375,0.030364990234375,-25.87890625,-5.55419921875,-10.3759765625,-0.04833984375,-0.032958984375,-1.030517578125,253.0,90.0,-110.0,101446.0,-1.0070000886917114,0,0
84.897998,0.0101318359375,0.574615478515625,0.817596435546875,0.03448486328125,-38.26904296875,-4.45556640625,-17.51708984375,0.0040283203125,0.0855712890625,-1.0093994140625,253.0,90.0,-110.0,101446.0,-1.0070000886917114,0,0
84.904997,0.0118408203125,0.57391357421875,0.817962646484375,0.037109375,-36.376953125,-6.40869140625,-10.80322265625,0.0521240234375,0.1220703125,-0.993408203125,253.0,91.0,-109.0,101445.0,-1.003000020980835,0,0
84.911996,0.013641357421875,0.572845458984375,0.818572998046875,0.039215087890625,-36.7431640625,-4.94384765625,-17.76123046875,0.0269775390625,0.0950927734375,-1.0126953125,253.0,91.0,-109.0,101445.0,-1.003000020980835,0,0
84.918996,0.014892578125,0.572235107421875,0.81890869140625,0.04058837890625,-51.20849609375,-5.18798828125,-20.32470703125,0.0181884765625,0.099609375,-1.04833984375,253.0,91.0,-109.0,101445.0,-1.003000020980835,0,0
84.925996,0.020355224609375,0.56866455078125,0.821014404296875,0.045745849609375,-78.369140625,-17.4560546875,-46.08154296875,-0.0615234375,0.2220458984375,-1.03076171875,253.0,91.0,-109.0,101445.0,-1.003000020980835,0,0
84.933,0.02178955078125,0.567718505859375,0.821533203125,0.04766845703125,-75.50048828125,-8.9111328125,-32.470703125,0.1068115234375,0.019775390625,-1.029541015625,253.0,91.0,-109.0,101445.0,-1.003000020980835,0,0
84.939999,0.026336669921875,0.56500244140625,0.82281494140625,0.05487060546875,-83.3740234375,-8.97216796875,-29.60205078125,0.087646484375,0.1614990234375,-1.0433349609375,253.0,91.0,-109.0,101445.0,-1.003000020980835,0,0
84.946999,0.027191162109375,0.563995361328125,0.82330322265625,0.057464599609375,-74.15771484375,22.64404296875,-31.3720703125,0.039306640625,0.1400146484375,-1.034423828125,253.0,91.0,-109.0,101445.0,-1.003000020980835,0,0
84.953998,0.028045654296875,0.5628662109375,0.8238525390625,0.060302734375,-78.91845703125,27.099609375,-34.5458984375,0.034912109375,0.1590576171875,-1.0369873046875,253.0,91.0,-109.0,101445.0,-1.003000020980835,0,0
84.960998,0.032196044921875,0.559356689453125,0.825347900390625,0.069549560546875,-88.19580078125,23.5595703125,-35.0341796875,0.0279541015625,0.1103515625,-1.0286865234375,253.0,91.0,-109.0,101445.0,-1.003000020980835,0,0
84.967997,0.03399658203125,0.558074951171875,0.825836181640625,0.0728759765625,-108.58154296875,13.73291015625,-38.2080078125,0.0120849609375,0.1458740234375,-1.0078125,253.0,91.0,-109.0,101445.0,-1.003000020980835,0,0
84.987998,0.041839599609375,0.55181884765625,0.828033447265625,0.089813232421875,-101.1962890625,23.4375,-32.40966796875,0.044677734375,0.1719970703125,-0.9747314453125,253.0,91.0,-109.0,101445.0,-1.003000020980835,0,0
84.994997,0.044830322265625,0.549407958984375,0.828765869140625,0.09625244140625,-99.42626953125,22.15576171875,-33.447265625,0.0211181640625,0.2188720703125,-0.9664306640625,253.0,91.0,-109.0,101445.0,-1.003000020980835,0,0
85.001996,0.04901123046875,0.546112060546875,0.82989501953125,0.10284423828125,-112.548828125,4.94384765625,-52.67333984375,0.02783203125,0.2508544921875,-0.9488525390625,253.0,91.0,-109.0,101445.0,-1.003000020980835,0,0
85.008996,0.051422119140625,0.54449462890625,0.830413818359375,0.105987548828125,-112.6708984375,-3.173828125,-48.88916015625,0.05126953125,0.2227783203125,-0.9542236328125,252.0,93.0,-109.0,101446.0,-1.0080000162124634,0,0
85.015995,0.05352783203125,0.5421142578125,0.83148193359375,0.1087646484375,-102.60009765625,-9.1552734375,-32.28759765625,0.0418701171875,0.139892578125,-0.93115234375,252.0,93.0,-109.0,101446.0,-1.0080000162124634,0,0
85.022996,0.060943603515625,0.5396728515625,0.83154296875,0.116241455078125,-105.77392578125,-16.9677734375,-23.37646484375,0.00048828125,0.25,-0.9947509765625,252.0,93.0,-109.0,101446.0,-1.0080000162124634,0,0
85.029995,0.063568115234375,0.5386962890625,0.83160400390625,0.11895751953125,-107.5439453125,-15.9912109375,-27.64892578125,-0.0079345703125,0.2384033203125,-0.97998046875,252.0,93.0,-109.0,101446.0,-1.0080000162124634,0,0
85.036994,0.0689697265625,0.5362548828125,0.8319091796875,0.124725341796875,-110.83984375,-15.0146484375,-35.2783203125,0.0206298828125,0.2384033203125,-0.9520263671875,252.0,93.0,-109.0,101446.0,-1.0080000162124634,0,0
85.043998,0.0740966796875,0.5341796875,0.83197021484375,0.13018798828125,-108.5205078125,-15.625,-26.123046875,0.0008544921875,0.3092041015625,-0.9632568359375,252.0,93.0,-109.0,101446.0,-1.0080000162124634,0,0
85.050998,0.0794677734375,0.532012939453125,0.831939697265625,0.135955810546875,-107.7880859375,-14.0380859375,-27.9541015625,-0.0301513671875,0.3153076171875,-0.9476318359375,252.0,93.0,-109.0,101446.0,-1.0080000162124634,0,0
85.057997,0.0823974609375,0.530914306640625,0.83184814453125,0.1390380859375,-121.337890625,-18.4326171875,-29.35791015625,0.0201416015625,0.3095703125,-0.952880859375,252.0,93.0,-109.0,101446.0,-1.0080000162124634,0,0
85.064996,0.088470458984375,0.528717041015625,0.831573486328125,0.145172119140625,-119.81201171875,-22.76611328125,-28.076171875,0.0074462890625,0.3035888671875,-0.938720703125,252.0,93.0,-109.0,101446.0,-1.0080000162124634,0,0
85.071029,0.088470458984375,0.528717041015625,0.831573486328125,0.145172119140625,-119.81201171875,-22.76611328125,-28.076171875,0.0074462890625,0.3035888671875,-0.938720703125,252.0,93.0,-109.0,101446.0,-1.0080000162124634,0,0
85.077998,0.096282958984375,0.526947021484375,0.83026123046875,0.1539306640625,-100.89111328125,-9.27734375,-12.6953125,0.0125732421875,0.2779541015625,-0.9342041015625,252.0,93.0,-109.0,101446.0,-1.0080000162124634,0,0
85.084997,0.0999755859375,0.525604248046875,0.829681396484375,0.1591796875,-90.8203125,-0.42724609375,-10.80322265625,-0.0010986328125,0.3818359375,-0.9178466796875,252.0,93.0,-109.0,101446.0,-1.0080000162124634,0,0
85.091996,0.102783203125,0.524566650390625,0.829071044921875,0.1639404296875,-75.5615234375,4.8828125,-6.4697265625,0.005126953125,0.357177734375,-0.8990478515625,252.0,93.0,-109.0,101446.0,-1.0080000162124634,0,0
85.098996,0.104156494140625,0.523956298828125,0.828826904296875,0.16619873046875,-73.18115234375,5.126953125,-9.8876953125,-0.018310546875,0.4161376953125,-0.890869140625,252.0,93.0,-109.0,101446.0,-1.0080000162124634,0,0
85.105995,0.106903076171875,0.522674560546875,0.828460693359375,0.1702880859375,-69.4580078125,-2.38037109375,-13.12255859375,0.01123046875,0.3734130859375,-0.882080078125,250.0,94.0,-107.0,101445.0,-1.0010000467300415,0,0
85.112996,0.1102294921875,0.524444580078125,0.8262939453125,0.17327880859375,-66.2841796875,-6.103515625,-10.009765625,0.000732421875,0.382568359375,-0.892333984375,250.0,94.0,-107.0,101445.0,-1.0010000467300415,0,0
85.119995,0.11151123046875,0.524017333984375,0.8260498046875,0.174835205078125,-59.99755859375,-4.21142578125,-6.89697265625,-0.014892578125,0.3841552734375,-0.91015625,250.0,94.0,-107.0,101445.0,-1.0010000467300415,0,0
85.126994,0.114501953125,0.522705078125,0.825531005859375,0.179229736328125,-51.8798828125,-0.1220703125,-8.23974609375,-0.0078125,0.3994140625,-0.9039306640625,250.0,94.0,-107.0,101445.0,-1.0010000467300415,0,0
85.133998,0.11517333984375,0.522308349609375,0.82537841796875,0.1806640625,-47.36328125,6.77490234375,-6.28662109375,0.0081787109375,0.4088134765625,-0.9093017578125,250.0,94.0,-107.0,101445.0,-1.0010000467300415,0,0
85.140998,0.11651611328125,0.5211181640625,0.824951171875,0.185150146484375,-45.2880859375,10.1318359375,-5.67626953125,0.011474609375,0.4171142578125,-0.91357421875,250.0,94.0,-107.0,101445.0,-1.0010000467300415,0,0
85.161996,0.118682861328125,0.519195556640625,0.823974609375,0.193328857421875,-46.81396484375,15.93017578125,-3.60107421875,0.0030517578125,0.44189453125,-0.8968505859375,250.0,94.0,-107.0,101445.0,-1.0010000467300415,0,0
85.168028,0.118682861328125,0.519195556640625,0.823974609375,0.193328857421875,-46.81396484375,15.93017578125,-3.60107421875,0.0030517578125,0.44189453125,-0.8968505859375,250.0,94.0,-107.0,101445.0,-1.0010000467300415,0,0
85.174997,0.120941162109375,0.518280029296875,0.8232421875,0.197418212890625,-78.0029296875,5.92041015625,-4.33349609375,-0.0294189453125,0.447265625,-0.9482421875,250.0,94.0,-107.0,101445.0,-1.0010000467300415,0,0
85.181996,0.125701904296875,0.516937255859375,0.82122802734375,0.20611572265625,-92.4072265625,4.21142578125,-3.0517578125,-0.0101318359375,0.4718017578125,-0.9376220703125,250.0,94.0,-107.0,101445.0,-1.0010000467300415,0,0
85.188996,0.127288818359375,0.516448974609375,0.820526123046875,0.20916748046875,-98.44970703125,7.99560546875,0.79345703125,0.0087890625,0.4932861328125,-0.856201171875,250.0,94.0,-107.0,101445.0,-1.0010000467300415,0,0
85.195996,0.12896728515625,0.5159912109375,0.819793701171875,0.212188720703125,-98.44970703125,4.8828125,0.67138671875,0.0159912109375,0.5078125,-0.83984375,250.0,94.0,-107.0,101445.0,-1.0010000467300415,0,0
85.203,0.1337890625,0.514556884765625,0.817779541015625,0.220245361328125,-82.82470703125,3.72314453125,-2.197265625,0.0093994140625,0.4957275390625,-0.8177490234375,250.0,94.0,-107.0,101445.0,-1.0010000467300415,0,0
85.209999,0.134857177734375,0.51409912109375,0.81732177734375,0.222381591796875,-70.068359375,6.89697265625,-2.38037109375,0.0113525390625,0.4869384765625,-0.8218994140625,248.0,97.0,-105.0,101446.0,-1.0110000371932983,0,0
85.216999,0.135894775390625,0.514434814453125,0.816436767578125,0.224212646484375,-60.1806640625,9.8876953125,-1.52587890625,0.0166015625,0.50244140625,-0.818603515625,248.0,97.0,-105.0,101446.0,-1.0110000371932983,0,0
85.223998,0.137603759765625,0.51348876953125,0.815399169921875,0.2291259765625,-52.1240234375,12.02392578125,-0.30517578125,0.0140380859375,0.5013427734375,-0.8321533203125,248.0,97.0,-105.0,101446.0,-1.0110000371932983,0,0
85.244996,0.140472412109375,0.5123291015625,0.81378173828125,0.235565185546875,-36.7431640625,5.4931640625,-3.7841796875,-0.001953125,0.5401611328125,-0.8199462890625,248.0,97.0,-105.0,101446.0,-1.0110000371932983,0,0
85.251996,0.141571044921875,0.511871337890625,0.813262939453125,0.23773193359375,-35.5224609375,3.173828125,-2.3193359375,0.02490234375,0.5238037109375,-0.833984375,248.0,97.0,-105.0,101446.0,-1.0110000371932983,0,0
85.258028,0.141571044921875,0.511871337890625,0.813262939453125,0.23773193359375,-35.5224609375,3.173828125,-2.3193359375,0.02490234375,0.5238037109375,-0.833984375,248.0,97.0,-105.0,101446.0,-1.0110000371932983,0,0
85.264997,0.142852783203125,0.511322021484375,0.812530517578125,0.2406005859375,-26.18408203125,6.89697265625,-0.54931640625,0.014404296875,0.5390625,-0.82275390625,248.0,97.0,-105.0,101446.0,-1.0110000371932983,0,0
85.271996,0.14288330078125,0.5108642578125,0.8123779296875,0.24200439453125,-20.01953125,10.7421875,-2.5634765625,0.012451171875,0.540771484375,-0.8126220703125,248.0,97.0,-105.0,101446.0,-1.0110000371932983,0,0
85.278996,0.14276123046875,0.510711669921875,0.812347412109375,0.24249267578125,-8.4228515625,10.25390625,-0.1220703125,0.019775390625,0.5400390625,-0.8074951171875,248.0,97.0,-105.0,101446.0,-1.0110000371932983,0,0
85.285995,0.142608642578125,0.510498046875,0.8123779296875,0.242950439453125,-1.0986328125,4.21142578125,-2.44140625,0.0162353515625,0.5401611328125,-0.8037109375,248.0,97.0,-105.0,101446.0,-1.0110000371932983,0,0
85.292996,0.142547607421875,0.51025390625,0.812591552734375,0.242828369140625,2.8076171875,1.953125,-3.96728515625,0.018310546875,0.538818359375,-0.8006591796875,248.0,97.0,-105.0,101446.0,-1.0110000371932983,0,0
85.299995,0.14251708984375,0.510162353515625,0.812713623046875,0.24267578125,5.4931640625,-0.42724609375,-4.638671875,0.0137939453125,0.54345703125,-0.81494140625,248.0,97.0,-105.0,101446.0,-1.0110000371932983,0,0
85.306994,0.14263916015625,0.5098876953125,0.8128662109375,0.24261474609375,-0.42724609375,-0.1220703125,-4.638671875,0.0123291015625,0.55078125,-0.8372802734375,248.0,97.0,-105.0,101444.0,-0.9960000514984131,0,0
85.313998,0.143310546875,0.50982666015625,0.81268310546875,0.243011474609375,-5.2490234375,0.06103515625,-6.89697265625,0.000732421875,0.560546875,-0.840576171875,244.0,98.0,-100.0,101444.0,-0.9960000514984131,0,0
85.320998,0.14373779296875,0.509613037109375,0.812591552734375,0.243499755859375,-18.798828125,-1.15966796875,-4.69970703125,0.010009765625,0.5634765625,-0.8638916015625,244.0,98.0,-100.0,101444.0,-0.9960000514984131,0,0
85.327997,0.14447021484375,0.50933837890625,0.812255859375,0.24468994140625,-20.263671875,0.91552734375,-0.06103515625,0.01904296875,0.5521240234375,-0.8447265625,244.0,98.0,-100.0,101444.0,-0.9960000514984131,0,0
85.334996,0.144989013671875,0.50909423828125,0.81195068359375,0.245880126953125,-17.4560546875,3.23486328125,0.0,0.01171875,0.5552978515625,-0.8265380859375,244.0,98.0,-100.0,101444.0,-0.9960000514984131,0,0
85.341996,0.14520263671875,0.509002685546875,0.81182861328125,0.246429443359375,-16.357421875,3.662109375,0.244140625,0.0115966796875,0.554443359375,-0.82421875,244.0,98.0,-100.0,101444.0,-0.9960000514984131,0,0
85.348995,0.145599365234375,0.508758544921875,0.811370849609375,0.248138427734375,-14.46533203125,6.4697265625,2.5634765625,0.0179443359375,0.5645751953125,-0.840576171875,244.0,98.0,-100.0,101444.0,-0.9960000514984131,0,0
85.355028,0.145599365234375,0.508758544921875,0.811370849609375,0.248138427734375,-14.46533203125,6.4697265625,2.5634765625,0.0179443359375,0.5645751953125,-0.840576171875,244.0,98.0,-100.0,101444.0,-0.9960000514984131,0,0
85.361996,0.145721435546875,0.50860595703125,0.8111572265625,0.249176025390625,-13.0615234375,5.67626953125,1.28173828125,0.01708984375,0.5579833984375,-0.8232421875,244.0,98.0,-100.0,101444.0,-0.9960000514984131,0,0
85.368996,0.145965576171875,0.50830078125,0.810882568359375,0.250518798828125,-12.0849609375,4.57763671875,0.79345703125,0.0166015625,0.55615234375,-0.8148193359375,244.0,98.0,-100.0,101444.0,-0.9960000514984131,0,0
85.375995,0.146148681640625,0.50811767578125,0.810821533203125,0.250946044921875,-10.986328125,3.5400390625,-1.953125,0.0087890625,0.570068359375,-0.7989501953125,244.0,98.0,-100.0,101444.0,-0.9960000514984131,0,0
85.382996,0.146759033203125,0.507904052734375,0.8104248046875,0.252227783203125,-11.962890625,2.0751953125,0.6103515625,0.0120849609375,0.5687255859375,-0.8245849609375,244.0,98.0,-100.0,101444.0,-0.9960000514984131,0,0
85.389995,0.1468505859375,0.507843017578125,0.810333251953125,0.25262451171875,-11.3525390625,2.8076171875,0.0,0.0340576171875,0.5728759765625,-0.8433837890625,244.0,98.0,-100.0,101444.0,-0.9960000514984131,0,0
85.396994,0.147003173828125,0.507781982421875,0.810211181640625,0.25311279296875,-13.3056640625,3.60107421875,1.28173828125,0.014892578125,0.5635986328125,-0.80322265625,244.0,98.0,-100.0,101444.0,-0.9960000514984131,0,0
85.403998,0.147308349609375,0.507568359375,0.809783935546875,0.254608154296875,-13.3056640625,5.31005859375,1.708984375,0.0123291015625,0.5599365234375,-0.80126953125,244.0,98.0,-100.0,101444.0,-0.9960000514984131,0,0
85.424996,0.14849853515625,0.50640869140625,0.80963134765625,0.256805419921875,-14.09912109375,-0.9765625,-0.79345703125,0.013427734375,0.5721435546875,-0.809326171875,239.0,100.0,-92.0,101446.0,-1.0110000371932983,0,0
85.431996,0.1485595703125,0.50628662109375,0.8095703125,0.257171630859375,-10.498046875,3.60107421875,-2.0751953125,0.02685546875,0.5618896484375,-0.81201171875,239.0,100.0,-92.0,101446.0,-1.0110000371932983,0,0
85.438995,0.148681640625,0.506072998046875,0.809478759765625,0.25775146484375,-8.1787109375,3.47900390625,-1.15966796875,0.0262451171875,0.5643310546875,-0.8121337890625,239.0,100.0,-92.0,101446.0,-1.0110000371932983,0,0
85.445028,0.148681640625,0.506072998046875,0.809478759765625,0.25775146484375,-8.1787109375,3.47900390625,-1.15966796875,0.0262451171875,0.5643310546875,-0.8121337890625,239.0,100.0,-92.0,101446.0,-1.0110000371932983,0,0
85.451996,0.14898681640625,0.505859375,0.809295654296875,0.258636474609375,-9.82666015625,0.67138671875,-0.244140625,0.021484375,0.577880859375,-0.8228759765625,239.0,100.0,-92.0,101446.0,-1.0110000371932983,0,0
85.458996,0.149078369140625,0.50579833984375,0.809234619140625,0.258941650390625,-9.33837890625,2.86865234375,-0.18310546875,0.0196533203125,0.565185546875,-0.80712890625,239.0,100.0,-92.0,101446.0,-1.0110000371932983,0,0
85.465996,0.148895263671875,0.5054931640625,0.809173583984375,0.259765625,-4.57763671875,5.7373046875,0.18310546875,0.017822265625,0.5728759765625,-0.804931640625,239.0,100.0,-92.0,101446.0,-1.0110000371932983,0,0
85.473,0.14886474609375,0.505401611328125,0.809173583984375,0.260009765625,-3.5400390625,5.37109375,-0.91552734375,0.0184326171875,0.5828857421875,-0.80029296875,239.0,100.0,-92.0,101446.0,-1.0110000371932983,0,0
85.479999,0.14886474609375,0.50518798828125,0.809173583984375,0.2603759765625,-3.23486328125,2.74658203125,-1.40380859375,0.0174560546875,0.574951171875,-0.7947998046875,239.0,100.0,-92.0,101446.0,-1.0110000371932983,0,0
85.486999,0.14892578125,0.504974365234375,0.809234619140625,0.260589599609375,-0.244140625,1.77001953125,-2.9296875,0.015625,0.5814208984375,-0.797607421875,239.0,100.0,-92.0,101446.0,-1.0110000371932983,0,0
85.507997,0.1502685546875,0.5040283203125,0.80914306640625,0.26190185546875,-20.32470703125,-0.18310546875,-3.35693359375,0.0157470703125,0.5899658203125,-0.8375244140625,239.0,100.0,-92.0,101444.0,-0.9950000643730164,0,0
85.514996,0.150665283203125,0.503875732421875,0.8089599609375,0.2625732421875,-23.8037109375,0.8544921875,-1.03759765625,0.0238037109375,0.577880859375,-0.83447265625,234.0,100.0,-83.0,101444.0,-0.9950000643730164,0,0
85.521996,0.15228271484375,0.50701904296875,0.806427001953125,0.26336669921875,-22.03369140625,5.0048828125,1.40380859375,0.0306396484375,0.5804443359375,-0.8271484375,234.0,100.0,-83.0,101444.0,-0.9950000643730164,0,0
85.528996,0.152313232421875,0.506866455078125,0.80609130859375,0.2646484375,-15.68603515625,9.33837890625,2.74658203125,0.031005859375,0.585693359375,-0.8223876953125,234.0,100.0,-83.0,101444.0,-0.9950000643730164,0,0
85.536,0.152252197265625,0.506683349609375,0.805816650390625,0.265869140625,-15.44189453125,9.82666015625,3.0517578125,0.0242919921875,0.5968017578125,-0.8287353515625,234.0,100.0,-83.0,101444.0,-0.9950000643730164,0,0
85.542032,0.152252197265625,0.506683349609375,0.805816650390625,0.265869140625,-15.44189453125,9.82666015625,3.0517578125,0.0242919921875,0.5968017578125,-0.8287353515625,234.0,100.0,-83.0,101444.0,-0.9950000643730164,0,0
85.548996,0.151885986328125,0.50628662109375,0.80548095703125,0.267822265625,-12.63427734375,13.427734375,2.197265625,0.029541015625,0.5941162109375,-0.811767578125,234.0,100.0,-83.0,101444.0,-0.9950000643730164,0,0
85.555995,0.151336669921875,0.50604248046875,0.80535888671875,0.268951416015625,-8.9111328125,14.83154296875,2.197265625,0.02978515625,0.5882568359375,-0.8001708984375,234.0,100.0,-83.0,101444.0,-0.9950000643730164,0,0
85.562996,0.15106201171875,0.50592041015625,0.805328369140625,0.269500732421875,-8.36181640625,15.380859375,1.953125,0.0252685546875,0.5853271484375,-0.7884521484375,234.0,100.0,-83.0,101444.0,-0.9950000643730164,0,0
85.569995,0.14996337890625,0.50537109375,0.80535888671875,0.27105712890625,-6.591796875,17.51708984375,1.03759765625,0.0250244140625,0.584716796875,-0.7774658203125,234.0,100.0,-83.0,101444.0,-0.9950000643730164,0,0
85.576994,0.14959716796875,0.505157470703125,0.805389404296875,0.271514892578125,-4.21142578125,17.02880859375,-0.3662109375,0.0311279296875,0.5841064453125,-0.7724609375,234.0,100.0,-83.0,101444.0,-0.9950000643730164,0,0
85.583998,0.149322509765625,0.50494384765625,0.805419921875,0.27197265625,-5.615234375,15.5029296875,-1.15966796875,0.02783203125,0.584228515625,-0.77587890625,234.0,100.0,-83.0,101444.0,-0.9950000643730164,0,0
85.590998,0.14837646484375,0.50421142578125,0.805633544921875,0.273223876953125,-4.5166015625,16.2353515625,-2.8076171875,0.040283203125,0.5880126953125,-0.7989501953125,234.0,100.0,-83.0,101444.0,-0.9950000643730164,0,0
85.597997,0.147918701171875,0.50396728515625,0.80572509765625,0.273651123046875,-3.5400390625,18.4326171875,-2.197265625,0.0445556640625,0.59619140625,-0.8118896484375,234.0,100.0,-83.0,101444.0,-0.9950000643730164,0,0
85.604996,0.146026611328125,0.503204345703125,0.806121826171875,0.27484130859375,-1.3427734375,20.5078125,-1.220703125,0.0457763671875,0.593017578125,-0.8143310546875,234.0,100.0,-83.0,101444.0,-0.9950000643730164,0,0
85.611996,0.145233154296875,0.502960205078125,0.8062744140625,0.27532958984375,0.06103515625,25.0244140625,-1.0986328125,0.0428466796875,0.598388671875,-0.824951171875,230.0,101.0,-75.0,101446.0,-1.0070000886917114,0,0
85.618995,0.146636962890625,0.50933837890625,0.802215576171875,0.274688720703125,-1.3427734375,30.33447265625,1.40380859375,0.0526123046875,0.5941162109375,-0.827880859375,230.0,101.0,-75.0,101446.0,-1.0070000886917114,0,0
85.625996,0.143798828125,0.50860595703125,0.802459716796875,0.276885986328125,-1.8310546875,32.958984375,3.23486328125,0.0438232421875,0.602294921875,-0.825439453125,230.0,101.0,-75.0,101446.0,-1.0070000886917114,0,0
85.632027,0.143798828125,0.50860595703125,0.802459716796875,0.276885986328125,-1.8310546875,32.958984375,3.23486328125,0.0438232421875,0.602294921875,-0.825439453125,230.0,101.0,-75.0,101446.0,-1.0070000886917114,0,0
85.638996,0.142059326171875,0.507843017578125,0.802581787109375,0.278778076171875,-10.498046875,39.0625,0.732421875,0.02734375,0.624755859375,-0.81103515625,230.0,101.0,-75.0,101446.0,-1.0070000886917114,0,0
85.645995,0.140045166015625,0.505767822265625,0.80328369140625,0.28155517578125,-12.87841796875,39.6728515625,-2.99072265625,0.0211181640625,0.623046875,-0.8123779296875,230.0,101.0,-75.0,101446.0,-1.0070000886917114,0,0
85.652996,0.13934326171875,0.50494384765625,0.803619384765625,0.282440185546875,-12.6953125,39.4287109375,-13.24462890625,0.0245361328125,0.5582275390625,-0.794677734375,230.0,101.0,-75.0,101446.0,-1.0070000886917114,0,0
85.659995,0.13873291015625,0.503997802734375,0.803985595703125,0.283355712890625,-13.5498046875,38.330078125,-16.54052734375,0.036865234375,0.586669921875,-0.7860107421875,230.0,101.0,-75.0,101446.0,-1.0070000886917114,0,0
85.680998,0.136962890625,0.498870849609375,0.8057861328125,0.28814697265625,-14.5263671875,23.86474609375,-20.6298828125,0.0430908203125,0.6385498046875,-0.7913818359375,230.0,101.0,-75.0,101446.0,-1.0070000886917114,0,0
85.687997,0.136260986328125,0.4974365234375,0.806182861328125,0.289825439453125,-18.1884765625,25.69580078125,-11.29150390625,0.0936279296875,0.5716552734375,-0.790283203125,230.0,101.0,-75.0,101446.0,-1.0070000886917114,0,0
85.694996,0.1358642578125,0.496856689453125,0.8062744140625,0.290802001953125,-17.9443359375,27.83203125,-7.38525390625,0.0672607421875,0.600830078125,-0.7872314453125,230.0,101.0,-75.0,101446.0,-1.0070000886917114,0,0
85.701996,0.134613037109375,0.49591064453125,0.80633544921875,0.29278564453125,-16.2353515625,33.87451171875,-0.3662109375,0.091064453125,0.57177734375,-0.7962646484375,230.0,101.0,-75.0,101446.0,-1.0070000886917114,0,0
85.708995,0.132598876953125,0.495208740234375,0.806365966796875,0.2947998046875,-8.85009765625,41.748046875,3.5400390625,0.1065673828125,0.626220703125,-0.802734375,230.0,101.0,-75.0,101446.0,-1.0070000886917114,0,0
85.715996,0.13128662109375,0.494873046875,0.806427001953125,0.295806884765625,-4.7607421875,46.20361328125,4.94384765625,0.1124267578125,0.6429443359375,-0.830810546875,225.0,101.0,-65.0,101444.0,-0.9940000176429749,0,0
85.722995,0.13873291015625,0.523162841796875,0.788116455078125,0.29302978515625,-1.8310546875,50.048828125,9.27734375,0.1123046875,0.62255859375,-0.8370361328125,225.0,101.0,-65.0,101444.0,-0.9940000176429749,0,0
85.729022,0.13873291015625,0.523162841796875,0.788116455078125,0.29302978515625,-1.8310546875,50.048828125,9.27734375,0.1123046875,0.62255859375,-0.8370361328125,225.0,101.0,-65.0,101444.0,-0.9940000176429749,0,0
85.735995,0.13311767578125,0.52105712890625,0.7879638671875,0.299774169921875,-18.73779296875,62.6220703125,5.126953125,0.107421875,0.6715087890625,-0.7774658203125,225.0,101.0,-65.0,101444.0,-0.9940000176429749,0,0
85.742996,0.13262939453125,0.520233154296875,0.78765869140625,0.3021240234375,-49.86572265625,54.26025390625,1.52587890625,0.067138671875,0.6593017578125,-0.815185546875,225.0,101.0,-65.0,101444.0,-0.9940000176429749,0,0
85.749995,0.132537841796875,0.5184326171875,0.78680419921875,0.307464599609375,-70.6787109375,48.33984375,-2.197265625,0.087646484375,0.6405029296875,-0.8031005859375,225.0,101.0,-65.0,101444.0,-0.9940000176429749,0,0
85.770998,0.133209228515625,0.51373291015625,0.784149169921875,0.321533203125,-71.10595703125,50.048828125,-6.40869140625,0.10791015625,0.685302734375,-0.7392578125,225.0,101.0,-65.0,101444.0,-0.9940000176429749,0,0
85.777997,0.132232666015625,0.5113525390625,0.78369140625,0.326873779296875,-54.5654296875,62.5,-9.8876953125,0.13720703125,0.6392822265625,-0.729248046875,225.0,101.0,-65.0,101444.0,-0.9940000176429749,0,0
85.784996,0.131378173828125,0.5101318359375,0.7835693359375,0.32940673828125,-51.26953125,65.85693359375,-9.58251953125,0.1484375,0.6331787109375,-0.7425537109375,225.0,101.0,-65.0,101444.0,-0.9940000176429749,0,0
85.791996,0.12841796875,0.506805419921875,0.782958984375,0.3370361328125,-49.31640625,67.56591796875,-3.11279296875,0.1475830078125,0.640869140625,-0.7791748046875,225.0,101.0,-65.0,101444.0,-0.9940000176429749,0,0
85.798996,0.127166748046875,0.505889892578125,0.78265380859375,0.339599609375,-49.072265625,73.6083984375,4.638671875,0.1490478515625,0.642333984375,-0.783203125,225.0,101.0,-65.0,101444.0,-0.9940000176429749,0,0
85.806,0.125579833984375,0.505035400390625,0.7823486328125,0.342132568359375,-43.64013671875,78.9794921875,8.9111328125,0.163818359375,0.64111328125,-0.7685546875,225.0,101.0,-65.0,101444.0,-0.9940000176429749,0,0
85.812999,0.12115478515625,0.503448486328125,0.781951904296875,0.346923828125,-27.40478515625,95.39794921875,17.51708984375,0.169677734375,0.6392822265625,-0.8023681640625,221.0,102.0,-57.0,101445.0,-1.003000020980835,0,0
85.819032,0.12115478515625,0.503448486328125,0.781951904296875,0.346923828125,-27.40478515625,95.39794921875,17.51708984375,0.169677734375,0.6392822265625,-0.8023681640625,221.0,102.0,-57.0,101445.0,-1.003000020980835,0,0
85.825996,0.1187744140625,0.518463134765625,0.770477294921875,0.351318359375,4.08935546875,124.69482421875,33.87451171875,0.2120361328125,0.646240234375,-0.758544921875,221.0,102.0,-57.0,101445.0,-1.003000020980835,0,0
85.833,0.104217529296875,0.516357421875,0.7713623046875,0.357025146484375,32.2265625,145.32470703125,37.2314453125,0.19921875,0.6461181640625,-0.722412109375,221.0,102.0,-57.0,101445.0,-1.003000020980835,0,0
85.839999,0.0992431640625,0.51544189453125,0.77178955078125,0.35882568359375,35.94970703125,147.15576171875,30.21240234375,0.185302734375,0.6627197265625,-0.7191162109375,221.0,102.0,-57.0,101445.0,-1.003000020980835,0,0
85.846995,0.08685302734375,0.51214599609375,0.772796630859375,0.364532470703125,33.69140625,144.775390625,24.5361328125,0.2037353515625,0.686767578125,-0.682373046875,221.0,102.0,-57.0,101445.0,-1.003000020980835,0,0
85.853998,0.08441162109375,0.511016845703125,0.77288818359375,0.366485595703125,-4.5166015625,96.19140625,7.62939453125,0.1866455078125,0.6529541015625,-0.6387939453125,221.0,102.0,-57.0,101445.0,-1.003000020980835,0,0
85.860998,0.082977294921875,0.50994873046875,0.7728271484375,0.368408203125,-20.8740234375,73.73046875,0.244140625,0.1748046875,0.6392822265625,-0.6165771484375,221.0,102.0,-57.0,101445.0,-1.003000020980835,0,0
85.867997,0.08343505859375,0.506378173828125,0.77197265625,0.375030517578125,-37.04833984375,54.87060546875,-8.23974609375,0.1685791015625,0.6458740234375,-0.6220703125,221.0,102.0,-57.0,101445.0,-1.003000020980835,0,0
85.874996,0.0841064453125,0.50506591796875,0.77154541015625,0.37750244140625,-69.39697265625,34.24072265625,-22.8271484375,0.218994140625,0.6519775390625,-0.6268310546875,221.0,102.0,-57.0,101445.0,-1.003000020980835,0,0
85.881996,0.084991455078125,0.502044677734375,0.7708740234375,0.38262939453125,-69.76318359375,39.6728515625,-24.90234375,0.22412109375,0.6248779296875,-0.616943359375,221.0,102.0,-57.0,101445.0,-1.003000020980835,0,0
85.888995,0.085540771484375,0.49896240234375,0.7703857421875,0.387542724609375,-62.744140625,44.98291015625,-25.634765625,0.2332763671875,0.6162109375,-0.6177978515625,221.0,102.0,-57.0,101445.0,-1.003000020980835,0,0
85.895996,0.085906982421875,0.4974365234375,0.77001953125,0.390106201171875,-63.4765625,44.43359375,-25.0244140625,0.2254638671875,0.6767578125,-0.571044921875,221.0,102.0,-57.0,101445.0,-1.003000020980835,0,0
85.902995,0.08648681640625,0.494598388671875,0.769317626953125,0.394927978515625,-63.8427734375,42.8466796875,-24.84130859375,0.255126953125,0.6068115234375,-0.5997314453125,221.0,102.0,-57.0,101445.0,-1.003000020980835,0,0
85.909994,0.0880126953125,0.491790771484375,0.768463134765625,0.3997802734375,-69.3359375,29.78515625,-26.611328125,0.2532958984375,0.6875,-0.590087890625,221.0,102.0,-57.0,101445.0,-1.003000020980835,0,0
85.916026,0.0880126953125,0.491790771484375,0.768463134765625,0.3997802734375,-69.3359375,29.78515625,-26.611328125,0.2532958984375,0.6875,-0.590087890625,221.0,102.0,-57.0,101445.0,-1.003000020980835,0,0
85.922996,0.09332275390625,0.49664306640625,0.7626953125,0.403564453125,-69.15283203125,27.64892578125,-22.705078125,0.268310546875,0.6739501953125,-0.6126708984375,213.0,100.0,-44.0,101444.0,-0.9950000643730164,0,0
85.943998,0.09307861328125,0.49444580078125,0.75982666015625,0.411651611328125,-9.3994140625,18.00537109375,20.20263671875,0.310302734375,0.7396240234375,-0.661865234375,213.0,100.0,-44.0,101444.0,-0.9950000643730164,0,0
85.950998,0.09136962890625,0.495025634765625,0.7591552734375,0.41259765625,0.9765625,21.42333984375,21.1181640625,0.2801513671875,0.73095703125,-0.654296875,213.0,100.0,-44.0,101444.0,-0.9950000643730164,0,0
85.957997,0.0897216796875,0.49517822265625,0.75872802734375,0.413543701171875,-0.244140625,23.25439453125,18.06640625,0.27099609375,0.726318359375,-0.65478515625,213.0,100.0,-44.0,101444.0,-0.9950000643730164,0,0
85.964996,0.08905029296875,0.49505615234375,0.758514404296875,0.414276123046875,-8.60595703125,27.34375,11.71875,0.244140625,0.722412109375,-0.6407470703125,213.0,100.0,-44.0,101444.0,-0.9950000643730164,0,0
85.971996,0.088226318359375,0.494476318359375,0.7579345703125,0.41619873046875,-20.81298828125,26.9775390625,5.2490234375,0.2578125,0.75244140625,-0.6470947265625,213.0,100.0,-44.0,101444.0,-0.9950000643730164,0,0
85.978995,0.087615966796875,0.49371337890625,0.75738525390625,0.41815185546875,-19.53125,22.216796875,1.5869140625,0.281982421875,0.742431640625,-0.6253662109375,213.0,100.0,-44.0,101444.0,-0.9950000643730164,0,0
85.985996,0.0875244140625,0.493408203125,0.75714111328125,0.41900634765625,-19.47021484375,17.4560546875,0.67138671875,0.273193359375,0.7406005859375,-0.625244140625,213.0,100.0,-44.0,101444.0,-0.9950000643730164,0,0
85.992995,0.0882568359375,0.49273681640625,0.756256103515625,0.421234130859375,-20.8740234375,6.53076171875,-0.42724609375,0.26611328125,0.7430419921875,-0.6173095703125,213.0,100.0,-44.0,101444.0,-0.9950000643730164,0,0
85.999994,0.08868408203125,0.492462158203125,0.7559814453125,0.421966552734375,-24.2919921875,4.2724609375,-3.60107421875,0.2587890625,0.722900390625,-0.6021728515625,213.0,100.0,-44.0,101444.0,-0.9950000643730164,0,0
86.006026,0.08868408203125,0.492462158203125,0.7559814453125,0.421966552734375,-24.2919921875,4.2724609375,-3.60107421875,0.2587890625,0.722900390625,-0.6021728515625,213.0,100.0,-44.0,101444.0,-0.9950000643730164,0,0
86.012996,0.088958740234375,0.49102783203125,0.755706787109375,0.424072265625,-16.66259765625,13.36669921875,-7.87353515625,0.28173828125,0.724853515625,-0.59228515625,203.0,97.0,-32.0,101444.0,-0.9970000386238098,0,0
86.033998,0.089508056640625,0.490692138671875,0.754730224609375,0.42608642578125,-2.685546875,3.41796875,-2.44140625,0.294921875,0.7386474609375,-0.6070556640625,203.0,97.0,-32.0,101444.0,-0.9970000386238098,0,0
86.040998,0.0894775390625,0.4906005859375,0.7547607421875,0.426116943359375,1.5869140625,1.52587890625,-2.0751953125,0.296630859375,0.7459716796875,-0.61865234375,203.0,97.0,-32.0,101444.0,-0.9970000386238098,0,0
86.047997,0.08941650390625,0.490509033203125,0.754852294921875,0.42608642578125,3.173828125,1.40380859375,-2.685546875,0.2911376953125,0.7454833984375,-0.620361328125,203.0,97.0,-32.0,101444.0,-0.9970000386238098,0,0
86.054996,0.0894775390625,0.48944091796875,0.755340576171875,0.426422119140625,1.52587890625,5.615234375,-8.9111328125,0.2816162109375,0.763427734375,-0.6007080078125,203.0,97.0,-32.0,101444.0,-0.9970000386238098,0,0
86.061996,0.08966064453125,0.48876953125,0.75555419921875,0.426788330078125,-7.4462890625,9.3994140625,-17.88330078125,0.2742919921875,0.7515869140625,-0.605224609375,203.0,97.0,-32.0,101444.0,-0.9970000386238098,0,0
86.068996,0.089935302734375,0.487945556640625,0.75579833984375,0.427215576171875,-10.19287109375,11.29150390625,-22.64404296875,0.27978515625,0.757080078125,-0.6075439453125,203.0,97.0,-32.0,101444.0,-0.9970000386238098,0,0
86.076,0.089874267578125,0.485076904296875,0.75726318359375,0.42791748046875,-8.23974609375,12.939453125,-27.7099609375,0.2816162109375,0.748779296875,-0.593994140625,203.0,97.0,-32.0,101444.0,-0.9970000386238098,0,0
86.082999,0.088348388671875,0.484405517578125,0.758636474609375,0.426544189453125,67.56591796875,16.41845703125,-28.1982421875,0.371337890625,0.55224609375,-0.4447021484375,203.0,97.0,-32.0,101444.0,-0.9970000386238098,0,0
86.089999,0.090850830078125,0.481903076171875,0.76275634765625,0.421478271484375,60.11962890625,-4.150390625,-38.57421875,0.2156982421875,0.7342529296875,-0.5098876953125,203.0,97.0,-32.0,101444.0,-0.9970000386238098,0,0
86.096998,0.092742919921875,0.48114013671875,0.76385498046875,0.419952392578125,18.798828125,-49.74365234375,-57.31201171875,0.2374267578125,0.7254638671875,-0.622314453125,203.0,97.0,-32.0,101444.0,-0.9970000386238098,0,0
86.103027,0.092742919921875,0.48114013671875,0.76385498046875,0.419952392578125,18.798828125,-49.74365234375,-57.31201171875,0.2374267578125,0.7254638671875,-0.622314453125,203.0,97.0,-32.0,101444.0,-0.9970000386238098,0,0
86.109999,0.09814453125,0.47601318359375,0.76824951171875,0.416534423828125,9.70458984375,-27.83203125,-61.8896484375,0.2437744140625,0.7208251953125,-0.6380615234375,203.0,97.0,-32.0,101444.0,-0.9970000386238098,0,0
86.116999,0.098846435546875,0.474822998046875,0.769195556640625,0.415985107421875,10.7421875,-4.5166015625,-60.24169921875,0.2432861328125,0.7706298828125,-0.6243896484375,195.0,93.0,-21.0,101444.0,-0.9970000386238098,0,0
86.123998,0.099365234375,0.4736328125,0.770233154296875,0.415313720703125,17.7001953125,-4.82177734375,-50.1708984375,0.2620849609375,0.7197265625,-0.6153564453125,195.0,93.0,-21.0,101444.0,-0.9970000386238098,0,0
86.130998,0.101318359375,0.4708251953125,0.7735595703125,0.41180419921875,23.37646484375,-10.92529296875,-46.142578125,0.24169921875,0.6922607421875,-0.6024169921875,195.0,93.0,-21.0,101444.0,-0.9970000386238098,0,0
86.137997,0.10198974609375,0.470001220703125,0.77484130859375,0.41021728515625,37.29248046875,-22.64404296875,-48.27880859375,0.2132568359375,0.6783447265625,-0.6158447265625,195.0,93.0,-21.0,101444.0,-0.9970000386238098,0,0
86.144996,0.103363037109375,0.468353271484375,0.77752685546875,0.40667724609375,42.29736328125,-24.90234375,-51.33056640625,0.2081298828125,0.731201171875,-0.6339111328125,195.0,93.0,-21.0,101444.0,-0.9970000386238098,0,0
86.151996,0.1038818359375,0.46697998046875,0.780303955078125,0.402740478515625,55.2978515625,-17.9443359375,-41.50390625,0.2349853515625,0.72509765625,-0.686767578125,195.0,93.0,-21.0,101444.0,-0.9970000386238098,0,0
86.158995,0.103668212890625,0.466583251953125,0.781646728515625,0.400634765625,61.34033203125,-15.9912109375,-33.203125,0.24853515625,0.7293701171875,-0.7088623046875,195.0,93.0,-21.0,101444.0,-0.9970000386238098,0,0
86.165996,0.103240966796875,0.466522216796875,0.782867431640625,0.3984375,64.3310546875,-16.4794921875,-21.728515625,0.242431640625,0.6849365234375,-0.7025146484375,195.0,93.0,-21.0,101444.0,-0.9970000386238098,0,0
86.172995,0.102630615234375,0.46630859375,0.78619384765625,0.392242431640625,58.9599609375,-18.9208984375,-22.15576171875,0.1903076171875,0.740234375,-0.6737060546875,195.0,93.0,-21.0,101444.0,-0.9970000386238098,0,0
86.179994,0.102569580078125,0.466064453125,0.787261962890625,0.39044189453125,52.91748046875,-17.333984375,-23.98681640625,0.2025146484375,0.7120361328125,-0.6668701171875,195.0,93.0,-21.0,101444.0,-0.9970000386238098,0,0
86.186998,0.102813720703125,0.4652099609375,0.789093017578125,0.38763427734375,36.9873046875,-13.24462890625,-27.587890625,0.2110595703125,0.7159423828125,-0.664306640625,195.0,93.0,-21.0,101444.0,-0.9970000386238098,0,0
86.206994,0.10394287109375,0.46331787109375,0.7918701171875,0.383941650390625,16.29638671875,-8.85009765625,-15.19775390625,0.2178955078125,0.7318115234375,-0.7044677734375,195.0,93.0,-21.0,101444.0,-0.9970000386238098,0,0
86.213998,0.10369873046875,0.4632568359375,0.792694091796875,0.38238525390625,25.57373046875,-6.103515625,-6.53076171875,0.217041015625,0.711181640625,-0.7265625,195.0,93.0,-21.0,101444.0,-0.9970000386238098,0,0
86.220998,0.1036376953125,0.4644775390625,0.7918701171875,0.382659912109375,3.35693359375,12.02392578125,5.79833984375,0.2802734375,0.70458984375,-0.5838623046875,186.0,91.0,-12.0,101444.0,-0.9970000386238098,0,0
86.227997,0.101593017578125,0.4652099609375,0.792205810546875,0.381591796875,22.705078125,18.4326171875,14.5263671875,0.23095703125,0.73046875,-0.79638671875,186.0,91.0,-12.0,101444.0,-0.9970000386238098,0,0
86.234996,0.09967041015625,0.466552734375,0.7930908203125,0.37860107421875,55.17578125,-3.35693359375,15.0146484375,0.2205810546875,0.740234375,-0.802734375,186.0,91.0,-12.0,101444.0,-0.9970000386238098,0,0
86.241996,0.097015380859375,0.4678955078125,0.79412841796875,0.37542724609375,57.7392578125,-0.06103515625,15.93017578125,0.2279052734375,0.7442626953125,-0.8092041015625,186.0,91.0,-12.0,101444.0,-0.9970000386238098,0,0
86.248995,0.095703125,0.468414306640625,0.79461669921875,0.374114990234375,53.89404296875,9.8876953125,17.39501953125,0.18603515625,0.747802734375,-0.77880859375,186.0,91.0,-12.0,101444.0,-0.9970000386238098,0,0
86.255996,0.092254638671875,0.468994140625,0.795867919921875,0.371551513671875,39.6728515625,14.34326171875,10.009765625,0.1937255859375,0.7266845703125,-0.7227783203125,186.0,91.0,-12.0,101444.0,-0.9970000386238098,0,0
86.262995,0.090972900390625,0.46893310546875,0.796356201171875,0.370941162109375,37.17041015625,18.37158203125,5.9814453125,0.205078125,0.7203369140625,-0.7291259765625,186.0,91.0,-12.0,101444.0,-0.9930000305175781,0,0
86.269994,0.089569091796875,0.468963623046875,0.79693603515625,0.369964599609375,45.22705078125,20.93505859375,4.45556640625,0.21630859375,0.7041015625,-0.769775390625,186.0,91.0,-12.0,101444.0,-0.9930000305175781,0,0
86.276998,0.08502197265625,0.468719482421875,0.7994384765625,0.365997314453125,61.03515625,18.85986328125,-0.6103515625,0.2110595703125,0.6864013671875,-0.7369384765625,186.0,91.0,-12.0,101444.0,-0.9930000305175781,0,0
86.296994,0.07818603515625,0.4683837890625,0.802886962890625,0.360321044921875,47.91259765625,15.380859375,5.37109375,0.182861328125,0.6259765625,-0.6812744140625,186.0,91.0,-12.0,101444.0,-0.9930000305175781,0,0
86.303998,0.077484130859375,0.468231201171875,0.80316162109375,0.36004638671875,19.8974609375,15.869140625,1.5869140625,0.1717529296875,0.6175537109375,-0.6640625,186.0,91.0,-12.0,101444.0,-0.9930000305175781,0,0
86.310998,0.0771484375,0.468017578125,0.803192138671875,0.3603515625,0.06103515625,15.0146484375,-0.30517578125,0.178955078125,0.6085205078125,-0.6341552734375,186.0,91.0,-12.0,101444.0,-0.9930000305175781,0,0
86.317997,0.07666015625,0.46759033203125,0.802978515625,0.361480712890625,-10.6201171875,14.46533203125,1.64794921875,0.2044677734375,0.60595703125,-0.6475830078125,176.0,91.0,-5.0,101444.0,-0.9930000305175781,0,0
86.324996,0.076080322265625,0.46990966796875,0.801513671875,0.361785888671875,7.4462890625,19.287109375,16.05224609375,0.23291015625,0.5933837890625,-0.7095947265625,176.0,91.0,-5.0,101444.0,-0.9930000305175781,0,0
86.331996,0.07269287109375,0.471405029296875,0.801513671875,0.360595703125,44.61669921875,21.42333984375,35.5224609375,0.2484130859375,0.6014404296875,-0.7322998046875,176.0,91.0,-5.0,101444.0,-0.9930000305175781,0,0
86.338995,0.0679931640625,0.473907470703125,0.80194091796875,0.357269287109375,63.5986328125,19.10400390625,42.48046875,0.25048828125,0.6007080078125,-0.7288818359375,176.0,91.0,-5.0,101444.0,-0.9930000305175781,0,0
86.345996,0.0654296875,0.4754638671875,0.802276611328125,0.354888916015625,95.21484375,10.8642578125,51.33056640625,0.24560546875,0.608154296875,-0.729736328125,176.0,91.0,-5.0,101444.0,-0.9930000305175781,0,0
