Time stamp(sec),quaternion_0,quaternion_1,quaternion_2,quaternion_3,roll_angular_rate,pitch_angular_rate,yaw_angular_rate,acc_X,acc_Y,acc_Z,mag_X,mag_Y,mag_Z,pressure,altitude
0.016286500002024695,0.805999755859375,-0.39190673828125,-0.32720947265625,-0.299407958984375,-0.1220703125,-0.244140625,0.0,0.7645263671875,-0.43994140625,0.4796142578125,-218.0,194.0,45.0,102818.0,-12.357000350952148,1000,1000
0.016374099999666214,0.805999755859375,-0.391937255859375,-0.32720947265625,-0.299407958984375,0.06103515625,-0.1220703125,-0.06103515625,0.7677001953125,-0.4375,0.48046875,-218.0,194.0,45.0,102818.0,-12.357000350952148,1000,1000
0.016445400018710643,0.805999755859375,-0.391937255859375,-0.32720947265625,-0.299407958984375,0.06103515625,-0.1220703125,-0.06103515625,0.7677001953125,-0.4375,0.48046875,-218.0,194.0,45.0,102818.0,-12.357000350952148,1000,1000
0.016514600021764636,0.805999755859375,-0.391937255859375,-0.32720947265625,-0.299407958984375,-0.18310546875,0.0,0.06103515625,0.76513671875,-0.4385986328125,0.479736328125,-218.0,194.0,45.0,102818.0,-12.357000350952148,1000,1000
0.016584299999522045,0.805999755859375,-0.391937255859375,-0.32720947265625,-0.299407958984375,0.0,-0.244140625,-0.1220703125,0.7659912109375,-0.43798828125,0.482177734375,-218.0,194.0,45.0,102818.0,-12.357000350952148,1000,1000
0.016652800026349723,0.805999755859375,-0.391937255859375,-0.32720947265625,-0.299407958984375,0.0,-0.18310546875,0.0,0.766357421875,-0.43701171875,0.4805908203125,-218.0,194.0,45.0,102818.0,-12.357000350952148,1000,1000
0.016722600004868582,0.805999755859375,-0.391937255859375,-0.32720947265625,-0.299407958984375,-0.1220703125,-0.06103515625,-0.06103515625,0.7645263671875,-0.43701171875,0.4813232421875,-218.0,194.0,45.0,102818.0,-12.357000350952148,1000,1000
0.017113600013544783,0.805999755859375,-0.391937255859375,-0.32720947265625,-0.299407958984375,-0.1220703125,-0.30517578125,0.06103515625,0.7667236328125,-0.4385986328125,0.4808349609375,-218.0,194.0,45.0,102818.0,-12.357000350952148,1000,1000
0.017187200020998716,0.805999755859375,-0.391937255859375,-0.32720947265625,-0.299407958984375,-0.1220703125,-0.18310546875,-0.1220703125,0.7637939453125,-0.4366455078125,0.47998046875,-218.0,194.0,45.0,102818.0,-12.357000350952148,1000,1000
0.017254400008823723,0.805999755859375,-0.391937255859375,-0.32720947265625,-0.29937744140625,-0.18310546875,-0.06103515625,-0.06103515625,0.765625,-0.4393310546875,0.4794921875,-218.0,194.0,45.0,102818.0,-12.357000350952148,1000,1000
0.017319400009000674,0.805999755859375,-0.391937255859375,-0.32720947265625,-0.29937744140625,-0.18310546875,-0.06103515625,-0.06103515625,0.765625,-0.4393310546875,0.4794921875,-218.0,195.0,45.0,102818.0,-12.356000900268555,1000,1000
0.01738530001603067,0.805908203125,-0.39202880859375,-0.32708740234375,-0.29962158203125,0.06103515625,0.0,0.0,0.76318359375,-0.43701171875,0.4801025390625,-218.0,195.0,45.0,102818.0,-12.356000900268555,1000,1000
0.017449500010116026,0.805908203125,-0.39202880859375,-0.32708740234375,-0.29962158203125,0.06103515625,0.0,0.0,0.76318359375,-0.43701171875,0.4801025390625,-218.0,195.0,45.0,102818.0,-12.356000900268555,1000,1000
0.08389000000897795,0.805908203125,-0.39202880859375,-0.327117919921875,-0.29962158203125,-0.1220703125,-0.244140625,-0.1220703125,0.76708984375,-0.437255859375,0.4794921875,-218.0,195.0,45.0,102818.0,-12.356000900268555,1000,1000
0.08398700001998805,0.805908203125,-0.39202880859375,-0.327117919921875,-0.29962158203125,-0.3662109375,-0.18310546875,0.06103515625,0.7640380859375,-0.4364013671875,0.481689453125,-218.0,195.0,45.0,102818.0,-12.356000900268555,1000,1000
0.08407950002583675,0.805908203125,-0.39202880859375,-0.327117919921875,-0.29962158203125,-0.1220703125,0.0,0.0,0.764404296875,-0.439208984375,0.4815673828125,-218.0,195.0,45.0,102818.0,-12.356000900268555,1000,1000
0.08416930001112632,0.805908203125,-0.39202880859375,-0.327117919921875,-0.29962158203125,-0.1220703125,-0.1220703125,0.244140625,0.76416015625,-0.437744140625,0.4803466796875,-218.0,195.0,45.0,102818.0,-12.356000900268555,1000,1000
0.08426010000403039,0.805908203125,-0.391998291015625,-0.327117919921875,-0.29962158203125,-0.06103515625,-0.1220703125,0.0,0.7647705078125,-0.43603515625,0.4803466796875,-218.0,195.0,45.0,102818.0,-12.356000900268555,1000,1000
0.08436300000175834,0.805908203125,-0.391998291015625,-0.327117919921875,-0.29962158203125,0.0,-0.18310546875,0.06103515625,0.765869140625,-0.4365234375,0.480224609375,-218.0,195.0,45.0,102818.0,-12.356000900268555,1000,1000
0.08445380002376623,0.805908203125,-0.391998291015625,-0.327117919921875,-0.29962158203125,0.0,-0.18310546875,0.06103515625,0.765869140625,-0.4365234375,0.480224609375,-218.0,195.0,45.0,102818.0,-12.356000900268555,1000,1000
0.08453600000939332,0.805908203125,-0.391998291015625,-0.327117919921875,-0.29962158203125,-0.06103515625,-0.06103515625,0.0,0.76318359375,-0.4375,0.4805908203125,-218.0,195.0,45.0,102818.0,-12.356000900268555,1000,1000
0.08462150002014823,0.805908203125,-0.391998291015625,-0.327117919921875,-0.29962158203125,-0.244140625,-0.1220703125,0.06103515625,0.7655029296875,-0.4375,0.4805908203125,-218.0,195.0,45.0,102818.0,-12.356000900268555,1000,1000
0.08470659999875352,0.805908203125,-0.391998291015625,-0.327117919921875,-0.29962158203125,-0.18310546875,-0.06103515625,-0.06103515625,0.765869140625,-0.4375,0.4814453125,-218.0,195.0,45.0,102818.0,-12.356000900268555,1000,1000
0.08479050002642907,0.805908203125,-0.391998291015625,-0.327117919921875,-0.29962158203125,-0.18310546875,-0.1220703125,0.0,0.7672119140625,-0.4368896484375,0.478759765625,-218.0,195.0,45.0,102818.0,-12.356000900268555,1000,1000
0.14869760000146925,0.805908203125,-0.391998291015625,-0.327117919921875,-0.29962158203125,0.0,0.0,0.1220703125,0.7650146484375,-0.43798828125,0.4818115234375,-218.0,195.0,45.0,102818.0,-12.356000900268555,1000,1000
0.14877620001789182,0.805908203125,-0.391998291015625,-0.32708740234375,-0.29962158203125,0.0,-0.244140625,-0.1220703125,0.7650146484375,-0.4395751953125,0.4813232421875,-218.0,195.0,45.0,102818.0,-12.356000900268555,1000,1000
0.14884560002246872,0.805908203125,-0.391998291015625,-0.32708740234375,-0.29962158203125,-0.1220703125,-0.244140625,0.0,0.76611328125,-0.4388427734375,0.4815673828125,-219.0,194.0,45.0,102818.0,-12.358000755310059,1000,1000
0.14891310001257807,0.805908203125,-0.391998291015625,-0.32708740234375,-0.29962158203125,-0.1220703125,-0.244140625,0.0,0.76611328125,-0.4388427734375,0.4815673828125,-219.0,194.0,45.0,102818.0,-12.358000755310059,1000,1000
0.14898200001334772,0.80584716796875,-0.39208984375,-0.326995849609375,-0.299835205078125,0.1220703125,-0.1220703125,0.0,0.7659912109375,-0.4368896484375,0.480224609375,-219.0,194.0,45.0,102818.0,-12.358000755310059,1000,1000
0.16025710001122206,0.80584716796875,-0.39208984375,-0.326995849609375,-0.299835205078125,-0.1220703125,-0.42724609375,-0.06103515625,0.76513671875,-0.435302734375,0.4796142578125,-219.0,194.0,45.0,102818.0,-12.358000755310059,1000,1000
0.16033579999930225,0.80584716796875,-0.392059326171875,-0.326995849609375,-0.299835205078125,-0.1220703125,-0.18310546875,0.1220703125,0.7655029296875,-0.4381103515625,0.482666015625,-219.0,194.0,45.0,102818.0,-12.358000755310059,1000,1000
0.16040400002384558,0.80584716796875,-0.39208984375,-0.326995849609375,-0.299835205078125,-0.06103515625,0.06103515625,-0.1220703125,0.765380859375,-0.4385986328125,0.479736328125,-219.0,194.0,45.0,102818.0,-12.358000755310059,1000,1000
0.160473700001603,0.80584716796875,-0.392059326171875,-0.326995849609375,-0.299835205078125,-0.1220703125,-0.42724609375,0.0,0.7628173828125,-0.437255859375,0.4814453125,-219.0,194.0,45.0,102818.0,-12.358000755310059,1000,1000
0.16054140002233908,0.80584716796875,-0.39208984375,-0.326995849609375,-0.299835205078125,0.1220703125,-0.18310546875,0.18310546875,0.7625732421875,-0.43798828125,0.4791259765625,-219.0,194.0,45.0,102818.0,-12.358000755310059,1000,1000
0.16060950001701713,0.80584716796875,-0.392059326171875,-0.326995849609375,-0.299835205078125,-0.06103515625,-0.1220703125,0.18310546875,0.7637939453125,-0.435791015625,0.4798583984375,-219.0,194.0,45.0,102818.0,-12.358000755310059,1000,1000
0.16067650000331923,0.80584716796875,-0.392059326171875,-0.326995849609375,-0.299835205078125,-0.244140625,-0.1220703125,-0.06103515625,0.76416015625,-0.4373779296875,0.4805908203125,-219.0,194.0,45.0,102818.0,-12.358000755310059,1000,1000
0.21202760000596754,0.80584716796875,-0.392059326171875,-0.326995849609375,-0.299835205078125,-0.244140625,-0.1220703125,-0.06103515625,0.76416015625,-0.4373779296875,0.4805908203125,-219.0,194.0,45.0,102818.0,-12.358000755310059,1000,1000
0.21210450000944547,0.80584716796875,-0.39208984375,-0.326995849609375,-0.299835205078125,-0.1220703125,-0.1220703125,-0.1220703125,0.7630615234375,-0.4378662109375,0.479248046875,-219.0,194.0,45.0,102818.0,-12.358000755310059,1000,1000
0.21217330000945367,0.80584716796875,-0.39208984375,-0.326995849609375,-0.299835205078125,0.18310546875,-0.18310546875,0.1220703125,0.7640380859375,-0.437255859375,0.480224609375,-219.0,194.0,45.0,102818.0,-12.358000755310059,1000,1000
0.21224449999863282,0.80584716796875,-0.39208984375,-0.326995849609375,-0.299835205078125,-0.1220703125,-0.06103515625,-0.244140625,0.7646484375,-0.4383544921875,0.47998046875,-219.0,194.0,45.0,102818.0,-12.358000755310059,1000,1000
0.21231329999864101,0.80584716796875,-0.39208984375,-0.326995849609375,-0.299835205078125,-0.1220703125,-0.18310546875,-0.1220703125,0.766845703125,-0.4381103515625,0.4791259765625,-219.0,194.0,45.0,102818.0,-12.358000755310059,1000,1000
0.21238170002470724,0.80584716796875,-0.39208984375,-0.326995849609375,-0.299835205078125,0.1220703125,-0.18310546875,0.0,0.7666015625,-0.438720703125,0.4791259765625,-219.0,194.0,45.0,102818.0,-12.358000755310059,1000,1000
0.21250000002328306,0.80584716796875,-0.39208984375,-0.326995849609375,-0.299835205078125,0.06103515625,0.06103515625,-0.1220703125,0.7650146484375,-0.440185546875,0.48193359375,-219.0,194.0,45.0,102818.0,-12.358000755310059,1000,1000
0.21256600000197068,0.80584716796875,-0.39208984375,-0.326995849609375,-0.299835205078125,0.0,-0.30517578125,0.0,0.7637939453125,-0.438232421875,0.481689453125,-219.0,194.0,45.0,102818.0,-12.358000755310059,1000,1000
0.21263190000900067,0.80584716796875,-0.39208984375,-0.326995849609375,-0.299835205078125,0.30517578125,-0.1220703125,-0.06103515625,0.7662353515625,-0.4368896484375,0.4813232421875,-219.0,194.0,45.0,102818.0,-12.358000755310059,1000,1000
0.21269750001374632,0.80584716796875,-0.39208984375,-0.326995849609375,-0.299835205078125,0.1220703125,0.0,0.0,0.766357421875,-0.4373779296875,0.4801025390625,-219.0,194.0,45.0,102818.0,-12.358000755310059,1000,1000
0.21276390002458356,0.80584716796875,-0.39208984375,-0.326995849609375,-0.299835205078125,0.1220703125,0.0,0.0,0.766357421875,-0.4373779296875,0.4801025390625,-219.0,194.0,45.0,102818.0,-12.358000755310059,1000,1000
0.21285930002341047,0.80584716796875,-0.39208984375,-0.32696533203125,-0.299835205078125,-0.1220703125,-0.1220703125,-0.18310546875,0.7633056640625,-0.4395751953125,0.4830322265625,-219.0,193.0,43.0,102818.0,-12.357000350952148,1000,1000
0.275230700004613,0.805816650390625,-0.392120361328125,-0.326934814453125,-0.299957275390625,0.18310546875,-0.06103515625,0.06103515625,0.764892578125,-0.43701171875,0.479736328125,-219.0,193.0,43.0,102818.0,-12.357000350952148,1000,1000
0.27531970001291484,0.805816650390625,-0.392120361328125,-0.326904296875,-0.299957275390625,0.18310546875,-0.1220703125,-0.1220703125,0.763916015625,-0.4375,0.4822998046875,-219.0,193.0,43.0,102818.0,-12.357000350952148,1000,1000
0.2753894000197761,0.805816650390625,-0.392120361328125,-0.326934814453125,-0.299957275390625,-0.244140625,0.0,0.06103515625,0.7657470703125,-0.437255859375,0.48193359375,-219.0,193.0,43.0,102818.0,-12.357000350952148,1000,1000
0.27545529999770224,0.805816650390625,-0.392120361328125,-0.326904296875,-0.299957275390625,-0.1220703125,-0.244140625,0.0,0.76611328125,-0.43798828125,0.480712890625,-219.0,193.0,43.0,102818.0,-12.357000350952148,1000,1000
0.27552470000227913,0.805816650390625,-0.392120361328125,-0.326904296875,-0.299957275390625,0.06103515625,-0.1220703125,0.06103515625,0.7652587890625,-0.4371337890625,0.4822998046875,-219.0,193.0,43.0,102818.0,-12.357000350952148,1000,1000
0.27775440001278184,0.805816650390625,-0.392120361328125,-0.326904296875,-0.299957275390625,0.06103515625,-0.1220703125,0.06103515625,0.7652587890625,-0.4371337890625,0.4822998046875,-219.0,193.0,43.0,102818.0,-12.357000350952148,1000,1000
0.2779242000251543,0.805816650390625,-0.392120361328125,-0.326934814453125,-0.299957275390625,0.06103515625,-0.06103515625,0.0,0.766845703125,-0.4373779296875,0.4810791015625,-219.0,193.0,43.0,102818.0,-12.357000350952148,1000,1000
0.2780110000167042,0.805816650390625,-0.392120361328125,-0.326934814453125,-0.299957275390625,-0.1220703125,-0.244140625,0.06103515625,0.76416015625,-0.435791015625,0.4814453125,-219.0,193.0,43.0,102818.0,-12.357000350952148,1000,1000
0.27808180000283755,0.805816650390625,-0.392120361328125,-0.326934814453125,-0.299957275390625,0.0,-0.42724609375,0.06103515625,0.765625,-0.4366455078125,0.4803466796875,-219.0,193.0,43.0,102818.0,-12.357000350952148,1000,1000
0.27814650000073016,0.805816650390625,-0.392120361328125,-0.326934814453125,-0.299957275390625,-0.06103515625,-0.18310546875,0.06103515625,0.766357421875,-0.436767578125,0.47998046875,-219.0,193.0,43.0,102818.0,-12.357000350952148,1000,1000
0.27821260000928305,0.805816650390625,-0.392120361328125,-0.326934814453125,-0.299957275390625,-0.18310546875,-0.18310546875,0.0,0.7677001953125,-0.4390869140625,0.4803466796875,-219.0,193.0,43.0,102818.0,-12.357000350952148,1000,1000
0.3377051000134088,0.805816650390625,-0.39208984375,-0.326934814453125,-0.299957275390625,0.0,-0.06103515625,-0.06103515625,0.7662353515625,-0.43603515625,0.4805908203125,-219.0,193.0,43.0,102818.0,-12.357000350952148,1000,1000
0.33778490000986494,0.805816650390625,-0.39208984375,-0.326934814453125,-0.299957275390625,0.1220703125,-0.1220703125,0.0,0.7645263671875,-0.43505859375,0.48046875,-219.0,193.0,43.0,102818.0,-12.357000350952148,1000,1000
0.3378536000091117,0.805816650390625,-0.39208984375,-0.326934814453125,-0.299957275390625,0.1220703125,-0.1220703125,0.0,0.7645263671875,-0.43505859375,0.48046875,-219.0,193.0,43.0,102818.0,-12.357000350952148,1000,1000
0.33792230000835843,0.805816650390625,-0.39208984375,-0.326934814453125,-0.299957275390625,-0.06103515625,-0.244140625,0.06103515625,0.7635498046875,-0.4388427734375,0.4808349609375,-219.0,193.0,43.0,102818.0,-12.357000350952148,1000,1000
0.3379902000015136,0.805816650390625,-0.39208984375,-0.326934814453125,-0.299957275390625,-0.06103515625,-0.18310546875,0.0,0.7655029296875,-0.4381103515625,0.4786376953125,-219.0,193.0,43.0,102818.0,-12.357000350952148,1000,1000
0.3388514000107534,0.8057861328125,-0.39215087890625,-0.326873779296875,-0.300079345703125,-0.06103515625,-0.18310546875,0.0,0.7655029296875,-0.4381103515625,0.4786376953125,-219.0,194.0,44.0,102818.0,-12.357000350952148,1000,1000
0.33892050001304597,0.8057861328125,-0.39215087890625,-0.326873779296875,-0.300079345703125,0.06103515625,-0.244140625,0.1220703125,0.7669677734375,-0.438720703125,0.481201171875,-219.0,194.0,44.0,102818.0,-12.357000350952148,1000,1000
0.33898720002616756,0.8057861328125,-0.39215087890625,-0.326873779296875,-0.300079345703125,-0.244140625,-0.244140625,0.0,0.767333984375,-0.4378662109375,0.481201171875,-219.0,194.0,44.0,102818.0,-12.357000350952148,1000,1000
0.33905210002558306,0.8057861328125,-0.39215087890625,-0.326873779296875,-0.300079345703125,0.1220703125,-0.244140625,-0.1220703125,0.76416015625,-0.4365234375,0.481689453125,-219.0,194.0,44.0,102818.0,-12.357000350952148,1000,1000
0.33911700002499856,0.8057861328125,-0.39215087890625,-0.326873779296875,-0.300079345703125,-0.244140625,-0.244140625,-0.1220703125,0.767333984375,-0.43798828125,0.4791259765625,-219.0,194.0,44.0,102818.0,-12.357000350952148,1000,1000
0.3391812000190839,0.8057861328125,-0.39215087890625,-0.326873779296875,-0.300079345703125,-0.06103515625,-0.244140625,0.0,0.76611328125,-0.4381103515625,0.4801025390625,-219.0,194.0,44.0,102818.0,-12.357000350952148,1000,1000
0.33924910001223907,0.8057861328125,-0.39215087890625,-0.326873779296875,-0.300079345703125,-0.06103515625,-0.244140625,0.0,0.76611328125,-0.4381103515625,0.4801025390625,-219.0,194.0,44.0,102818.0,-12.357000350952148,1000,1000
0.41040230001090094,0.8057861328125,-0.39215087890625,-0.326873779296875,-0.300048828125,0.06103515625,-0.18310546875,-0.06103515625,0.7650146484375,-0.4361572265625,0.4818115234375,-219.0,194.0,44.0,102818.0,-12.357000350952148,1000,1000
0.4104824000096414,0.8057861328125,-0.39215087890625,-0.326873779296875,-0.300079345703125,-0.1220703125,-0.18310546875,0.06103515625,0.7650146484375,-0.4349365234375,0.479736328125,-219.0,194.0,44.0,102818.0,-12.357000350952148,1000,1000
0.41054880002047867,0.8057861328125,-0.39215087890625,-0.326873779296875,-0.300079345703125,-0.1220703125,-0.18310546875,0.06103515625,0.7650146484375,-0.4349365234375,0.479736328125,-219.0,194.0,44.0,102818.0,-12.360000610351562,1000,1000
0.4106165000121109,0.8057861328125,-0.39215087890625,-0.326873779296875,-0.300079345703125,-0.244140625,-0.18310546875,0.0,0.7645263671875,-0.4368896484375,0.48193359375,-219.0,194.0,44.0,102818.0,-12.360000610351562,1000,1000
0.41068480000831187,0.8057861328125,-0.39215087890625,-0.326873779296875,-0.300048828125,0.0,-0.18310546875,0.0,0.7655029296875,-0.43896484375,0.4794921875,-219.0,194.0,44.0,102818.0,-12.360000610351562,1000,1000
0.4107489000016358,0.8057861328125,-0.39215087890625,-0.326873779296875,-0.300048828125,-0.06103515625,-0.06103515625,-0.1220703125,0.7664794921875,-0.4390869140625,0.4796142578125,-219.0,194.0,44.0,102818.0,-12.360000610351562,1000,1000
0.42500240000663325,0.8057861328125,-0.39215087890625,-0.326873779296875,-0.300048828125,-0.1220703125,-0.06103515625,0.0,0.7633056640625,-0.43701171875,0.47998046875,-219.0,194.0,44.0,102818.0,-12.360000610351562,1000,1000
0.4251036000205204,0.8057861328125,-0.39215087890625,-0.326873779296875,-0.300048828125,0.30517578125,-0.06103515625,-0.1220703125,0.7635498046875,-0.436279296875,0.48046875,-219.0,194.0,44.0,102818.0,-12.360000610351562,1000,1000
0.42517110001062974,0.8057861328125,-0.39215087890625,-0.326873779296875,-0.300048828125,0.1220703125,0.0,-0.1220703125,0.763427734375,-0.4361572265625,0.478759765625,-219.0,194.0,44.0,102818.0,-12.360000610351562,1000,1000
0.4252396000083536,0.8057861328125,-0.39215087890625,-0.326873779296875,-0.300048828125,0.1220703125,0.0,-0.1220703125,0.763427734375,-0.4361572265625,0.478759765625,-219.0,194.0,44.0,102818.0,-12.360000610351562,1000,1000
0.4253186999994796,0.8057861328125,-0.39215087890625,-0.326873779296875,-0.300048828125,0.1220703125,-0.18310546875,-0.1220703125,0.7640380859375,-0.43701171875,0.4798583984375,-219.0,194.0,44.0,102818.0,-12.360000610351562,1000,1000
0.4253871000255458,0.8057861328125,-0.39215087890625,-0.326873779296875,-0.300048828125,0.1220703125,-0.30517578125,-0.06103515625,0.7646484375,-0.436767578125,0.481689453125,-219.0,194.0,44.0,102818.0,-12.360000610351562,1000,1000
0.468546400021296,0.805755615234375,-0.392181396484375,-0.326812744140625,-0.3001708984375,-0.06103515625,-0.244140625,0.0,0.76708984375,-0.4398193359375,0.47900390625,-219.0,194.0,44.0,102818.0,-12.360000610351562,1000,1000
0.46862440000404604,0.805755615234375,-0.3922119140625,-0.326812744140625,-0.3001708984375,-0.06103515625,0.1220703125,-0.1220703125,0.7659912109375,-0.4398193359375,0.4805908203125,-219.0,194.0,44.0,102818.0,-12.360000610351562,1000,1000
0.46869300000253133,0.805755615234375,-0.392181396484375,-0.326812744140625,-0.3001708984375,0.06103515625,-0.244140625,-0.1220703125,0.76416015625,-0.4376220703125,0.4803466796875,-219.0,194.0,44.0,102818.0,-12.360000610351562,1000,1000
0.4687603000202216,0.805755615234375,-0.392181396484375,-0.326812744140625,-0.3001708984375,-0.06103515625,-0.3662109375,-0.1220703125,0.7646484375,-0.43505859375,0.4814453125,-219.0,194.0,44.0,102818.0,-12.360000610351562,1000,1000
0.4688274000072852,0.805755615234375,-0.392181396484375,-0.326812744140625,-0.3001708984375,-0.06103515625,-0.3662109375,-0.1220703125,0.7646484375,-0.43505859375,0.4814453125,-219.0,194.0,44.0,102818.0,-12.360000610351562,1000,1000
0.46892330000991933,0.805755615234375,-0.392181396484375,-0.326812744140625,-0.3001708984375,-0.18310546875,-0.244140625,-0.06103515625,0.764892578125,-0.436767578125,0.48095703125,-219.0,194.0,44.0,102818.0,-12.360000610351562,1000,1000
0.4690075000107754,0.805755615234375,-0.392181396484375,-0.326812744140625,-0.3001708984375,0.06103515625,-0.1220703125,0.06103515625,0.7667236328125,-0.438720703125,0.4810791015625,-219.0,194.0,44.0,102818.0,-12.360000610351562,1000,1000
0.4690712000010535,0.805755615234375,-0.392181396484375,-0.326812744140625,-0.3001708984375,-0.244140625,-0.244140625,0.0,0.764404296875,-0.4385986328125,0.48193359375,-219.0,194.0,44.0,102818.0,-12.360000610351562,1000,1000
0.4691354000242427,0.805755615234375,-0.392181396484375,-0.326812744140625,-0.3001708984375,0.06103515625,0.1220703125,0.06103515625,0.7662353515625,-0.4378662109375,0.4805908203125,-219.0,194.0,44.0,102818.0,-12.360000610351562,1000,1000
0.4691989000129979,0.805755615234375,-0.392181396484375,-0.326812744140625,-0.3001708984375,-0.1220703125,0.0,0.06103515625,0.7659912109375,-0.4368896484375,0.4810791015625,-219.0,194.0,44.0,102818.0,-12.360000610351562,1000,1000
0.4692642000154592,0.805755615234375,-0.392181396484375,-0.326812744140625,-0.3001708984375,-0.18310546875,-0.3662109375,0.1220703125,0.765869140625,-0.4384765625,0.4820556640625,-219.0,194.0,44.0,102818.0,-12.360000610351562,1000,1000
0.4693293000163976,0.805755615234375,-0.392181396484375,-0.326812744140625,-0.3001708984375,-0.06103515625,-0.06103515625,-0.244140625,0.762939453125,-0.43603515625,0.4794921875,-219.0,194.0,44.0,102818.0,-12.360000610351562,1000,1000
0.5294592000136618,0.805755615234375,-0.392181396484375,-0.326812744140625,-0.3001708984375,-0.1220703125,-0.1220703125,-0.18310546875,0.766845703125,-0.4375,0.48046875,-219.0,194.0,44.0,102818.0,-12.360000610351562,1000,1000
0.529537900001742,0.805755615234375,-0.392181396484375,-0.326812744140625,-0.3001708984375,0.0,-0.18310546875,0.0,0.7657470703125,-0.43896484375,0.4818115234375,-219.0,194.0,44.0,102818.0,-12.360000610351562,1000,1000
0.5296076000086032,0.805755615234375,-0.392181396484375,-0.326812744140625,-0.3001708984375,-0.244140625,0.0,0.06103515625,0.7669677734375,-0.4378662109375,0.479736328125,-219.0,194.0,44.0,102818.0,-12.360000610351562,1000,1000
0.5296773000154644,0.805755615234375,-0.392181396484375,-0.326812744140625,-0.3001708984375,-0.06103515625,-0.18310546875,0.30517578125,0.7645263671875,-0.4388427734375,0.4793701171875,-219.0,194.0,44.0,102818.0,-12.360000610351562,1000,1000
0.529943400004413,0.805755615234375,-0.392181396484375,-0.326812744140625,-0.3001708984375,-0.1220703125,0.06103515625,-0.06103515625,0.7630615234375,-0.43896484375,0.480712890625,-219.0,194.0,44.0,102818.0,-12.360000610351562,1000,1000
0.5300181000202429,0.805755615234375,-0.392181396484375,-0.326812744140625,-0.3001708984375,-0.3662109375,-0.18310546875,0.18310546875,0.76416015625,-0.43701171875,0.48193359375,-219.0,194.0,44.0,102818.0,-12.360000610351562,1000,1000
0.5300897000124678,0.80584716796875,-0.39208984375,-0.326904296875,-0.299957275390625,0.06103515625,-0.18310546875,0.18310546875,0.76171875,-0.4376220703125,0.481201171875,-217.0,195.0,42.0,102818.0,-12.360000610351562,1000,1000
0.5302035000058822,0.80584716796875,-0.39208984375,-0.326904296875,-0.299957275390625,-0.244140625,-0.18310546875,-0.1220703125,0.763671875,-0.4376220703125,0.4803466796875,-217.0,195.0,42.0,102818.0,-12.360000610351562,1000,1000
0.530272200005129,0.80584716796875,-0.39208984375,-0.326904296875,-0.299957275390625,0.0,-0.06103515625,-0.18310546875,0.76318359375,-0.4366455078125,0.479736328125,-217.0,195.0,42.0,102818.0,-12.360000610351562,1000,1000
0.5303401999990456,0.80584716796875,-0.39208984375,-0.326904296875,-0.299957275390625,0.0,-0.06103515625,-0.18310546875,0.76318359375,-0.4366455078125,0.479736328125,-217.0,195.0,42.0,102818.0,-12.360000610351562,1000,1000
0.5304077000182588,0.805816650390625,-0.39208984375,-0.326904296875,-0.299957275390625,0.0,-0.1220703125,-0.244140625,0.7664794921875,-0.4381103515625,0.479248046875,-217.0,195.0,42.0,102818.0,-12.360000610351562,1000,1000
0.5958453000057489,0.80584716796875,-0.39208984375,-0.326904296875,-0.299957275390625,-0.244140625,-0.18310546875,0.06103515625,0.765380859375,-0.4364013671875,0.4814453125,-217.0,195.0,42.0,102818.0,-12.360000610351562,1000,1000
0.5959206000261474,0.80584716796875,-0.39208984375,-0.326904296875,-0.299957275390625,-0.18310546875,0.0,-0.244140625,0.7652587890625,-0.438720703125,0.4796142578125,-217.0,195.0,42.0,102818.0,-12.360000610351562,1000,1000
0.5959909000084735,0.805816650390625,-0.39208984375,-0.326904296875,-0.299957275390625,-0.18310546875,0.0,-0.244140625,0.7652587890625,-0.438720703125,0.4796142578125,-217.0,195.0,42.0,102818.0,-12.362000465393066,1000,1000
0.5960572000185493,0.805816650390625,-0.39208984375,-0.326904296875,-0.299957275390625,0.0,0.0,-0.06103515625,0.7640380859375,-0.43505859375,0.4786376953125,-217.0,195.0,42.0,102818.0,-12.362000465393066,1000,1000
0.5998086000035983,0.805816650390625,-0.392120361328125,-0.326904296875,-0.299957275390625,0.18310546875,-0.1220703125,-0.06103515625,0.7647705078125,-0.4384765625,0.47802734375,-217.0,195.0,42.0,102818.0,-12.362000465393066,1000,1000
0.5998763000243343,0.805816650390625,-0.392120361328125,-0.326904296875,-0.299957275390625,0.18310546875,-0.1220703125,-0.06103515625,0.7647705078125,-0.4384765625,0.47802734375,-217.0,195.0,42.0,102818.0,-12.362000465393066,1000,1000
0.5999443000182509,0.805816650390625,-0.392120361328125,-0.326904296875,-0.299957275390625,-0.18310546875,0.0,0.1220703125,0.765380859375,-0.4373779296875,0.4810791015625,-217.0,195.0,42.0,102818.0,-12.362000465393066,1000,1000
0.6000109000015073,0.805816650390625,-0.392120361328125,-0.326904296875,-0.299957275390625,0.0,-0.3662109375,-0.06103515625,0.767333984375,-0.4384765625,0.4803466796875,-217.0,195.0,42.0,102818.0,-12.362000465393066,1000,1000
0.6000758000009228,0.805816650390625,-0.392120361328125,-0.326904296875,-0.299957275390625,-0.1220703125,-0.06103515625,0.06103515625,0.765869140625,-0.4384765625,0.4805908203125,-217.0,195.0,42.0,102818.0,-12.362000465393066,1000,1000
0.6001414000056684,0.805816650390625,-0.392120361328125,-0.326904296875,-0.2999267578125,-0.18310546875,-0.1220703125,0.06103515625,0.7652587890625,-0.438720703125,0.4808349609375,-217.0,195.0,42.0,102818.0,-12.362000465393066,1000,1000
0.6574347999994643,0.805816650390625,-0.392120361328125,-0.326904296875,-0.299957275390625,0.06103515625,-0.06103515625,0.06103515625,0.7637939453125,-0.4365234375,0.48095703125,-217.0,195.0,42.0,102818.0,-12.362000465393066,1000,1000
0.6575171000149567,0.805816650390625,-0.392120361328125,-0.326904296875,-0.299957275390625,-0.1220703125,0.0,0.0,0.76513671875,-0.4368896484375,0.480224609375,-219.0,195.0,41.0,102818.0,-12.362000465393066,1000,1000
0.6575906000216492,0.805816650390625,-0.392120361328125,-0.326904296875,-0.299957275390625,0.0,-0.1220703125,0.18310546875,0.7647705078125,-0.43798828125,0.4810791015625,-219.0,195.0,41.0,102818.0,-12.362000465393066,1000,1000
0.6576620000123512,0.805816650390625,-0.392120361328125,-0.326904296875,-0.299957275390625,0.0,-0.1220703125,0.18310546875,0.7647705078125,-0.43798828125,0.4810791015625,-219.0,195.0,41.0,102818.0,-12.362000465393066,1000,1000
0.6577359000220895,0.80584716796875,-0.39208984375,-0.326904296875,-0.299957275390625,-0.1220703125,-0.30517578125,-0.06103515625,0.7659912109375,-0.4365234375,0.4818115234375,-219.0,195.0,41.0,102818.0,-12.362000465393066,1000,1000
0.6582610000041313,0.80584716796875,-0.392120361328125,-0.326904296875,-0.299957275390625,0.0,-0.48828125,0.1220703125,0.76416015625,-0.4378662109375,0.4805908203125,-219.0,195.0,41.0,102818.0,-12.362000465393066,1000,1000
0.6583350000146311,0.80584716796875,-0.392120361328125,-0.326904296875,-0.2999267578125,-0.18310546875,-0.18310546875,0.06103515625,0.7647705078125,-0.438232421875,0.4801025390625,-219.0,195.0,41.0,102818.0,-12.362000465393066,1000,1000
0.6584071000106633,0.80584716796875,-0.392120361328125,-0.326904296875,-0.2999267578125,-0.1220703125,-0.244140625,-0.06103515625,0.763427734375,-0.439208984375,0.4822998046875,-219.0,195.0,41.0,102818.0,-12.362000465393066,1000,1000
0.6584777000243776,0.80584716796875,-0.392120361328125,-0.326904296875,-0.2999267578125,0.06103515625,-0.18310546875,-0.06103515625,0.7655029296875,-0.439208984375,0.47998046875,-219.0,195.0,41.0,102818.0,-12.362000465393066,1000,1000
0.6585470999998506,0.80584716796875,-0.392120361328125,-0.326873779296875,-0.2999267578125,0.0,-0.244140625,0.18310546875,0.7640380859375,-0.4373779296875,0.4801025390625,-219.0,195.0,41.0,102818.0,-12.362000465393066,1000,1000
0.6586172000097577,0.80584716796875,-0.392120361328125,-0.326873779296875,-0.2999267578125,-0.06103515625,-0.18310546875,-0.244140625,0.76416015625,-0.4390869140625,0.4815673828125,-219.0,195.0,41.0,102818.0,-12.360000610351562,1000,1000
0.6586887000012212,0.80584716796875,-0.392120361328125,-0.326873779296875,-0.2999267578125,0.06103515625,-0.06103515625,0.06103515625,0.7650146484375,-0.438232421875,0.480224609375,-219.0,195.0,41.0,102818.0,-12.360000610351562,1000,1000
0.7297095000103582,0.80584716796875,-0.392120361328125,-0.326873779296875,-0.2999267578125,-0.1220703125,-0.244140625,0.0,0.764404296875,-0.4378662109375,0.48095703125,-219.0,195.0,41.0,102818.0,-12.360000610351562,1000,1000
0.7297882999991998,0.80584716796875,-0.392120361328125,-0.326873779296875,-0.2999267578125,-0.18310546875,-0.42724609375,0.0,0.765380859375,-0.4390869140625,0.4814453125,-219.0,195.0,41.0,102818.0,-12.360000610351562,1000,1000
0.7298630000150297,0.80584716796875,-0.392120361328125,-0.326873779296875,-0.2999267578125,-0.18310546875,0.06103515625,-0.1220703125,0.7655029296875,-0.4376220703125,0.4813232421875,-219.0,195.0,41.0,102818.0,-12.360000610351562,1000,1000
0.7299350000103004,0.80584716796875,-0.392120361328125,-0.326873779296875,-0.2999267578125,0.1220703125,-0.18310546875,-0.1220703125,0.766357421875,-0.436767578125,0.48095703125,-219.0,195.0,41.0,102818.0,-12.360000610351562,1000,1000
0.7300278000184335,0.80584716796875,-0.392120361328125,-0.326873779296875,-0.2999267578125,-0.1220703125,-0.48828125,-0.1220703125,0.767333984375,-0.43603515625,0.4803466796875,-219.0,195.0,41.0,102818.0,-12.360000610351562,1000,1000
0.7300976999977138,0.80584716796875,-0.392120361328125,-0.326873779296875,-0.2999267578125,0.06103515625,-0.18310546875,0.06103515625,0.76611328125,-0.4384765625,0.4798583984375,-219.0,195.0,41.0,102818.0,-12.360000610351562,1000,1000
0.7301675000053365,0.80584716796875,-0.392120361328125,-0.326873779296875,-0.2999267578125,-0.06103515625,-0.18310546875,0.1220703125,0.766845703125,-0.436767578125,0.4808349609375,-219.0,195.0,41.0,102818.0,-12.360000610351562,1000,1000
0.7302358000015374,0.80584716796875,-0.392120361328125,-0.326904296875,-0.2999267578125,0.30517578125,0.06103515625,-0.244140625,0.7650146484375,-0.4376220703125,0.48046875,-220.0,195.0,42.0,102818.0,-12.360000610351562,1000,1000
0.7303029000177048,0.80584716796875,-0.392120361328125,-0.326904296875,-0.2999267578125,0.30517578125,0.06103515625,-0.244140625,0.7650146484375,-0.4376220703125,0.48046875,-220.0,195.0,42.0,102818.0,-12.360000610351562,1000,1000
0.7303720000199974,0.8057861328125,-0.39215087890625,-0.32684326171875,-0.300048828125,-0.18310546875,0.06103515625,0.1220703125,0.7647705078125,-0.437255859375,0.4803466796875,-220.0,195.0,42.0,102818.0,-12.360000610351562,1000,1000
0.7304402000154369,0.8057861328125,-0.39215087890625,-0.32684326171875,-0.300048828125,-0.06103515625,-0.244140625,-0.1220703125,0.7645263671875,-0.4375,0.4788818359375,-220.0,195.0,42.0,102818.0,-12.360000610351562,1000,1000
0.7882387000136077,0.8057861328125,-0.39215087890625,-0.32684326171875,-0.300048828125,0.06103515625,-0.06103515625,0.244140625,0.7657470703125,-0.4383544921875,0.479248046875,-220.0,195.0,42.0,102818.0,-12.360000610351562,1000,1000
0.7883158000186086,0.8057861328125,-0.39215087890625,-0.32684326171875,-0.300048828125,-0.30517578125,-0.30517578125,-0.06103515625,0.7645263671875,-0.437255859375,0.48193359375,-220.0,195.0,42.0,102818.0,-12.360000610351562,1000,1000
0.7883840000140481,0.8057861328125,-0.39215087890625,-0.32684326171875,-0.300048828125,0.0,0.06103515625,0.1220703125,0.7657470703125,-0.4375,0.4793701171875,-220.0,195.0,42.0,102818.0,-12.360000610351562,1000,1000
0.78845469999942,0.8057861328125,-0.39215087890625,-0.32684326171875,-0.300048828125,-0.06103515625,-0.1220703125,-0.06103515625,0.76416015625,-0.4385986328125,0.47998046875,-220.0,195.0,42.0,102818.0,-12.360000610351562,1000,1000
0.790191500011133,0.8057861328125,-0.39215087890625,-0.32684326171875,-0.300048828125,-0.06103515625,-0.1220703125,-0.06103515625,0.76416015625,-0.4385986328125,0.47998046875,-220.0,195.0,42.0,102818.0,-12.360000610351562,1000,1000
0.7902655000216328,0.8057861328125,-0.392181396484375,-0.32684326171875,-0.300048828125,-0.1220703125,-0.1220703125,-0.06103515625,0.7647705078125,-0.4378662109375,0.481689453125,-220.0,195.0,42.0,102818.0,-12.361001014709473,1000,1000
0.7903345000231639,0.8057861328125,-0.392181396484375,-0.32684326171875,-0.300048828125,0.0,-0.1220703125,-0.06103515625,0.7618408203125,-0.4378662109375,0.4808349609375,-220.0,195.0,42.0,102818.0,-12.361001014709473,1000,1000
0.7904028000193648,0.8057861328125,-0.392181396484375,-0.32684326171875,-0.300018310546875,0.0,-0.1220703125,-0.18310546875,0.7620849609375,-0.4381103515625,0.478759765625,-220.0,195.0,42.0,102818.0,-12.361001014709473,1000,1000
0.79047070001252,0.8057861328125,-0.392181396484375,-0.32684326171875,-0.300018310546875,-0.18310546875,-0.06103515625,0.0,0.76171875,-0.4384765625,0.478759765625,-220.0,195.0,42.0,102818.0,-12.361001014709473,1000,1000
0.7905401000170968,0.8057861328125,-0.392181396484375,-0.32684326171875,-0.300018310546875,0.06103515625,-0.18310546875,0.0,0.7640380859375,-0.4388427734375,0.4796142578125,-220.0,195.0,42.0,102818.0,-12.361001014709473,1000,1000
0.7906052000180352,0.8057861328125,-0.392181396484375,-0.32684326171875,-0.300018310546875,-0.06103515625,0.06103515625,-0.18310546875,0.762939453125,-0.43798828125,0.4788818359375,-220.0,195.0,42.0,102818.0,-12.361001014709473,1000,1000
0.8747028000070713,0.8057861328125,-0.3922119140625,-0.32684326171875,-0.300018310546875,-0.18310546875,-0.3662109375,-0.1220703125,0.7650146484375,-0.43798828125,0.4813232421875,-220.0,195.0,42.0,102818.0,-12.361001014709473,1000,1000
0.8747946000075899,0.8057861328125,-0.3922119140625,-0.32684326171875,-0.300018310546875,-0.18310546875,-0.3662109375,-0.1220703125,0.7650146484375,-0.43798828125,0.4813232421875,-220.0,195.0,42.0,102818.0,-12.361001014709473,1000,1000
0.8748675000097137,0.8057861328125,-0.3922119140625,-0.32684326171875,-0.300018310546875,0.1220703125,-0.18310546875,-0.06103515625,0.7664794921875,-0.4393310546875,0.480224609375,-220.0,195.0,43.0,102818.0,-12.361001014709473,1000,1000
0.8749972000077832,0.805755615234375,-0.392242431640625,-0.3267822265625,-0.30010986328125,-0.06103515625,-0.3662109375,0.0,0.76416015625,-0.43798828125,0.4810791015625,-220.0,195.0,43.0,102818.0,-12.361001014709473,1000,1000
0.8750722999975551,0.805755615234375,-0.392242431640625,-0.3267822265625,-0.30010986328125,0.244140625,0.0,-0.244140625,0.765869140625,-0.43798828125,0.479736328125,-220.0,195.0,43.0,102818.0,-12.361001014709473,1000,1000
0.8751586000144016,0.805755615234375,-0.39227294921875,-0.3267822265625,-0.30010986328125,0.06103515625,-0.18310546875,-0.1220703125,0.7646484375,-0.4388427734375,0.4793701171875,-220.0,195.0,43.0,102818.0,-12.361001014709473,1000,1000
0.8752263000060339,0.80572509765625,-0.39227294921875,-0.3267822265625,-0.30010986328125,-0.1220703125,-0.06103515625,-0.06103515625,0.7630615234375,-0.437744140625,0.4813232421875,-220.0,195.0,43.0,102818.0,-12.361001014709473,1000,1000
0.8752942999999505,0.80572509765625,-0.39227294921875,-0.3267822265625,-0.30010986328125,-0.18310546875,-0.1220703125,-0.06103515625,0.7685546875,-0.4383544921875,0.4779052734375,-220.0,195.0,43.0,102818.0,-12.361001014709473,1000,1000
0.8753602000069804,0.80572509765625,-0.39227294921875,-0.3267822265625,-0.30010986328125,0.0,-0.3662109375,0.06103515625,0.763427734375,-0.437255859375,0.4783935546875,-220.0,195.0,43.0,102818.0,-12.361001014709473,1000,1000
0.8754390000249259,0.80572509765625,-0.39227294921875,-0.3267822265625,-0.30010986328125,-0.1220703125,-0.06103515625,-0.1220703125,0.7672119140625,-0.43798828125,0.4794921875,-220.0,195.0,43.0,102818.0,-12.361001014709473,1000,1000
0.8755108000186738,0.80572509765625,-0.39227294921875,-0.3267822265625,-0.30010986328125,-0.1220703125,-0.06103515625,-0.1220703125,0.7672119140625,-0.43798828125,0.4794921875,-220.0,195.0,43.0,102818.0,-12.361001014709473,1000,1000
0.9207642000110354,0.80572509765625,-0.39227294921875,-0.3267822265625,-0.30010986328125,0.244140625,-0.18310546875,0.06103515625,0.7645263671875,-0.4383544921875,0.47900390625,-220.0,195.0,43.0,102818.0,-12.360000610351562,1000,1000
0.9208406000107061,0.80572509765625,-0.39227294921875,-0.3267822265625,-0.30010986328125,0.0,-0.30517578125,0.06103515625,0.76416015625,-0.4395751953125,0.480224609375,-220.0,195.0,43.0,102818.0,-12.360000610351562,1000,1000
0.9209085000038613,0.80572509765625,-0.39227294921875,-0.3267822265625,-0.30010986328125,0.0,-0.1220703125,0.18310546875,0.765625,-0.4385986328125,0.4805908203125,-220.0,195.0,43.0,102818.0,-12.360000610351562,1000,1000
0.9209764999977779,0.80572509765625,-0.39227294921875,-0.3267822265625,-0.30010986328125,-0.06103515625,-0.18310546875,-0.1220703125,0.7662353515625,-0.438232421875,0.48095703125,-220.0,195.0,43.0,102818.0,-12.360000610351562,1000,1000
0.9210439000162296,0.80572509765625,-0.392303466796875,-0.3267822265625,-0.30010986328125,-0.1220703125,0.0,-0.1220703125,0.767333984375,-0.439453125,0.4801025390625,-220.0,195.0,43.0,102818.0,-12.360000610351562,1000,1000
0.9223488999996334,0.80572509765625,-0.392303466796875,-0.3267822265625,-0.30010986328125,-0.244140625,0.0,0.18310546875,0.7650146484375,-0.439697265625,0.478759765625,-220.0,195.0,43.0,102818.0,-12.360000610351562,1000,1000
0.9224298000044655,0.80572509765625,-0.392303466796875,-0.3267822265625,-0.30010986328125,-0.06103515625,-0.06103515625,-0.3662109375,0.7645263671875,-0.437744140625,0.479736328125,-220.0,195.0,43.0,102818.0,-12.360000610351562,1000,1000
0.9224999000143725,0.80572509765625,-0.392303466796875,-0.3267822265625,-0.30010986328125,-0.06103515625,-0.06103515625,-0.3662109375,0.7645263671875,-0.437744140625,0.479736328125,-220.0,195.0,43.0,102818.0,-12.360000610351562,1000,1000
0.9225679000082891,0.80572509765625,-0.392303466796875,-0.3267822265625,-0.30010986328125,0.0,-0.1220703125,0.0,0.76220703125,-0.4371337890625,0.4813232421875,-220.0,195.0,43.0,102818.0,-12.360000610351562,1000,1000
0.9226361000037286,0.80572509765625,-0.392303466796875,-0.3267822265625,-0.30010986328125,0.0,-0.1220703125,0.0,0.76220703125,-0.4371337890625,0.4813232421875,-220.0,195.0,42.0,102818.0,-12.360000610351562,1000,1000
0.9227765000250656,0.805694580078125,-0.392364501953125,-0.32672119140625,-0.300201416015625,-0.1220703125,-0.06103515625,0.1220703125,0.765380859375,-0.440185546875,0.4801025390625,-220.0,195.0,42.0,102818.0,-12.360000610351562,1000,1000
0.9765276000252925,0.805694580078125,-0.392364501953125,-0.32672119140625,-0.300201416015625,0.0,-0.244140625,-0.1220703125,0.7647705078125,-0.4378662109375,0.4798583984375,-220.0,195.0,42.0,102818.0,-12.360000610351562,1000,1000
0.976609900011681,0.805694580078125,-0.392364501953125,-0.326751708984375,-0.300201416015625,-0.06103515625,-0.18310546875,0.0,0.7655029296875,-0.438232421875,0.48046875,-220.0,195.0,42.0,102818.0,-12.360000610351562,1000,1000
0.9766854000044987,0.8056640625,-0.392364501953125,-0.326751708984375,-0.300201416015625,-0.18310546875,-0.18310546875,-0.18310546875,0.76416015625,-0.4376220703125,0.4769287109375,-220.0,195.0,42.0,102818.0,-12.360000610351562,1000,1000
0.976757299999008,0.8056640625,-0.392364501953125,-0.326751708984375,-0.300201416015625,-0.6103515625,-0.30517578125,-0.1220703125,0.763916015625,-0.43994140625,0.4801025390625,-220.0,195.0,42.0,102818.0,-12.360000610351562,1000,1000
0.9768518000200856,0.8056640625,-0.392364501953125,-0.326751708984375,-0.300201416015625,-0.06103515625,-0.1220703125,0.18310546875,0.765625,-0.43701171875,0.480224609375,-220.0,195.0,42.0,102818.0,-12.360000610351562,1000,1000
0.9769273000129033,0.8056640625,-0.392364501953125,-0.326751708984375,-0.300201416015625,-0.06103515625,-0.1220703125,0.18310546875,0.765625,-0.43701171875,0.480224609375,-220.0,195.0,42.0,102818.0,-12.360000610351562,1000,1000
0.9770560000033583,0.8056640625,-0.392364501953125,-0.32672119140625,-0.300201416015625,-0.18310546875,-0.3662109375,0.06103515625,0.76220703125,-0.4376220703125,0.4788818359375,-220.0,195.0,42.0,102818.0,-12.360000610351562,1000,1000
0.9771278999978676,0.8056640625,-0.392364501953125,-0.326751708984375,-0.300201416015625,0.06103515625,-0.06103515625,0.0,0.764404296875,-0.4359130859375,0.4774169921875,-220.0,195.0,42.0,102818.0,-12.360000610351562,1000,1000
0.9771986000123434,0.8056640625,-0.392364501953125,-0.326751708984375,-0.300201416015625,0.06103515625,0.0,0.06103515625,0.7655029296875,-0.4381103515625,0.4776611328125,-220.0,195.0,42.0,102818.0,-12.361001014709473,1000,1000
0.9772730000258889,0.8056640625,-0.39239501953125,-0.326751708984375,-0.300201416015625,-0.30517578125,0.0,-0.244140625,0.7657470703125,-0.4375,0.4766845703125,-220.0,195.0,42.0,102818.0,-12.361001014709473,1000,1000
0.9773437000112608,0.8056640625,-0.39239501953125,-0.326751708984375,-0.300201416015625,-0.1220703125,-0.06103515625,0.06103515625,0.764892578125,-0.4366455078125,0.4775390625,-220.0,195.0,42.0,102818.0,-12.361001014709473,1000,1000
0.97741490000044,0.8056640625,-0.39239501953125,-0.326751708984375,-0.300201416015625,0.0,0.06103515625,0.0,0.7645263671875,-0.4373779296875,0.477783203125,-220.0,195.0,42.0,102818.0,-12.361001014709473,1000,1000
0.9774866000225302,0.8056640625,-0.39239501953125,-0.326751708984375,-0.300201416015625,-0.18310546875,-0.1220703125,-0.1220703125,0.7633056640625,-0.43798828125,0.4791259765625,-220.0,195.0,42.0,102818.0,-12.361001014709473,1000,1000
1.0384918000199832,0.805633544921875,-0.39239501953125,-0.3267822265625,-0.300201416015625,-0.244140625,-0.06103515625,-0.1220703125,0.7635498046875,-0.4383544921875,0.4775390625,-220.0,195.0,42.0,102818.0,-12.361001014709473,1000,1000
1.0385727000248153,0.805633544921875,-0.392425537109375,-0.3267822265625,-0.300201416015625,0.0,-0.18310546875,0.1220703125,0.7666015625,-0.439208984375,0.475341796875,-220.0,195.0,42.0,102818.0,-12.361001014709473,1000,1000
1.0386781000124756,0.805633544921875,-0.392425537109375,-0.3267822265625,-0.3001708984375,-0.06103515625,0.06103515625,0.06103515625,0.7652587890625,-0.4366455078125,0.4774169921875,-220.0,195.0,42.0,102818.0,-12.361001014709473,1000,1000
1.0387524000252597,0.805633544921875,-0.392425537109375,-0.3267822265625,-0.3001708984375,0.0,-0.06103515625,0.06103515625,0.765380859375,-0.437744140625,0.4766845703125,-220.0,194.0,42.0,102818.0,-12.361001014709473,1000,1000
1.0388272000127472,0.805633544921875,-0.3924560546875,-0.326812744140625,-0.3001708984375,0.18310546875,0.0,-0.06103515625,0.7652587890625,-0.439453125,0.47802734375,-220.0,194.0,42.0,102818.0,-12.361001014709473,1000,1000
1.0390002000203822,0.805572509765625,-0.392486572265625,-0.326751708984375,-0.30029296875,-0.06103515625,-0.06103515625,0.1220703125,0.7674560546875,-0.4388427734375,0.478271484375,-220.0,194.0,42.0,102818.0,-12.361001014709473,1000,1000
1.0390803000191227,0.805572509765625,-0.392486572265625,-0.326751708984375,-0.30029296875,0.0,-0.1220703125,-0.1220703125,0.7657470703125,-0.439453125,0.4791259765625,-220.0,194.0,42.0,102818.0,-12.361001014709473,1000,1000
1.039155300008133,0.805572509765625,-0.392486572265625,-0.326751708984375,-0.30029296875,-0.06103515625,-0.244140625,-0.1220703125,0.7655029296875,-0.4371337890625,0.4781494140625,-220.0,194.0,42.0,102818.0,-12.361001014709473,1000,1000
1.039226699998835,0.805572509765625,-0.39251708984375,-0.326751708984375,-0.30029296875,-0.1220703125,-0.30517578125,0.18310546875,0.767333984375,-0.4384765625,0.4779052734375,-220.0,194.0,42.0,102818.0,-12.361001014709473,1000,1000
1.0392969000095036,0.805572509765625,-0.39251708984375,-0.326751708984375,-0.30029296875,-0.1220703125,-0.30517578125,0.18310546875,0.767333984375,-0.4384765625,0.4779052734375,-220.0,194.0,42.0,102818.0,-12.361001014709473,1000,1000
1.0393679999979213,0.805572509765625,-0.39251708984375,-0.326751708984375,-0.300262451171875,-0.06103515625,-0.30517578125,-0.1220703125,0.767333984375,-0.439208984375,0.4764404296875,-220.0,194.0,42.0,102818.0,-12.361001014709473,1000,1000
1.1074995000089984,0.8055419921875,-0.39251708984375,-0.3267822265625,-0.300262451171875,-0.1220703125,-0.1220703125,-0.30517578125,0.7666015625,-0.437744140625,0.479736328125,-220.0,194.0,42.0,102818.0,-12.359000205993652,1000,1000
1.1075766000139993,0.8055419921875,-0.39251708984375,-0.3267822265625,-0.300262451171875,0.0,-0.42724609375,0.1220703125,0.764892578125,-0.43701171875,0.4813232421875,-220.0,194.0,42.0,102818.0,-12.359000205993652,1000,1000
1.107645300013246,0.8055419921875,-0.392547607421875,-0.3267822265625,-0.300262451171875,0.0,-0.30517578125,-0.30517578125,0.7625732421875,-0.437255859375,0.478271484375,-220.0,194.0,42.0,102818.0,-12.359000205993652,1000,1000
1.1077128000033554,0.8055419921875,-0.392547607421875,-0.3267822265625,-0.300262451171875,-0.3662109375,-0.18310546875,-0.1220703125,0.76416015625,-0.43701171875,0.4779052734375,-220.0,194.0,42.0,102818.0,-12.359000205993652,1000,1000
1.1077780000050552,0.8055419921875,-0.392547607421875,-0.3267822265625,-0.300262451171875,-0.3662109375,-0.18310546875,-0.1220703125,0.76416015625,-0.43701171875,0.4779052734375,-220.0,194.0,42.0,102818.0,-12.359000205993652,1000,1000
1.1085234000056516,0.8055419921875,-0.392547607421875,-0.3267822265625,-0.300262451171875,-0.1220703125,-0.48828125,-0.1220703125,0.763427734375,-0.4376220703125,0.4786376953125,-220.0,194.0,42.0,102818.0,-12.359000205993652,1000,1000
1.108594000019366,0.8055419921875,-0.392547607421875,-0.3267822265625,-0.300262451171875,-0.1220703125,-0.48828125,-0.1220703125,0.763427734375,-0.4376220703125,0.4786376953125,-220.0,194.0,42.0,102818.0,-12.359000205993652,1000,1000
1.1087179000023752,0.8055419921875,-0.392547607421875,-0.3267822265625,-0.300262451171875,-0.18310546875,-0.244140625,0.1220703125,0.766845703125,-0.4371337890625,0.4796142578125,-220.0,194.0,42.0,102818.0,-12.359000205993652,1000,1000
1.1087856000231113,0.8055419921875,-0.392547607421875,-0.3267822265625,-0.300262451171875,-0.06103515625,-0.1220703125,-0.06103515625,0.76513671875,-0.4384765625,0.4786376953125,-220.0,194.0,42.0,102818.0,-12.359000205993652,1000,1000
1.1088510999979917,0.8055419921875,-0.392547607421875,-0.3267822265625,-0.300262451171875,-0.42724609375,-0.18310546875,-0.18310546875,0.7672119140625,-0.4388427734375,0.4783935546875,-220.0,194.0,42.0,102818.0,-12.359000205993652,1000,1000
1.1089178000111133,0.8055419921875,-0.392547607421875,-0.3267822265625,-0.300262451171875,0.0,-0.244140625,0.1220703125,0.76513671875,-0.4378662109375,0.4801025390625,-220.0,194.0,42.0,102818.0,-12.359000205993652,1000,1000
1.1718943000014406,0.8055419921875,-0.392547607421875,-0.3267822265625,-0.300262451171875,0.06103515625,-0.30517578125,0.1220703125,0.76513671875,-0.4376220703125,0.4796142578125,-220.0,195.0,42.0,102818.0,-12.359000205993652,1000,1000
1.1719810000213329,0.80548095703125,-0.392608642578125,-0.326751708984375,-0.300384521484375,0.0,-0.30517578125,-0.30517578125,0.76416015625,-0.4375,0.478759765625,-220.0,195.0,42.0,102818.0,-12.359000205993652,1000,1000
1.1720565000141505,0.80548095703125,-0.392608642578125,-0.326751708984375,-0.300384521484375,0.1220703125,0.06103515625,-0.06103515625,0.7657470703125,-0.4376220703125,0.4805908203125,-220.0,195.0,42.0,102818.0,-12.359000205993652,1000,1000
1.1721319000062067,0.80548095703125,-0.392608642578125,-0.326751708984375,-0.300384521484375,-0.06103515625,-0.18310546875,-0.244140625,0.766357421875,-0.4375,0.4796142578125,-220.0,195.0,42.0,102818.0,-12.359000205993652,1000,1000
1.1722095000150148,0.80548095703125,-0.392608642578125,-0.326751708984375,-0.300384521484375,-0.06103515625,-0.18310546875,-0.244140625,0.766357421875,-0.4375,0.4796142578125,-220.0,195.0,42.0,102818.0,-12.359000205993652,1000,1000
1.1722822000156157,0.80548095703125,-0.392608642578125,-0.326751708984375,-0.300384521484375,-0.06103515625,-0.30517578125,0.06103515625,0.7681884765625,-0.435546875,0.4769287109375,-220.0,195.0,42.0,102818.0,-12.359000205993652,1000,1000
1.1723549000162166,0.80548095703125,-0.392608642578125,-0.326751708984375,-0.300384521484375,0.0,-0.18310546875,0.0,0.7655029296875,-0.438720703125,0.4779052734375,-220.0,195.0,42.0,102818.0,-12.359000205993652,1000,1000
1.180404600017937,0.80548095703125,-0.392608642578125,-0.326751708984375,-0.300384521484375,0.06103515625,-0.06103515625,0.1220703125,0.7674560546875,-0.4388427734375,0.4801025390625,-220.0,195.0,42.0,102818.0,-12.359000205993652,1000,1000
1.1804872000066098,0.80548095703125,-0.392608642578125,-0.326751708984375,-0.300384521484375,-0.1220703125,-0.244140625,-0.1220703125,0.7647705078125,-0.4378662109375,0.479736328125,-220.0,195.0,42.0,102818.0,-12.359000205993652,1000,1000
1.180560200009495,0.80548095703125,-0.392608642578125,-0.326751708984375,-0.300384521484375,-0.30517578125,-0.244140625,0.1220703125,0.765380859375,-0.4368896484375,0.4791259765625,-220.0,195.0,42.0,102818.0,-12.359000205993652,1000,1000
1.180631600000197,0.80548095703125,-0.392608642578125,-0.326751708984375,-0.300384521484375,0.1220703125,-0.1220703125,0.1220703125,0.7669677734375,-0.437255859375,0.480712890625,-220.0,195.0,42.0,102818.0,-12.362000465393066,1000,1000
1.1807071000221185,0.80548095703125,-0.392608642578125,-0.326751708984375,-0.300384521484375,0.06103515625,-0.18310546875,0.18310546875,0.763916015625,-0.4371337890625,0.480224609375,-220.0,195.0,42.0,102818.0,-12.362000465393066,1000,1000
1.1807783000112977,0.80548095703125,-0.392608642578125,-0.3267822265625,-0.300384521484375,-0.1220703125,-0.06103515625,0.18310546875,0.7657470703125,-0.4375,0.478759765625,-220.0,195.0,42.0,102818.0,-12.362000465393066,1000,1000
1.2366021000198089,0.80548095703125,-0.392608642578125,-0.3267822265625,-0.300384521484375,-0.18310546875,-0.06103515625,0.0,0.7637939453125,-0.438232421875,0.477783203125,-220.0,195.0,42.0,102818.0,-12.362000465393066,1000,1000
1.2367473000194877,0.80548095703125,-0.392608642578125,-0.3267822265625,-0.300384521484375,-0.18310546875,-0.30517578125,0.1220703125,0.763427734375,-0.4375,0.4794921875,-220.0,195.0,42.0,102818.0,-12.362000465393066,1000,1000
1.236822500010021,0.80548095703125,-0.392608642578125,-0.326751708984375,-0.300384521484375,-0.1220703125,-0.1220703125,-0.18310546875,0.7626953125,-0.43798828125,0.48046875,-220.0,195.0,42.0,102818.0,-12.362000465393066,1000,1000
1.236895000009099,0.80548095703125,-0.392608642578125,-0.326751708984375,-0.300384521484375,-0.18310546875,-0.06103515625,0.0,0.7633056640625,-0.4368896484375,0.478515625,-220.0,195.0,42.0,102818.0,-12.362000465393066,1000,1000
1.236966600001324,0.80548095703125,-0.392608642578125,-0.3267822265625,-0.300384521484375,-0.1220703125,-0.18310546875,0.06103515625,0.763671875,-0.4388427734375,0.4774169921875,-220.0,195.0,42.0,102818.0,-12.362000465393066,1000,1000
1.2370615000254475,0.80548095703125,-0.392608642578125,-0.3267822265625,-0.300384521484375,-0.1220703125,-0.18310546875,0.06103515625,0.763671875,-0.4388427734375,0.4774169921875,-219.0,195.0,43.0,102818.0,-12.362000465393066,1000,1000
1.237148000014713,0.805419921875,-0.392669677734375,-0.32672119140625,-0.30047607421875,0.1220703125,-0.18310546875,-0.06103515625,0.766357421875,-0.4378662109375,0.479736328125,-219.0,195.0,43.0,102818.0,-12.362000465393066,1000,1000
1.238105500000529,0.805419921875,-0.392669677734375,-0.32672119140625,-0.30047607421875,-0.06103515625,-0.30517578125,0.244140625,0.766357421875,-0.4390869140625,0.479248046875,-219.0,195.0,43.0,102818.0,-12.362000465393066,1000,1000
1.2382064000121318,0.805419921875,-0.392669677734375,-0.32672119140625,-0.30047607421875,-0.06103515625,-0.30517578125,0.244140625,0.766357421875,-0.4390869140625,0.479248046875,-219.0,195.0,43.0,102818.0,-12.362000465393066,1000,1000
1.2382820000057109,0.805419921875,-0.392669677734375,-0.32672119140625,-0.30047607421875,0.0,-0.18310546875,-0.06103515625,0.7659912109375,-0.4368896484375,0.476806640625,-219.0,195.0,43.0,102818.0,-12.362000465393066,1000,1000
1.2383548000070732,0.805419921875,-0.392669677734375,-0.326751708984375,-0.30047607421875,-0.1220703125,-0.30517578125,0.0,0.7657470703125,-0.4371337890625,0.4775390625,-219.0,195.0,43.0,102818.0,-12.362000465393066,1000,1000
1.2944536000140943,0.805419921875,-0.3927001953125,-0.326751708984375,-0.30047607421875,-0.1220703125,-0.244140625,-0.18310546875,0.7652587890625,-0.4361572265625,0.4771728515625,-219.0,195.0,43.0,102818.0,-12.362000465393066,1000,1000
1.2945385000202805,0.805419921875,-0.3927001953125,-0.326751708984375,-0.30047607421875,0.06103515625,-0.1220703125,-0.1220703125,0.7646484375,-0.438232421875,0.478515625,-219.0,195.0,43.0,102818.0,-12.362000465393066,1000,1000
1.2946136000100523,0.805389404296875,-0.3927001953125,-0.326751708984375,-0.30047607421875,-0.1220703125,-0.18310546875,0.06103515625,0.767333984375,-0.4375,0.4764404296875,-219.0,195.0,43.0,102818.0,-12.358000755310059,1000,1000
1.2946866000129376,0.805389404296875,-0.392730712890625,-0.326751708984375,-0.30047607421875,-0.06103515625,-0.3662109375,0.0,0.7650146484375,-0.4398193359375,0.4781494140625,-219.0,195.0,43.0,102818.0,-12.358000755310059,1000,1000
1.2947574999998324,0.805389404296875,-0.392730712890625,-0.3267822265625,-0.30047607421875,0.06103515625,-0.06103515625,0.0,0.764892578125,-0.439453125,0.4754638671875,-219.0,195.0,43.0,102818.0,-12.358000755310059,1000,1000
1.298191100009717,0.805389404296875,-0.392730712890625,-0.3267822265625,-0.30047607421875,0.06103515625,-0.06103515625,0.0,0.764892578125,-0.439453125,0.4754638671875,-219.0,195.0,43.0,102818.0,-12.358000755310059,1000,1000
1.2982717000122648,0.805389404296875,-0.392730712890625,-0.3267822265625,-0.30047607421875,-0.244140625,0.0,-0.1220703125,0.7646484375,-0.437744140625,0.4766845703125,-219.0,195.0,43.0,102818.0,-12.358000755310059,1000,1000
1.2984093000122812,0.805389404296875,-0.392730712890625,-0.3267822265625,-0.30047607421875,0.06103515625,-0.244140625,-0.244140625,0.766357421875,-0.436767578125,0.477294921875,-219.0,195.0,43.0,102818.0,-12.358000755310059,1000,1000
1.2984806000022218,0.805389404296875,-0.392730712890625,-0.3267822265625,-0.30047607421875,-0.06103515625,-0.30517578125,0.06103515625,0.765625,-0.43896484375,0.4759521484375,-219.0,195.0,43.0,102818.0,-12.358000755310059,1000,1000
1.2985517000197433,0.80535888671875,-0.392730712890625,-0.326812744140625,-0.30047607421875,0.0,-0.30517578125,-0.06103515625,0.7645263671875,-0.43701171875,0.4757080078125,-219.0,195.0,43.0,102818.0,-12.358000755310059,1000,1000
1.2986232000112068,0.80535888671875,-0.392730712890625,-0.326812744140625,-0.30047607421875,-0.244140625,-0.244140625,0.06103515625,0.7662353515625,-0.4368896484375,0.47705078125,-219.0,195.0,43.0,102818.0,-12.358000755310059,1000,1000
1.3584492000227328,0.8052978515625,-0.392822265625,-0.3267822265625,-0.300567626953125,0.1220703125,-0.244140625,-0.244140625,0.7669677734375,-0.4400634765625,0.4788818359375,-218.0,195.0,42.0,102818.0,-12.358000755310059,1000,1000
1.3585203000111505,0.8052978515625,-0.392822265625,-0.326812744140625,-0.300567626953125,-0.1220703125,-0.06103515625,0.06103515625,0.767822265625,-0.437744140625,0.4774169921875,-218.0,195.0,42.0,102818.0,-12.358000755310059,1000,1000
1.3585904000210576,0.805267333984375,-0.392852783203125,-0.326812744140625,-0.300567626953125,0.0,-0.30517578125,0.06103515625,0.7669677734375,-0.4366455078125,0.4771728515625,-218.0,195.0,42.0,102818.0,-12.358000755310059,1000,1000
1.3586585000157356,0.805267333984375,-0.392852783203125,-0.326812744140625,-0.300567626953125,-0.1220703125,-0.18310546875,-0.30517578125,0.76416015625,-0.4376220703125,0.4769287109375,-218.0,195.0,42.0,102818.0,-12.358000755310059,1000,1000
1.3587318000209052,0.805267333984375,-0.392852783203125,-0.326812744140625,-0.300567626953125,0.06103515625,-0.06103515625,0.0,0.7650146484375,-0.4381103515625,0.4765625,-218.0,195.0,42.0,102818.0,-12.360000610351562,1000,1000
1.3588040000176989,0.805267333984375,-0.392852783203125,-0.326812744140625,-0.300567626953125,-0.06103515625,-0.244140625,-0.06103515625,0.76416015625,-0.43798828125,0.477783203125,-218.0,195.0,42.0,102818.0,-12.360000610351562,1000,1000
1.42483970001922,0.805267333984375,-0.39288330078125,-0.32684326171875,-0.300567626953125,0.18310546875,-0.30517578125,-0.1220703125,0.7667236328125,-0.4385986328125,0.4769287109375,-218.0,195.0,42.0,102818.0,-12.360000610351562,1000,1000
1.4249178000027314,0.805267333984375,-0.39288330078125,-0.32684326171875,-0.300567626953125,-0.1220703125,-0.244140625,0.0,0.7664794921875,-0.4366455078125,0.47802734375,-218.0,195.0,42.0,102818.0,-12.360000610351562,1000,1000
1.4249921000155155,0.80523681640625,-0.39288330078125,-0.32684326171875,-0.300567626953125,-0.06103515625,0.0,-0.06103515625,0.767822265625,-0.4361572265625,0.474365234375,-218.0,195.0,42.0,102818.0,-12.360000610351562,1000,1000
1.425061400019331,0.80523681640625,-0.39288330078125,-0.32684326171875,-0.300567626953125,0.18310546875,0.18310546875,0.06103515625,0.76611328125,-0.4373779296875,0.477294921875,-218.0,195.0,42.0,102818.0,-12.360000610351562,1000,1000
1.4251532000198495,0.80523681640625,-0.392913818359375,-0.32684326171875,-0.300537109375,-0.1220703125,-0.18310546875,0.06103515625,0.7646484375,-0.4415283203125,0.475341796875,-218.0,195.0,42.0,102818.0,-12.360000610351562,1000,1000
1.425426100002369,0.80523681640625,-0.392913818359375,-0.32684326171875,-0.300537109375,-0.1220703125,-0.18310546875,-0.1220703125,0.7640380859375,-0.43798828125,0.4761962890625,-218.0,195.0,42.0,102818.0,-12.360000610351562,1000,1000
1.4255082000163384,0.80523681640625,-0.392913818359375,-0.326873779296875,-0.300537109375,-0.06103515625,0.06103515625,-0.1220703125,0.7630615234375,-0.4365234375,0.4736328125,-218.0,195.0,42.0,102818.0,-12.360000610351562,1000,1000
1.4257438000058755,0.80523681640625,-0.392913818359375,-0.326873779296875,-0.300537109375,-0.06103515625,0.06103515625,-0.1220703125,0.7630615234375,-0.4365234375,0.4736328125,-218.0,195.0,42.0,102818.0,-12.360000610351562,1000,1000
1.4258187000232283,0.805267333984375,-0.39288330078125,-0.326934814453125,-0.3004150390625,-0.06103515625,-0.06103515625,0.1220703125,0.764404296875,-0.4375,0.474609375,-218.0,195.0,40.0,102818.0,-12.360000610351562,1000,1000
1.4258901000139304,0.805267333984375,-0.39288330078125,-0.326934814453125,-0.3004150390625,0.0,-0.1220703125,0.0,0.7652587890625,-0.4368896484375,0.4759521484375,-218.0,195.0,40.0,102818.0,-12.360000610351562,1000,1000
1.4259631000168156,0.80523681640625,-0.392913818359375,-0.326934814453125,-0.3004150390625,-0.18310546875,-0.1220703125,-0.244140625,0.7645263671875,-0.438720703125,0.474365234375,-218.0,195.0,40.0,102818.0,-12.360000610351562,1000,1000
1.485656700009713,0.80523681640625,-0.3929443359375,-0.32696533203125,-0.3004150390625,0.0,-0.3662109375,0.06103515625,0.7655029296875,-0.4375,0.4759521484375,-218.0,195.0,40.0,102818.0,-12.360000610351562,1000,1000
1.485743099998217,0.80523681640625,-0.3929443359375,-0.32696533203125,-0.3004150390625,-0.06103515625,-0.18310546875,0.18310546875,0.766845703125,-0.4381103515625,0.4769287109375,-218.0,195.0,40.0,102818.0,-12.360000610351562,1000,1000
1.4860413999995217,0.805206298828125,-0.3929443359375,-0.32696533203125,-0.3004150390625,0.0,-0.18310546875,-0.06103515625,0.7669677734375,-0.4383544921875,0.4771728515625,-218.0,195.0,40.0,102818.0,-12.360000610351562,1000,1000
1.4861166000191588,0.805206298828125,-0.3929443359375,-0.326995849609375,-0.3004150390625,0.06103515625,-0.1220703125,-0.06103515625,0.7669677734375,-0.4376220703125,0.4779052734375,-218.0,195.0,40.0,102818.0,-12.360000610351562,1000,1000
1.486189800023567,0.805206298828125,-0.3929443359375,-0.326995849609375,-0.3004150390625,0.06103515625,-0.1220703125,-0.06103515625,0.7669677734375,-0.4376220703125,0.4779052734375,-218.0,195.0,40.0,102818.0,-12.360000610351562,1000,1000
1.4862858999986202,0.805206298828125,-0.392974853515625,-0.326995849609375,-0.3004150390625,-0.30517578125,-0.06103515625,0.1220703125,0.7657470703125,-0.438232421875,0.4766845703125,-218.0,195.0,40.0,102818.0,-12.360000610351562,1000,1000
1.4863566000130959,0.805206298828125,-0.392974853515625,-0.326995849609375,-0.3004150390625,-0.18310546875,-0.1220703125,0.244140625,0.762451171875,-0.43798828125,0.47607421875,-218.0,195.0,40.0,102818.0,-12.360000610351562,1000,1000
1.4864224000193644,0.805206298828125,-0.392974853515625,-0.326995849609375,-0.3004150390625,-0.18310546875,-0.18310546875,-0.06103515625,0.765869140625,-0.438232421875,0.477783203125,-218.0,195.0,40.0,102818.0,-12.360000610351562,1000,1000
1.4864889000018593,0.805206298828125,-0.392974853515625,-0.326995849609375,-0.300384521484375,-0.1220703125,0.06103515625,0.18310546875,0.766357421875,-0.4388427734375,0.47509765625,-218.0,195.0,40.0,102818.0,-12.360000610351562,1000,1000
1.4865583000064362,0.805206298828125,-0.392974853515625,-0.326995849609375,-0.300384521484375,0.0,-0.18310546875,-0.06103515625,0.7659912109375,-0.4393310546875,0.4747314453125,-218.0,195.0,40.0,102818.0,-12.360000610351562,1000,1000
1.4866313000093214,0.80517578125,-0.39300537109375,-0.326995849609375,-0.300384521484375,0.0,-0.1220703125,-0.06103515625,0.7645263671875,-0.43701171875,0.4757080078125,-218.0,195.0,40.0,102818.0,-12.360000610351562,1000,1000
1.551091200002702,0.80517578125,-0.39300537109375,-0.326995849609375,-0.300384521484375,0.06103515625,-0.3662109375,-0.06103515625,0.76416015625,-0.438720703125,0.475341796875,-218.0,195.0,40.0,102818.0,-12.360000610351562,1000,1000
1.551171200000681,0.80517578125,-0.39300537109375,-0.3270263671875,-0.300384521484375,-0.18310546875,-0.244140625,-0.1220703125,0.7650146484375,-0.4381103515625,0.4755859375,-218.0,195.0,40.0,102818.0,-12.360000610351562,1000,1000
1.551240400003735,0.80517578125,-0.39300537109375,-0.3270263671875,-0.300384521484375,-0.18310546875,-0.244140625,-0.1220703125,0.7650146484375,-0.4381103515625,0.4755859375,-218.0,195.0,40.0,102818.0,-12.360000610351562,1000,1000
1.551308100024471,0.80517578125,-0.39300537109375,-0.3270263671875,-0.300384521484375,0.06103515625,-0.244140625,-0.06103515625,0.767333984375,-0.43798828125,0.4755859375,-218.0,195.0,40.0,102818.0,-12.362000465393066,1000,1000
1.5513758000161033,0.80517578125,-0.39300537109375,-0.3270263671875,-0.300384521484375,-0.1220703125,-0.18310546875,-0.18310546875,0.7667236328125,-0.4359130859375,0.476318359375,-219.0,195.0,41.0,102818.0,-12.362000465393066,1000,1000
1.55144380001002,0.80517578125,-0.39300537109375,-0.327056884765625,-0.300384521484375,-0.18310546875,-0.244140625,0.0,0.7662353515625,-0.435302734375,0.4761962890625,-219.0,195.0,41.0,102818.0,-12.362000465393066,1000,1000
1.5515105000231415,0.805145263671875,-0.393035888671875,-0.327056884765625,-0.300384521484375,-0.18310546875,-0.244140625,0.06103515625,0.765625,-0.437744140625,0.476318359375,-219.0,195.0,41.0,102818.0,-12.362000465393066,1000,1000
1.5542078000144102,0.805145263671875,-0.393035888671875,-0.327056884765625,-0.300384521484375,0.0,-0.30517578125,0.06103515625,0.7646484375,-0.438720703125,0.475341796875,-219.0,195.0,41.0,102818.0,-12.362000465393066,1000,1000
1.5542824000003748,0.805145263671875,-0.393035888671875,-0.327056884765625,-0.300384521484375,0.06103515625,0.0,-0.06103515625,0.7657470703125,-0.439697265625,0.47509765625,-219.0,195.0,41.0,102818.0,-12.362000465393066,1000,1000
1.554349900019588,0.805145263671875,-0.393035888671875,-0.327056884765625,-0.300384521484375,-0.30517578125,-0.1220703125,-0.1220703125,0.7652587890625,-0.437744140625,0.47705078125,-219.0,195.0,41.0,102818.0,-12.362000465393066,1000,1000
1.5544196000264492,0.805145263671875,-0.39306640625,-0.327056884765625,-0.300384521484375,0.06103515625,-0.06103515625,-0.18310546875,0.76513671875,-0.4395751953125,0.4749755859375,-219.0,195.0,41.0,102818.0,-12.362000465393066,1000,1000
1.5544867000135127,0.805145263671875,-0.39306640625,-0.32708740234375,-0.300384521484375,0.0,-0.244140625,0.0,0.7637939453125,-0.4368896484375,0.47509765625,-219.0,195.0,41.0,102818.0,-12.362000465393066,1000,1000
1.5545547000074293,0.805145263671875,-0.39306640625,-0.32708740234375,-0.300384521484375,0.0,-0.244140625,0.0,0.7637939453125,-0.4368896484375,0.47509765625,-219.0,195.0,41.0,102818.0,-12.362000465393066,1000,1000
1.6184133000206202,0.80511474609375,-0.393096923828125,-0.32708740234375,-0.300384521484375,-0.1220703125,-0.30517578125,-0.1220703125,0.7662353515625,-0.436767578125,0.4761962890625,-219.0,195.0,41.0,102818.0,-12.362000465393066,1000,1000
1.618491000001086,0.80511474609375,-0.393096923828125,-0.32708740234375,-0.300384521484375,0.06103515625,-0.18310546875,0.0,0.7646484375,-0.436279296875,0.4765625,-219.0,195.0,41.0,102818.0,-12.362000465393066,1000,1000
1.6185593000263907,0.80511474609375,-0.393096923828125,-0.32708740234375,-0.30035400390625,-0.06103515625,-0.30517578125,-0.06103515625,0.760986328125,-0.4368896484375,0.476318359375,-219.0,195.0,41.0,102818.0,-12.362000465393066,1000,1000
1.6186273000203073,0.80511474609375,-0.393096923828125,-0.32708740234375,-0.30035400390625,-0.1220703125,-0.06103515625,0.0,0.763427734375,-0.438720703125,0.4755859375,-219.0,195.0,41.0,102818.0,-12.362000465393066,1000,1000
1.6186959000187926,0.80511474609375,-0.393096923828125,-0.32708740234375,-0.30035400390625,0.06103515625,-0.18310546875,-0.30517578125,0.764892578125,-0.4364013671875,0.4769287109375,-219.0,195.0,41.0,102818.0,-12.362000465393066,1000,1000
1.6187823000072967,0.80511474609375,-0.393096923828125,-0.32708740234375,-0.30035400390625,0.06103515625,-0.18310546875,-0.30517578125,0.764892578125,-0.4364013671875,0.4769287109375,-219.0,195.0,41.0,102818.0,-12.362000465393066,1000,1000
1.618848500016611,0.80511474609375,-0.393096923828125,-0.32708740234375,-0.30035400390625,0.06103515625,-0.18310546875,-0.30517578125,0.764892578125,-0.4364013671875,0.4769287109375,-219.0,195.0,41.0,102818.0,-12.362000465393066,1000,1000
1.618914999999106,0.80511474609375,-0.39312744140625,-0.327117919921875,-0.30035400390625,0.18310546875,-0.18310546875,-0.1220703125,0.765625,-0.4376220703125,0.4759521484375,-219.0,195.0,41.0,102818.0,-12.362000465393066,1000,1000
1.6189875999989454,0.805084228515625,-0.39312744140625,-0.327117919921875,-0.30035400390625,-0.1220703125,-0.244140625,0.0,0.766845703125,-0.436279296875,0.47607421875,-219.0,195.0,41.0,102818.0,-12.362000465393066,1000,1000
1.6190566000004765,0.80517578125,-0.393035888671875,-0.32720947265625,-0.300140380859375,-0.1220703125,-0.244140625,0.0,0.766845703125,-0.436279296875,0.47607421875,-219.0,196.0,41.0,102818.0,-12.358000755310059,1000,1000
1.6191272000141907,0.80517578125,-0.393035888671875,-0.32720947265625,-0.300140380859375,-0.244140625,-0.244140625,0.244140625,0.76416015625,-0.436279296875,0.47607421875,-219.0,196.0,41.0,102818.0,-12.358000755310059,1000,1000
1.676029499998549,0.80517578125,-0.393035888671875,-0.327239990234375,-0.300140380859375,0.06103515625,-0.18310546875,0.06103515625,0.7645263671875,-0.437255859375,0.4744873046875,-219.0,196.0,41.0,102818.0,-12.358000755310059,1000,1000
1.6761050000204705,0.80517578125,-0.393035888671875,-0.327239990234375,-0.300140380859375,-0.18310546875,-0.1220703125,0.0,0.766845703125,-0.437744140625,0.476806640625,-219.0,196.0,41.0,102818.0,-12.358000755310059,1000,1000
1.6761720000067726,0.80517578125,-0.393035888671875,-0.327239990234375,-0.300140380859375,0.1220703125,-0.1220703125,0.1220703125,0.765625,-0.4375,0.4765625,-219.0,196.0,41.0,102818.0,-12.358000755310059,1000,1000
1.6762368000054266,0.80517578125,-0.393035888671875,-0.327239990234375,-0.300140380859375,0.1220703125,-0.1220703125,0.1220703125,0.765625,-0.4375,0.4765625,-219.0,196.0,41.0,102818.0,-12.358000755310059,1000,1000
1.6763055000046734,0.80517578125,-0.393035888671875,-0.327239990234375,-0.300140380859375,-0.06103515625,-0.3662109375,-0.18310546875,0.7646484375,-0.436767578125,0.4786376953125,-219.0,196.0,41.0,102818.0,-12.358000755310059,1000,1000
1.6765605000255164,0.805145263671875,-0.393035888671875,-0.327239990234375,-0.300140380859375,-0.06103515625,0.0,-0.1220703125,0.7655029296875,-0.4388427734375,0.47607421875,-219.0,196.0,41.0,102818.0,-12.358000755310059,1000,1000
1.6766280000156257,0.805145263671875,-0.39306640625,-0.327239990234375,-0.300140380859375,-0.06103515625,-0.48828125,0.06103515625,0.7677001953125,-0.4378662109375,0.4774169921875,-219.0,196.0,41.0,102818.0,-12.358000755310059,1000,1000
1.676693300018087,0.805145263671875,-0.39306640625,-0.327239990234375,-0.300140380859375,0.18310546875,-0.18310546875,-0.1220703125,0.7655029296875,-0.440673828125,0.4755859375,-219.0,196.0,41.0,102818.0,-12.358000755310059,1000,1000
1.6767580000159796,0.805145263671875,-0.39306640625,-0.327239990234375,-0.30010986328125,-0.18310546875,0.0,-0.06103515625,0.7633056640625,-0.4400634765625,0.4783935546875,-219.0,196.0,41.0,102818.0,-12.358000755310059,1000,1000
1.6768225000123493,0.805145263671875,-0.39306640625,-0.327239990234375,-0.30010986328125,0.06103515625,-0.18310546875,0.0,0.763427734375,-0.4385986328125,0.47802734375,-219.0,196.0,41.0,102818.0,-12.358000755310059,1000,1000
1.6768857999995816,0.805145263671875,-0.393096923828125,-0.327239990234375,-0.30010986328125,-0.18310546875,-0.244140625,0.1220703125,0.7646484375,-0.439208984375,0.476318359375,-219.0,196.0,41.0,102818.0,-12.358000755310059,1000,1000
1.6769978000083938,0.805145263671875,-0.393096923828125,-0.327239990234375,-0.30010986328125,-0.1220703125,-0.18310546875,0.1220703125,0.764404296875,-0.43896484375,0.4749755859375,-219.0,196.0,41.0,102818.0,-12.358000755310059,1000,1000
1.7539624000201002,0.805145263671875,-0.393096923828125,-0.327239990234375,-0.30010986328125,-0.1220703125,-0.18310546875,0.1220703125,0.764404296875,-0.43896484375,0.4749755859375,-219.0,196.0,41.0,102818.0,-12.358000755310059,1000,1000
1.7540402000013273,0.805145263671875,-0.393096923828125,-0.327239990234375,-0.30010986328125,-0.1220703125,-0.244140625,0.06103515625,0.763916015625,-0.43896484375,0.4774169921875,-219.0,196.0,41.0,102818.0,-12.358000755310059,1000,1000
1.754108900000574,0.805145263671875,-0.393096923828125,-0.327239990234375,-0.30010986328125,-0.1220703125,-0.42724609375,0.0,0.7640380859375,-0.437744140625,0.4765625,-219.0,196.0,41.0,102818.0,-12.358000755310059,1000,1000
1.7541771000251174,0.805145263671875,-0.393096923828125,-0.327239990234375,-0.30010986328125,-0.06103515625,-0.06103515625,-0.06103515625,0.7657470703125,-0.438232421875,0.4755859375,-219.0,196.0,41.0,102818.0,-12.358000755310059,1000,1000
1.7542469000036363,0.805145263671875,-0.393096923828125,-0.327239990234375,-0.30010986328125,-0.06103515625,-0.06103515625,0.0,0.765380859375,-0.436767578125,0.474365234375,-219.0,196.0,41.0,102818.0,-12.362000465393066,1000,1000
1.754312300006859,0.805145263671875,-0.39312744140625,-0.3272705078125,-0.30010986328125,-0.06103515625,-0.06103515625,0.0,0.765380859375,-0.436767578125,0.474365234375,-219.0,196.0,42.0,102818.0,-12.362000465393066,1000,1000
1.7544129000161774,0.805145263671875,-0.39312744140625,-0.3272705078125,-0.30010986328125,-0.30517578125,-0.18310546875,0.06103515625,0.765869140625,-0.437255859375,0.4781494140625,-219.0,196.0,42.0,102818.0,-12.362000465393066,1000,1000
1.7544790000247303,0.805145263671875,-0.39312744140625,-0.3272705078125,-0.30010986328125,-0.06103515625,-0.1220703125,-0.06103515625,0.765869140625,-0.4393310546875,0.47802734375,-219.0,196.0,42.0,102818.0,-12.362000465393066,1000,1000
1.7545451000041794,0.805145263671875,-0.39312744140625,-0.3272705078125,-0.30010986328125,-0.1220703125,0.06103515625,0.0,0.7657470703125,-0.435791015625,0.4775390625,-219.0,196.0,42.0,102818.0,-12.362000465393066,1000,1000
1.754610000003595,0.805145263671875,-0.393096923828125,-0.3272705078125,-0.30010986328125,-0.06103515625,-0.1220703125,0.244140625,0.7650146484375,-0.4368896484375,0.478515625,-219.0,196.0,42.0,102818.0,-12.362000465393066,1000,1000
1.754677700024331,0.805145263671875,-0.393096923828125,-0.3272705078125,-0.30010986328125,-0.06103515625,-0.1220703125,0.244140625,0.7650146484375,-0.4368896484375,0.478515625,-219.0,196.0,42.0,102818.0,-12.362000465393066,1000,1000
1.7547462000220548,0.805145263671875,-0.393096923828125,-0.3272705078125,-0.30010986328125,-0.1220703125,0.0,-0.1220703125,0.76416015625,-0.435302734375,0.477783203125,-219.0,196.0,42.0,102818.0,-12.362000465393066,1000,1000
1.8105338000168558,0.805145263671875,-0.393096923828125,-0.3272705078125,-0.30010986328125,-0.30517578125,-0.3662109375,-0.1220703125,0.76416015625,-0.437744140625,0.478759765625,-219.0,196.0,42.0,102818.0,-12.362000465393066,1000,1000
1.8106105000188109,0.805145263671875,-0.39312744140625,-0.3272705078125,-0.30010986328125,-0.244140625,-0.244140625,0.0,0.7647705078125,-0.4393310546875,0.4761962890625,-219.0,196.0,42.0,102818.0,-12.362000465393066,1000,1000
1.8106798000226263,0.80511474609375,-0.39312744140625,-0.3272705078125,-0.30010986328125,0.0,-0.3662109375,0.1220703125,0.76611328125,-0.4393310546875,0.4765625,-219.0,196.0,42.0,102818.0,-12.362000465393066,1000,1000
1.8107499000034295,0.80511474609375,-0.39312744140625,-0.3272705078125,-0.30010986328125,0.06103515625,-0.244140625,0.1220703125,0.7620849609375,-0.4373779296875,0.4766845703125,-219.0,196.0,42.0,102818.0,-12.362000465393066,1000,1000
1.810819000005722,0.80511474609375,-0.39312744140625,-0.3272705078125,-0.30010986328125,-0.06103515625,-0.1220703125,-0.30517578125,0.764892578125,-0.4371337890625,0.477294921875,-219.0,196.0,42.0,102818.0,-12.362000465393066,1000,1000
1.8112489000195637,0.80511474609375,-0.39312744140625,-0.3272705078125,-0.30010986328125,-0.06103515625,-0.1220703125,-0.30517578125,0.764892578125,-0.4371337890625,0.477294921875,-219.0,196.0,42.0,102818.0,-12.362000465393066,1000,1000
1.8113183000241406,0.80511474609375,-0.39312744140625,-0.3272705078125,-0.30010986328125,-0.244140625,-0.3662109375,-0.1220703125,0.7667236328125,-0.4371337890625,0.4754638671875,-219.0,196.0,42.0,102818.0,-12.362000465393066,1000,1000
1.811419300007401,0.80511474609375,-0.39312744140625,-0.3272705078125,-0.30010986328125,0.06103515625,0.06103515625,0.06103515625,0.7652587890625,-0.437744140625,0.476806640625,-219.0,196.0,42.0,102818.0,-12.362000465393066,1000,1000
1.811490500025684,0.80511474609375,-0.39312744140625,-0.3272705078125,-0.30010986328125,-0.244140625,0.0,0.1220703125,0.765869140625,-0.43798828125,0.477294921875,-219.0,196.0,42.0,102818.0,-12.362000465393066,1000,1000
1.811558800021885,0.80511474609375,-0.39312744140625,-0.327301025390625,-0.30010986328125,-0.06103515625,0.0,-0.06103515625,0.7637939453125,-0.4371337890625,0.4764404296875,-219.0,196.0,42.0,102818.0,-12.362000465393066,1000,1000
1.8116242000251077,0.80511474609375,-0.39312744140625,-0.327301025390625,-0.30010986328125,-0.06103515625,-0.18310546875,0.0,0.76513671875,-0.4376220703125,0.4779052734375,-219.0,196.0,42.0,102818.0,-12.362000465393066,1000,1000
1.868340300017735,0.80511474609375,-0.39312744140625,-0.327301025390625,-0.30010986328125,0.1220703125,0.0,0.0,0.7664794921875,-0.4393310546875,0.4774169921875,-218.0,195.0,42.0,102818.0,-12.357000350952148,1000,1000
1.8684136000229046,0.80511474609375,-0.39312744140625,-0.327301025390625,-0.30010986328125,0.1220703125,0.0,0.0,0.7664794921875,-0.4393310546875,0.4774169921875,-218.0,195.0,42.0,102818.0,-12.357000350952148,1000,1000
1.8684802000061609,0.80511474609375,-0.39312744140625,-0.327301025390625,-0.30010986328125,-0.1220703125,-0.42724609375,0.0,0.76513671875,-0.4373779296875,0.4754638671875,-218.0,195.0,42.0,102818.0,-12.357000350952148,1000,1000
1.8685466000169981,0.80511474609375,-0.39312744140625,-0.327301025390625,-0.30010986328125,0.06103515625,-0.1220703125,-0.06103515625,0.7659912109375,-0.4378662109375,0.4764404296875,-218.0,195.0,42.0,102818.0,-12.357000350952148,1000,1000
1.8686124000232667,0.80511474609375,-0.393157958984375,-0.327301025390625,-0.30010986328125,-0.244140625,-0.1220703125,-0.1220703125,0.7645263671875,-0.439453125,0.4766845703125,-218.0,195.0,42.0,102818.0,-12.357000350952148,1000,1000
1.8700873000198044,0.80511474609375,-0.393157958984375,-0.327301025390625,-0.30010986328125,0.0,-0.06103515625,-0.3662109375,0.765380859375,-0.436767578125,0.4775390625,-218.0,195.0,42.0,102818.0,-12.357000350952148,1000,1000
1.8701657000056002,0.805084228515625,-0.393157958984375,-0.327301025390625,-0.30010986328125,0.1220703125,0.0,-0.1220703125,0.7646484375,-0.4375,0.475830078125,-218.0,195.0,42.0,102818.0,-12.357000350952148,1000,1000
1.870303400006378,0.805084228515625,-0.393157958984375,-0.32733154296875,-0.30010986328125,-0.3662109375,-0.06103515625,-0.244140625,0.765869140625,-0.4375,0.4769287109375,-218.0,195.0,42.0,102818.0,-12.357000350952148,1000,1000
1.870369500014931,0.805084228515625,-0.393157958984375,-0.32733154296875,-0.30010986328125,-0.3662109375,-0.06103515625,-0.244140625,0.765869140625,-0.4375,0.4769287109375,-218.0,195.0,42.0,102818.0,-12.357000350952148,1000,1000
1.8704337000090163,0.805084228515625,-0.393157958984375,-0.32733154296875,-0.30010986328125,-0.30517578125,-0.42724609375,0.244140625,0.7672119140625,-0.4373779296875,0.476806640625,-218.0,195.0,42.0,102818.0,-12.357000350952148,1000,1000
1.8704995000152849,0.805084228515625,-0.393157958984375,-0.32733154296875,-0.30010986328125,-0.06103515625,0.06103515625,-0.1220703125,0.765625,-0.437744140625,0.4765625,-218.0,195.0,42.0,102818.0,-12.357000350952148,1000,1000
1.8705648000177462,0.805084228515625,-0.393157958984375,-0.32733154296875,-0.30010986328125,-0.06103515625,0.06103515625,-0.1220703125,0.765625,-0.437744140625,0.4765625,-218.0,195.0,42.0,102818.0,-12.357000350952148,1000,1000
1.9367344000202138,0.805084228515625,-0.393157958984375,-0.32733154296875,-0.30010986328125,0.06103515625,0.0,-0.06103515625,0.762451171875,-0.4368896484375,0.476806640625,-218.0,195.0,42.0,102818.0,-12.357000350952148,1000,1000
1.936817500012694,0.805084228515625,-0.393157958984375,-0.32733154296875,-0.30010986328125,-0.18310546875,-0.244140625,0.1220703125,0.763916015625,-0.4388427734375,0.4754638671875,-218.0,195.0,42.0,102818.0,-12.357000350952148,1000,1000
1.9368870000180323,0.805084228515625,-0.393157958984375,-0.32733154296875,-0.30010986328125,-0.1220703125,-0.06103515625,-0.06103515625,0.7652587890625,-0.4368896484375,0.476806640625,-218.0,195.0,42.0,102818.0,-12.357000350952148,1000,1000
1.9369558000180405,0.805084228515625,-0.393157958984375,-0.32733154296875,-0.30010986328125,-0.30517578125,0.1220703125,-0.244140625,0.76416015625,-0.439453125,0.4769287109375,-218.0,195.0,42.0,102818.0,-12.357000350952148,1000,1000
1.9370263000018895,0.805084228515625,-0.393157958984375,-0.32733154296875,-0.30010986328125,-0.18310546875,-0.30517578125,0.0,0.765869140625,-0.4371337890625,0.477294921875,-218.0,195.0,42.0,102818.0,-12.357000350952148,1000,1000
1.9370946999988519,0.805084228515625,-0.393157958984375,-0.32733154296875,-0.30010986328125,-0.18310546875,-0.1220703125,-0.06103515625,0.765625,-0.4368896484375,0.4754638671875,-218.0,195.0,42.0,102818.0,-12.357000350952148,1000,1000
1.9392273999983445,0.805084228515625,-0.393157958984375,-0.32733154296875,-0.30010986328125,-0.06103515625,-0.244140625,-0.06103515625,0.7637939453125,-0.4368896484375,0.4765625,-217.0,196.0,42.0,102818.0,-12.363000869750977,1000,1000
1.939305300009437,0.805145263671875,-0.39306640625,-0.32745361328125,-0.299896240234375,0.06103515625,-0.1220703125,-0.1220703125,0.7655029296875,-0.4385986328125,0.4775390625,-217.0,196.0,42.0,102818.0,-12.363000869750977,1000,1000
1.9393788000161294,0.805145263671875,-0.39306640625,-0.32745361328125,-0.299896240234375,0.06103515625,-0.1220703125,-0.1220703125,0.7655029296875,-0.4385986328125,0.4775390625,-217.0,196.0,42.0,102818.0,-12.363000869750977,1000,1000
1.939446600008523,0.805145263671875,-0.393096923828125,-0.32745361328125,-0.29986572265625,0.06103515625,-0.06103515625,0.1220703125,0.7672119140625,-0.4403076171875,0.47802734375,-217.0,196.0,42.0,102818.0,-12.363000869750977,1000,1000
1.9395163000153843,0.805145263671875,-0.393096923828125,-0.32745361328125,-0.29986572265625,0.18310546875,-0.3662109375,-0.18310546875,0.765625,-0.437744140625,0.47802734375,-217.0,196.0,42.0,102818.0,-12.363000869750977,1000,1000
1.9395866999984719,0.805145263671875,-0.393096923828125,-0.32745361328125,-0.29986572265625,-0.06103515625,-0.244140625,-0.1220703125,0.7674560546875,-0.4364013671875,0.4757080078125,-217.0,196.0,42.0,102818.0,-12.363000869750977,1000,1000
1.998262600012822,0.805145263671875,-0.393096923828125,-0.32745361328125,-0.29986572265625,0.06103515625,-0.30517578125,0.0,0.7640380859375,-0.43701171875,0.4775390625,-217.0,196.0,42.0,102818.0,-12.363000869750977,1000,1000
1.9983400000201073,0.805145263671875,-0.393096923828125,-0.32745361328125,-0.29986572265625,-0.06103515625,0.06103515625,0.0,0.765869140625,-0.43701171875,0.4781494140625,-217.0,196.0,42.0,102818.0,-12.363000869750977,1000,1000
1.9984706000250299,0.805145263671875,-0.393096923828125,-0.32745361328125,-0.29986572265625,0.06103515625,-0.42724609375,-0.06103515625,0.7685546875,-0.43896484375,0.4783935546875,-217.0,196.0,42.0,102818.0,-12.363000869750977,1000,1000
1.9985435999988113,0.805145263671875,-0.393096923828125,-0.32745361328125,-0.299896240234375,-0.06103515625,-0.3662109375,0.1220703125,0.765625,-0.437744140625,0.47802734375,-217.0,196.0,42.0,102818.0,-12.363000869750977,1000,1000
1.9986111000180244,0.805145263671875,-0.393096923828125,-0.32745361328125,-0.299896240234375,-0.06103515625,-0.3662109375,0.1220703125,0.765625,-0.437744140625,0.47802734375,-217.0,196.0,42.0,102818.0,-12.363000869750977,1000,1000
1.998724700009916,0.805145263671875,-0.393096923828125,-0.32745361328125,-0.299896240234375,-0.244140625,0.0,0.0,0.7652587890625,-0.437255859375,0.47998046875,-217.0,196.0,42.0,102818.0,-12.363000869750977,1000,1000
1.9987898000108544,0.805145263671875,-0.393096923828125,-0.32745361328125,-0.299896240234375,-0.06103515625,-0.244140625,0.0,0.76220703125,-0.4388427734375,0.4783935546875,-217.0,196.0,42.0,102818.0,-12.363000869750977,1000,1000
1.998855600017123,0.805145263671875,-0.393096923828125,-0.32745361328125,-0.299896240234375,-0.06103515625,-0.3662109375,-0.1220703125,0.76611328125,-0.4383544921875,0.477294921875,-217.0,196.0,42.0,102818.0,-12.363000869750977,1000,1000
1.9989218999980949,0.805145263671875,-0.393096923828125,-0.32745361328125,-0.299896240234375,-0.06103515625,0.1220703125,-0.18310546875,0.7666015625,-0.43701171875,0.478515625,-217.0,196.0,42.0,102818.0,-12.363000869750977,1000,1000
1.9989867999975104,0.805145263671875,-0.393096923828125,-0.32745361328125,-0.299896240234375,-0.06103515625,-0.3662109375,0.30517578125,0.7655029296875,-0.4378662109375,0.478515625,-217.0,196.0,42.0,102818.0,-12.363000869750977,1000,1000
1.9990522000007331,0.805145263671875,-0.393096923828125,-0.32745361328125,-0.299896240234375,0.06103515625,-0.06103515625,-0.06103515625,0.767333984375,-0.4368896484375,0.47900390625,-217.0,196.0,42.0,102818.0,-12.363000869750977,1000,1000
1.9991169999993872,0.805145263671875,-0.39306640625,-0.32745361328125,-0.299896240234375,0.0,-0.18310546875,0.06103515625,0.7646484375,-0.436767578125,0.4794921875,-217.0,196.0,42.0,102818.0,-12.363000869750977,1000,1000
2.0591379000106826,0.80535888671875,-0.392852783203125,-0.32769775390625,-0.299346923828125,0.06103515625,-0.1220703125,-0.06103515625,0.763916015625,-0.437255859375,0.478759765625,-216.0,197.0,40.0,102818.0,-12.361001014709473,1000,1000
2.0592164000263438,0.80535888671875,-0.392852783203125,-0.327728271484375,-0.299346923828125,0.06103515625,0.0,-0.42724609375,0.767333984375,-0.4404296875,0.4771728515625,-216.0,197.0,40.0,102818.0,-12.361001014709473,1000,1000
2.0592847000225447,0.80535888671875,-0.392852783203125,-0.327728271484375,-0.299346923828125,-0.30517578125,-0.30517578125,-0.1220703125,0.7686767578125,-0.4356689453125,0.47900390625,-216.0,197.0,40.0,102818.0,-12.361001014709473,1000,1000
2.0593541999987792,0.80535888671875,-0.392852783203125,-0.327728271484375,-0.299346923828125,-0.1220703125,-0.244140625,0.06103515625,0.76611328125,-0.4385986328125,0.4786376953125,-216.0,197.0,40.0,102818.0,-12.361001014709473,1000,1000
2.060341900010826,0.80535888671875,-0.392852783203125,-0.327728271484375,-0.299346923828125,0.1220703125,-0.1220703125,-0.1220703125,0.7672119140625,-0.4383544921875,0.478271484375,-216.0,197.0,40.0,102818.0,-12.361001014709473,1000,1000
2.0604226000141352,0.80535888671875,-0.392852783203125,-0.327728271484375,-0.299346923828125,-0.244140625,0.0,-0.06103515625,0.7646484375,-0.437255859375,0.4771728515625,-216.0,197.0,40.0,102818.0,-12.361001014709473,1000,1000
2.0604940000048373,0.80535888671875,-0.392822265625,-0.327728271484375,-0.299346923828125,0.1220703125,0.06103515625,-0.06103515625,0.765380859375,-0.4365234375,0.4779052734375,-216.0,197.0,40.0,102818.0,-12.361001014709473,1000,1000
2.0605623000010382,0.80535888671875,-0.392822265625,-0.327728271484375,-0.299346923828125,0.0,-0.18310546875,-0.06103515625,0.766845703125,-0.4361572265625,0.479248046875,-216.0,197.0,40.0,102818.0,-12.361001014709473,1000,1000
2.0606289000133984,0.80535888671875,-0.392822265625,-0.327728271484375,-0.299346923828125,-0.18310546875,-0.244140625,-0.18310546875,0.765869140625,-0.4385986328125,0.4779052734375,-216.0,197.0,40.0,102818.0,-12.361001014709473,1000,1000
2.0606970000080764,0.80535888671875,-0.392822265625,-0.327728271484375,-0.299346923828125,-0.18310546875,-0.244140625,-0.18310546875,0.765869140625,-0.4385986328125,0.4779052734375,-216.0,197.0,40.0,102818.0,-12.361001014709473,1000,1000
2.0607638000219595,0.805389404296875,-0.392822265625,-0.32769775390625,-0.299346923828125,0.42724609375,0.18310546875,-0.06103515625,0.7645263671875,-0.437744140625,0.4803466796875,-216.0,197.0,40.0,102818.0,-12.361001014709473,1000,1000
2.128143200010527,0.805389404296875,-0.392822265625,-0.32769775390625,-0.299346923828125,-0.1220703125,-0.244140625,0.244140625,0.7646484375,-0.4390869140625,0.4793701171875,-216.0,197.0,40.0,102818.0,-12.361001014709473,1000,1000
2.128215900011128,0.805389404296875,-0.392822265625,-0.32769775390625,-0.299346923828125,-0.06103515625,0.0,0.0,0.7633056640625,-0.4378662109375,0.4791259765625,-216.0,197.0,40.0,102818.0,-12.361001014709473,1000,1000
2.1282852000149433,0.805389404296875,-0.392822265625,-0.32769775390625,-0.299346923828125,-0.18310546875,-0.1220703125,0.0,0.763427734375,-0.43798828125,0.4783935546875,-216.0,197.0,40.0,102818.0,-12.361001014709473,1000,1000
2.128354100015713,0.805389404296875,-0.392822265625,-0.32769775390625,-0.299346923828125,-0.06103515625,-0.18310546875,-0.244140625,0.76318359375,-0.436767578125,0.477294921875,-216.0,197.0,40.0,102818.0,-12.361001014709473,1000,1000
2.128425500006415,0.805389404296875,-0.392822265625,-0.32769775390625,-0.299346923828125,0.1220703125,-0.1220703125,-0.06103515625,0.7647705078125,-0.4373779296875,0.479248046875,-216.0,197.0,40.0,102818.0,-12.361001014709473,1000,1000
2.128492700023344,0.805389404296875,-0.392822265625,-0.32769775390625,-0.299346923828125,-0.18310546875,-0.244140625,-0.06103515625,0.7657470703125,-0.4393310546875,0.47900390625,-216.0,197.0,40.0,102818.0,-12.361001014709473,1000,1000
2.1287167000118643,0.805389404296875,-0.392822265625,-0.32769775390625,-0.299346923828125,-0.244140625,-0.3662109375,-0.244140625,0.7659912109375,-0.4366455078125,0.479248046875,-216.0,197.0,40.0,102818.0,-12.361001014709473,1000,1000
2.1287923000054434,0.805389404296875,-0.392822265625,-0.32769775390625,-0.299346923828125,-0.244140625,-0.3662109375,-0.244140625,0.7659912109375,-0.4366455078125,0.479248046875,-216.0,197.0,40.0,102818.0,-12.361001014709473,1000,1000
2.1288613000069745,0.805389404296875,-0.392822265625,-0.32769775390625,-0.299346923828125,0.06103515625,-0.244140625,0.18310546875,0.76513671875,-0.4388427734375,0.4776611328125,-216.0,196.0,41.0,102818.0,-12.362000465393066,1000,1000
2.1289307000115514,0.8055419921875,-0.39263916015625,-0.327911376953125,-0.298919677734375,-0.18310546875,0.0,-0.06103515625,0.7635498046875,-0.4378662109375,0.478759765625,-216.0,196.0,41.0,102818.0,-12.362000465393066,1000,1000
2.1289978999993764,0.805572509765625,-0.39263916015625,-0.327880859375,-0.298919677734375,-0.06103515625,-0.06103515625,-0.1220703125,0.7646484375,-0.4378662109375,0.479248046875,-216.0,196.0,41.0,102818.0,-12.362000465393066,1000,1000
2.129067500005476,0.805572509765625,-0.392608642578125,-0.327880859375,-0.298919677734375,-0.06103515625,0.0,-0.06103515625,0.7645263671875,-0.4368896484375,0.480712890625,-216.0,196.0,41.0,102818.0,-12.362000465393066,1000,1000
2.129132000001846,0.805572509765625,-0.392608642578125,-0.327880859375,-0.298919677734375,-0.18310546875,-0.18310546875,0.0,0.7625732421875,-0.4375,0.478759765625,-216.0,196.0,41.0,102818.0,-12.362000465393066,1000,1000
2.189912000001641,0.805572509765625,-0.392608642578125,-0.327880859375,-0.298919677734375,-0.18310546875,-0.06103515625,0.18310546875,0.767822265625,-0.4381103515625,0.4793701171875,-216.0,196.0,41.0,102818.0,-12.362000465393066,1000,1000
2.1899884000013117,0.805572509765625,-0.392608642578125,-0.327880859375,-0.298919677734375,-0.18310546875,-0.48828125,0.1220703125,0.7659912109375,-0.437744140625,0.4788818359375,-216.0,196.0,41.0,102818.0,-12.362000465393066,1000,1000
2.1901751999976113,0.805572509765625,-0.392608642578125,-0.327880859375,-0.298919677734375,-0.18310546875,-0.48828125,0.1220703125,0.7659912109375,-0.437744140625,0.4788818359375,-216.0,196.0,41.0,102818.0,-12.362000465393066,1000,1000
2.1902475000242703,0.805572509765625,-0.392608642578125,-0.327880859375,-0.298919677734375,-0.18310546875,-0.06103515625,0.0,0.76171875,-0.43505859375,0.478271484375,-216.0,196.0,41.0,102818.0,-12.362000465393066,1000,1000
2.19966340000974,0.805572509765625,-0.392608642578125,-0.327880859375,-0.298919677734375,-0.30517578125,-0.1220703125,0.06103515625,0.766357421875,-0.4390869140625,0.4781494140625,-216.0,196.0,41.0,102818.0,-12.362000465393066,1000,1000
2.199740300013218,0.805572509765625,-0.392578125,-0.327880859375,-0.298919677734375,-0.18310546875,-0.244140625,-0.06103515625,0.7657470703125,-0.4371337890625,0.47900390625,-216.0,196.0,41.0,102818.0,-12.362000465393066,1000,1000
2.199827100004768,0.805572509765625,-0.392578125,-0.327880859375,-0.298919677734375,-0.1220703125,-0.244140625,-0.1220703125,0.7659912109375,-0.4384765625,0.4794921875,-216.0,196.0,41.0,102818.0,-12.362000465393066,1000,1000
2.1999674000253435,0.805572509765625,-0.392578125,-0.327880859375,-0.298919677734375,0.06103515625,0.0,-0.06103515625,0.7637939453125,-0.4384765625,0.4776611328125,-216.0,196.0,41.0,102818.0,-12.362000465393066,1000,1000
2.200036000023829,0.805572509765625,-0.392578125,-0.327850341796875,-0.298919677734375,0.0,-0.06103515625,-0.1220703125,0.7655029296875,-0.437255859375,0.4798583984375,-216.0,196.0,41.0,102818.0,-12.362000465393066,1000,1000
2.200101100024767,0.80560302734375,-0.392578125,-0.327850341796875,-0.298919677734375,-0.244140625,-0.18310546875,0.06103515625,0.76513671875,-0.4381103515625,0.479736328125,-216.0,196.0,41.0,102818.0,-12.362000465393066,1000,1000
2.20016580002266,0.80560302734375,-0.392578125,-0.327850341796875,-0.298919677734375,-0.18310546875,-0.3662109375,0.0,0.7646484375,-0.4376220703125,0.48046875,-216.0,196.0,41.0,102818.0,-12.362000465393066,1000,1000
2.2646222000184935,0.80560302734375,-0.392547607421875,-0.327850341796875,-0.298919677734375,0.0,-0.3662109375,-0.06103515625,0.764404296875,-0.435302734375,0.4801025390625,-217.0,197.0,41.0,102818.0,-12.362000465393066,1000,1000
2.2647036999987904,0.80560302734375,-0.392547607421875,-0.327850341796875,-0.298919677734375,0.06103515625,-0.18310546875,0.06103515625,0.7646484375,-0.437744140625,0.4788818359375,-217.0,197.0,41.0,102818.0,-12.362000465393066,1000,1000
2.264775700023165,0.805755615234375,-0.392364501953125,-0.32806396484375,-0.298492431640625,0.06103515625,-0.1220703125,0.18310546875,0.76318359375,-0.43701171875,0.48046875,-217.0,197.0,41.0,102818.0,-12.362000465393066,1000,1000
2.2648465000092983,0.805755615234375,-0.392364501953125,-0.32806396484375,-0.298492431640625,0.0,-0.244140625,0.0,0.765869140625,-0.439208984375,0.479248046875,-217.0,197.0,41.0,102818.0,-12.362000465393066,1000,1000
2.26492159999907,0.8057861328125,-0.392364501953125,-0.32806396484375,-0.298492431640625,0.0,-0.18310546875,0.0,0.7640380859375,-0.43603515625,0.4788818359375,-217.0,197.0,41.0,102818.0,-12.362000465393066,1000,1000
2.2650259000074584,0.8057861328125,-0.392364501953125,-0.328033447265625,-0.298492431640625,-0.06103515625,-0.1220703125,0.06103515625,0.7646484375,-0.43798828125,0.47998046875,-217.0,197.0,41.0,102818.0,-12.362000465393066,1000,1000
2.2650953000120353,0.8057861328125,-0.392364501953125,-0.328033447265625,-0.298492431640625,0.1220703125,-0.18310546875,-0.244140625,0.7637939453125,-0.437255859375,0.4805908203125,-217.0,197.0,41.0,102818.0,-12.362000465393066,1000,1000
2.265164200012805,0.8057861328125,-0.392364501953125,-0.328033447265625,-0.298492431640625,-0.06103515625,-0.18310546875,0.244140625,0.7652587890625,-0.4385986328125,0.4805908203125,-217.0,197.0,41.0,102818.0,-12.362000465393066,1000,1000
2.265239600004861,0.8057861328125,-0.392364501953125,-0.328033447265625,-0.298492431640625,-0.06103515625,-0.18310546875,0.244140625,0.7652587890625,-0.4385986328125,0.4805908203125,-217.0,197.0,41.0,102818.0,-12.362000465393066,1000,1000
2.2653096000140067,0.8057861328125,-0.392364501953125,-0.328033447265625,-0.298492431640625,-0.06103515625,-0.244140625,0.0,0.7647705078125,-0.4384765625,0.480224609375,-217.0,197.0,41.0,102818.0,-12.362000465393066,1000,1000
2.2653774000064004,0.8057861328125,-0.392364501953125,-0.328033447265625,-0.298492431640625,0.0,-0.1220703125,-0.06103515625,0.76416015625,-0.4378662109375,0.4794921875,-217.0,197.0,41.0,102818.0,-12.362000465393066,1000,1000
2.316722200019285,0.8057861328125,-0.392364501953125,-0.328033447265625,-0.298492431640625,-0.1220703125,-0.18310546875,0.06103515625,0.767333984375,-0.43701171875,0.47900390625,-217.0,197.0,41.0,102818.0,-12.362000465393066,1000,1000
2.3167985000181943,0.8057861328125,-0.392333984375,-0.328033447265625,-0.298492431640625,-0.18310546875,0.18310546875,-0.06103515625,0.765380859375,-0.437744140625,0.4793701171875,-217.0,197.0,41.0,102818.0,-12.362000465393066,1000,1000
2.316866100009065,0.8057861328125,-0.392364501953125,-0.328033447265625,-0.298492431640625,-0.18310546875,-0.1220703125,0.18310546875,0.7659912109375,-0.439697265625,0.4793701171875,-217.0,197.0,41.0,102818.0,-12.362000465393066,1000,1000
2.3169751000241376,0.8057861328125,-0.392333984375,-0.328033447265625,-0.298492431640625,-0.1220703125,-0.06103515625,0.0,0.7650146484375,-0.439208984375,0.48193359375,-217.0,197.0,41.0,102818.0,-12.362000465393066,1000,1000
2.3170425000134856,0.8057861328125,-0.392333984375,-0.328033447265625,-0.298492431640625,0.0,-0.1220703125,0.06103515625,0.76416015625,-0.4373779296875,0.479248046875,-217.0,197.0,41.0,102818.0,-12.362000465393066,1000,1000
2.3171121000195853,0.8057861328125,-0.392333984375,-0.328033447265625,-0.298492431640625,-0.1220703125,-0.244140625,-0.06103515625,0.766845703125,-0.43994140625,0.4814453125,-217.0,197.0,41.0,102818.0,-12.362000465393066,1000,1000
2.3173729999980424,0.8057861328125,-0.392333984375,-0.328033447265625,-0.298492431640625,-0.1220703125,-0.244140625,-0.06103515625,0.766845703125,-0.43994140625,0.4814453125,-217.0,197.0,41.0,102818.0,-12.362000465393066,1000,1000
2.3174391000065953,0.8057861328125,-0.392333984375,-0.328033447265625,-0.298492431640625,-0.30517578125,-0.3662109375,0.06103515625,0.765869140625,-0.4378662109375,0.4793701171875,-217.0,197.0,41.0,102818.0,-12.362000465393066,1000,1000
2.317504700011341,0.805816650390625,-0.392333984375,-0.328033447265625,-0.298492431640625,-0.244140625,-0.18310546875,0.1220703125,0.7669677734375,-0.43701171875,0.4810791015625,-217.0,197.0,41.0,102818.0,-12.362000465393066,1000,1000
2.3175714000244625,0.805816650390625,-0.392333984375,-0.3280029296875,-0.298492431640625,-0.244140625,-0.30517578125,-0.1220703125,0.76416015625,-0.4376220703125,0.4783935546875,-217.0,197.0,41.0,102818.0,-12.360000610351562,1000,1000
2.3176424000121187,0.805816650390625,-0.392333984375,-0.3280029296875,-0.298492431640625,-0.18310546875,0.0,-0.244140625,0.765869140625,-0.4400634765625,0.4801025390625,-217.0,197.0,42.0,102818.0,-12.360000610351562,1000,1000
2.317710300005274,0.805938720703125,-0.3922119140625,-0.328155517578125,-0.298187255859375,0.18310546875,-0.18310546875,0.06103515625,0.7652587890625,-0.439208984375,0.4813232421875,-217.0,197.0,42.0,102818.0,-12.360000610351562,1000,1000
2.317775300005451,0.805938720703125,-0.3922119140625,-0.328155517578125,-0.298187255859375,0.0,-0.244140625,0.0,0.7633056640625,-0.4390869140625,0.478271484375,-217.0,197.0,42.0,102818.0,-12.360000610351562,1000,1000
2.3830791000218596,0.805938720703125,-0.3922119140625,-0.328125,-0.29815673828125,-0.06103515625,-0.06103515625,0.0,0.763427734375,-0.43798828125,0.4783935546875,-217.0,197.0,42.0,102818.0,-12.360000610351562,1000,1000
2.3831622000143398,0.805938720703125,-0.3922119140625,-0.328125,-0.29815673828125,-0.06103515625,-0.06103515625,0.0,0.763427734375,-0.43798828125,0.4783935546875,-217.0,197.0,42.0,102818.0,-12.360000610351562,1000,1000
2.3832357000210322,0.80596923828125,-0.392181396484375,-0.328125,-0.298187255859375,-0.06103515625,0.0,-0.06103515625,0.7652587890625,-0.4361572265625,0.4815673828125,-217.0,197.0,42.0,102818.0,-12.360000610351562,1000,1000
2.383308400021633,0.80596923828125,-0.392181396484375,-0.328125,-0.298187255859375,0.0,-0.1220703125,-0.1220703125,0.762939453125,-0.4356689453125,0.4815673828125,-217.0,197.0,42.0,102818.0,-12.360000610351562,1000,1000
2.3833823000022676,0.80596923828125,-0.392181396484375,-0.328125,-0.298187255859375,0.06103515625,-0.06103515625,-0.244140625,0.76416015625,-0.4381103515625,0.4796142578125,-217.0,197.0,42.0,102818.0,-12.360000610351562,1000,1000
2.383757000003243,0.80596923828125,-0.39215087890625,-0.328125,-0.298187255859375,-0.1220703125,-0.18310546875,0.1220703125,0.764404296875,-0.436279296875,0.47998046875,-217.0,197.0,42.0,102818.0,-12.360000610351562,1000,1000
2.383830400009174,0.80596923828125,-0.39215087890625,-0.328125,-0.298187255859375,-0.1220703125,-0.30517578125,0.06103515625,0.7666015625,-0.436279296875,0.4798583984375,-217.0,197.0,42.0,102818.0,-12.360000610351562,1000,1000
2.3839701000251807,0.80596923828125,-0.39215087890625,-0.328125,-0.298187255859375,-0.30517578125,-0.06103515625,-0.244140625,0.7674560546875,-0.4383544921875,0.4808349609375,-217.0,197.0,42.0,102818.0,-12.360000610351562,1000,1000
2.3840403000067454,0.80596923828125,-0.39215087890625,-0.328125,-0.298187255859375,0.06103515625,-0.06103515625,0.0,0.763671875,-0.43798828125,0.4793701171875,-217.0,197.0,42.0,102818.0,-12.360000610351562,1000,1000
2.384111400024267,0.80596923828125,-0.39215087890625,-0.328125,-0.298187255859375,-0.06103515625,-0.30517578125,0.0,0.7647705078125,-0.4373779296875,0.48046875,-217.0,197.0,42.0,102818.0,-12.360000610351562,1000,1000
2.38418150000507,0.80596923828125,-0.39215087890625,-0.328125,-0.298187255859375,-0.06103515625,-0.30517578125,0.0,0.7647705078125,-0.4373779296875,0.48046875,-217.0,197.0,42.0,102818.0,-12.360000610351562,1000,1000
2.4453184000158217,0.805999755859375,-0.392120361328125,-0.328094482421875,-0.298187255859375,-0.06103515625,-0.244140625,-0.1220703125,0.7655029296875,-0.4371337890625,0.480224609375,-217.0,197.0,42.0,102818.0,-12.360000610351562,1000,1000
2.4453957000223454,0.805999755859375,-0.392120361328125,-0.328094482421875,-0.298187255859375,0.0,-0.244140625,-0.244140625,0.7640380859375,-0.437744140625,0.479736328125,-217.0,197.0,42.0,102818.0,-12.360000610351562,1000,1000
2.445467700017616,0.805999755859375,-0.392120361328125,-0.328094482421875,-0.298187255859375,0.0,-0.244140625,-0.244140625,0.7640380859375,-0.437744140625,0.479736328125,-217.0,196.0,44.0,102818.0,-12.361001014709473,1000,1000
2.4455345000023954,0.805999755859375,-0.392120361328125,-0.328094482421875,-0.298187255859375,-0.18310546875,-0.18310546875,-0.18310546875,0.7628173828125,-0.4385986328125,0.4791259765625,-217.0,196.0,44.0,102818.0,-12.361001014709473,1000,1000
2.5110632000141777,0.805999755859375,-0.39208984375,-0.32806396484375,-0.298187255859375,-0.18310546875,-0.06103515625,0.0,0.7626953125,-0.437255859375,0.4805908203125,-217.0,196.0,44.0,102818.0,-12.361001014709473,1000,1000
2.51114110002527,0.805999755859375,-0.39208984375,-0.32806396484375,-0.298187255859375,0.1220703125,-0.1220703125,0.3662109375,0.76611328125,-0.4383544921875,0.4801025390625,-217.0,196.0,44.0,102818.0,-12.361001014709473,1000,1000
2.5112103999999817,0.805999755859375,-0.39208984375,-0.32806396484375,-0.2982177734375,0.06103515625,-0.1220703125,0.0,0.7657470703125,-0.4359130859375,0.479248046875,-217.0,196.0,44.0,102818.0,-12.361001014709473,1000,1000
2.511276600009296,0.805999755859375,-0.39208984375,-0.32806396484375,-0.2982177734375,-0.1220703125,-0.1220703125,0.0,0.7664794921875,-0.4361572265625,0.4788818359375,-217.0,196.0,44.0,102818.0,-12.361001014709473,1000,1000
2.5113415000087116,0.805999755859375,-0.392059326171875,-0.32806396484375,-0.2982177734375,0.0,0.06103515625,0.1220703125,0.76416015625,-0.4384765625,0.4798583984375,-217.0,196.0,44.0,102818.0,-12.361001014709473,1000,1000
2.511411200015573,0.805999755859375,-0.392059326171875,-0.32806396484375,-0.2982177734375,0.0,0.06103515625,0.1220703125,0.76416015625,-0.4384765625,0.4798583984375,-217.0,196.0,44.0,102818.0,-12.361001014709473,1000,1000
2.511785000009695,0.8060302734375,-0.392059326171875,-0.32806396484375,-0.2982177734375,-0.18310546875,-0.30517578125,0.1220703125,0.7655029296875,-0.4383544921875,0.480224609375,-217.0,196.0,44.0,102818.0,-12.361001014709473,1000,1000
2.5118960000108927,0.8060302734375,-0.392059326171875,-0.32806396484375,-0.2982177734375,-0.1220703125,-0.18310546875,0.0,0.76416015625,-0.439208984375,0.4791259765625,-217.0,196.0,44.0,102818.0,-12.361001014709473,1000,1000
2.511991900013527,0.8060302734375,-0.39208984375,-0.32806396484375,-0.2982177734375,-0.18310546875,-0.30517578125,-0.06103515625,0.76416015625,-0.4398193359375,0.4783935546875,-217.0,196.0,44.0,102818.0,-12.361001014709473,1000,1000
2.5120961000211537,0.8060302734375,-0.39208984375,-0.32806396484375,-0.2982177734375,0.06103515625,-0.244140625,0.1220703125,0.7647705078125,-0.439208984375,0.4813232421875,-217.0,196.0,44.0,102818.0,-12.361001014709473,1000,1000
2.5121615000243764,0.8060302734375,-0.392059326171875,-0.32806396484375,-0.2982177734375,-0.1220703125,-0.30517578125,0.06103515625,0.763427734375,-0.4383544921875,0.4815673828125,-217.0,196.0,44.0,102818.0,-12.361001014709473,1000,1000
2.512226999999257,0.8060302734375,-0.392059326171875,-0.328033447265625,-0.2982177734375,-0.18310546875,-0.06103515625,-0.1220703125,0.764892578125,-0.4384765625,0.478271484375,-217.0,196.0,44.0,102818.0,-12.360000610351562,1000,1000
2.512289200007217,0.8060302734375,-0.392059326171875,-0.328033447265625,-0.2982177734375,0.1220703125,-0.06103515625,0.0,0.7655029296875,-0.4365234375,0.480712890625,-217.0,196.0,42.0,102818.0,-12.360000610351562,1000,1000
2.572719200019492,0.80615234375,-0.391937255859375,-0.328216552734375,-0.297882080078125,-0.244140625,-0.244140625,0.0,0.7657470703125,-0.4365234375,0.479736328125,-217.0,196.0,42.0,102818.0,-12.360000610351562,1000,1000
2.572798100009095,0.80615234375,-0.39190673828125,-0.32818603515625,-0.297882080078125,-0.1220703125,0.1220703125,0.0,0.7672119140625,-0.438232421875,0.47998046875,-217.0,196.0,42.0,102818.0,-12.360000610351562,1000,1000
2.5728655999992043,0.80615234375,-0.39190673828125,-0.32818603515625,-0.297882080078125,0.1220703125,-0.18310546875,-0.06103515625,0.7635498046875,-0.4361572265625,0.4801025390625,-217.0,196.0,42.0,102818.0,-12.360000610351562,1000,1000
2.5729343999992125,0.80615234375,-0.39190673828125,-0.32818603515625,-0.297882080078125,0.0,0.0,-0.06103515625,0.76416015625,-0.4359130859375,0.48046875,-217.0,196.0,42.0,102818.0,-12.360000610351562,1000,1000
2.57300290002604,0.80615234375,-0.39190673828125,-0.32818603515625,-0.297882080078125,0.0,-0.06103515625,-0.244140625,0.765625,-0.4378662109375,0.47900390625,-217.0,196.0,42.0,102818.0,-12.360000610351562,1000,1000
2.582876300002681,0.806182861328125,-0.39190673828125,-0.32818603515625,-0.297882080078125,0.06103515625,-0.18310546875,-0.06103515625,0.7635498046875,-0.4385986328125,0.4808349609375,-217.0,196.0,42.0,102818.0,-12.360000610351562,1000,1000
2.5829524000000674,0.806182861328125,-0.39190673828125,-0.32818603515625,-0.297882080078125,-0.06103515625,-0.18310546875,0.1220703125,0.7655029296875,-0.43701171875,0.480712890625,-217.0,196.0,42.0,102818.0,-12.360000610351562,1000,1000
2.583021700003883,0.806182861328125,-0.39190673828125,-0.32818603515625,-0.297882080078125,-0.1220703125,-0.06103515625,0.1220703125,0.763916015625,-0.4393310546875,0.4798583984375,-217.0,196.0,42.0,102818.0,-12.360000610351562,1000,1000
2.58309180001379,0.806182861328125,-0.39190673828125,-0.32818603515625,-0.297882080078125,-0.06103515625,-0.1220703125,0.1220703125,0.76513671875,-0.4375,0.4805908203125,-217.0,196.0,42.0,102818.0,-12.360000610351562,1000,1000
2.5831593000038993,0.806182861328125,-0.39190673828125,-0.32818603515625,-0.297882080078125,-0.06103515625,-0.1220703125,0.1220703125,0.76513671875,-0.4375,0.4805908203125,-217.0,196.0,42.0,102818.0,-12.360000610351562,1000,1000
2.5832274999993388,0.806182861328125,-0.391876220703125,-0.32818603515625,-0.297882080078125,-0.18310546875,0.0,-0.1220703125,0.764892578125,-0.43798828125,0.47998046875,-217.0,196.0,42.0,102818.0,-12.360000610351562,1000,1000
2.6382204000256024,0.806182861328125,-0.391876220703125,-0.328155517578125,-0.297882080078125,0.06103515625,-0.06103515625,-0.18310546875,0.7659912109375,-0.438720703125,0.480224609375,-217.0,196.0,42.0,102818.0,-12.360000610351562,1000,1000
2.6382931000262033,0.806182861328125,-0.391876220703125,-0.328155517578125,-0.297882080078125,-0.244140625,-0.1220703125,-0.1220703125,0.7652587890625,-0.4378662109375,0.4815673828125,-217.0,196.0,42.0,102818.0,-12.360000610351562,1000,1000
2.6383619000262115,0.806182861328125,-0.391876220703125,-0.328155517578125,-0.297882080078125,-0.06103515625,-0.30517578125,0.06103515625,0.7647705078125,-0.4376220703125,0.47998046875,-217.0,196.0,42.0,102818.0,-12.360000610351562,1000,1000
2.6384286000102293,0.806182861328125,-0.391876220703125,-0.328155517578125,-0.29791259765625,-0.06103515625,-0.244140625,0.0,0.76611328125,-0.4361572265625,0.4813232421875,-217.0,196.0,42.0,102818.0,-12.360000610351562,1000,1000
2.6384952000225894,0.806182861328125,-0.391845703125,-0.328155517578125,-0.29791259765625,-0.06103515625,-0.244140625,0.0,0.76611328125,-0.4361572265625,0.4813232421875,-215.0,195.0,42.0,102818.0,-12.360000610351562,1000,1000
2.6545686000026762,0.806304931640625,-0.3917236328125,-0.32830810546875,-0.297576904296875,-0.3662109375,-0.18310546875,-0.18310546875,0.7655029296875,-0.4356689453125,0.482177734375,-215.0,195.0,42.0,102818.0,-12.360000610351562,1000,1000
2.6546456000069156,0.806304931640625,-0.3917236328125,-0.32830810546875,-0.297576904296875,-0.3662109375,-0.18310546875,-0.18310546875,0.7655029296875,-0.4356689453125,0.482177734375,-215.0,195.0,42.0,102818.0,-12.360000610351562,1000,1000
2.654713500000071,0.80633544921875,-0.3917236328125,-0.32830810546875,-0.297576904296875,-0.30517578125,-0.244140625,-0.06103515625,0.763671875,-0.43798828125,0.4786376953125,-215.0,195.0,42.0,102818.0,-12.360000610351562,1000,1000
2.6547813000215683,0.80633544921875,-0.3917236328125,-0.32830810546875,-0.297576904296875,0.18310546875,-0.244140625,-0.1220703125,0.7626953125,-0.4364013671875,0.478271484375,-215.0,195.0,42.0,102818.0,-12.360000610351562,1000,1000
2.654848400008632,0.80633544921875,-0.3917236328125,-0.32830810546875,-0.297576904296875,-0.1220703125,-0.3662109375,0.06103515625,0.7645263671875,-0.4385986328125,0.4805908203125,-215.0,195.0,42.0,102818.0,-12.360000610351562,1000,1000
2.65491720000864,0.80633544921875,-0.3917236328125,-0.32830810546875,-0.297576904296875,0.06103515625,0.0,0.0,0.765869140625,-0.4393310546875,0.4788818359375,-215.0,195.0,42.0,102818.0,-12.360000610351562,1000,1000
2.698332300002221,0.80633544921875,-0.3917236328125,-0.32830810546875,-0.297576904296875,-0.244140625,0.06103515625,0.1220703125,0.7667236328125,-0.4383544921875,0.4775390625,-215.0,195.0,42.0,102818.0,-12.360000610351562,1000,1000
2.698408800002653,0.80633544921875,-0.3917236328125,-0.32830810546875,-0.297576904296875,0.1220703125,-0.244140625,-0.1220703125,0.764892578125,-0.438232421875,0.4801025390625,-215.0,195.0,42.0,102818.0,-12.360000610351562,1000,1000
2.6984765000233892,0.80633544921875,-0.3917236328125,-0.32830810546875,-0.297576904296875,0.0,-0.1220703125,0.0,0.765625,-0.4385986328125,0.4786376953125,-215.0,195.0,42.0,102818.0,-12.360000610351562,1000,1000
2.6985468000057153,0.80633544921875,-0.3917236328125,-0.32830810546875,-0.297576904296875,0.0,-0.1220703125,0.0,0.765625,-0.4385986328125,0.4786376953125,-215.0,195.0,42.0,102818.0,-12.361001014709473,1000,1000
2.6986174000194296,0.80633544921875,-0.3917236328125,-0.32830810546875,-0.297576904296875,0.0,-0.1220703125,0.0,0.765625,-0.4385986328125,0.4786376953125,-215.0,195.0,42.0,102818.0,-12.361001014709473,1000,1000
2.6986843000049703,0.80633544921875,-0.3917236328125,-0.32830810546875,-0.297576904296875,-0.1220703125,-0.244140625,-0.06103515625,0.7633056640625,-0.4365234375,0.4788818359375,-215.0,195.0,42.0,102818.0,-12.361001014709473,1000,1000
2.698752299998887,0.80633544921875,-0.3917236328125,-0.32830810546875,-0.297576904296875,-0.18310546875,-0.06103515625,-0.06103515625,0.7640380859375,-0.4385986328125,0.4775390625,-215.0,195.0,42.0,102818.0,-12.361001014709473,1000,1000
2.699644200009061,0.80633544921875,-0.3917236328125,-0.32830810546875,-0.297576904296875,-0.18310546875,-0.48828125,-0.1220703125,0.7646484375,-0.439453125,0.477783203125,-215.0,195.0,42.0,102818.0,-12.361001014709473,1000,1000
2.6997175000142306,0.806304931640625,-0.3917236328125,-0.32830810546875,-0.297576904296875,0.06103515625,-0.06103515625,0.1220703125,0.7667236328125,-0.437255859375,0.4791259765625,-215.0,195.0,42.0,102818.0,-12.361001014709473,1000,1000
2.699783700023545,0.806304931640625,-0.3917236328125,-0.32830810546875,-0.297576904296875,-0.3662109375,-0.42724609375,0.1220703125,0.7640380859375,-0.4373779296875,0.4776611328125,-215.0,195.0,42.0,102818.0,-12.361001014709473,1000,1000
2.6998512000136543,0.806304931640625,-0.3917236328125,-0.32830810546875,-0.297576904296875,-0.1220703125,-0.06103515625,-0.18310546875,0.7652587890625,-0.4376220703125,0.4786376953125,-215.0,195.0,42.0,102818.0,-12.361001014709473,1000,1000
2.6999176000244915,0.806304931640625,-0.3917236328125,-0.32830810546875,-0.297576904296875,-0.244140625,0.1220703125,-0.06103515625,0.7669677734375,-0.4385986328125,0.4783935546875,-215.0,195.0,42.0,102818.0,-12.361001014709473,1000,1000
2.699983099999372,0.806304931640625,-0.3917236328125,-0.32830810546875,-0.297576904296875,0.1220703125,0.06103515625,0.18310546875,0.7645263671875,-0.4376220703125,0.4808349609375,-215.0,195.0,42.0,102818.0,-12.361001014709473,1000,1000
2.76733860000968,0.806427001953125,-0.3916015625,-0.328460693359375,-0.2972412109375,-0.18310546875,-0.1220703125,-0.1220703125,0.76513671875,-0.4388427734375,0.4794921875,-216.0,196.0,42.0,102818.0,-12.361001014709473,1000,1000
2.767416000016965,0.806427001953125,-0.3916015625,-0.328460693359375,-0.2972412109375,-0.1220703125,-0.18310546875,-0.06103515625,0.7650146484375,-0.4366455078125,0.478515625,-216.0,196.0,42.0,102818.0,-12.361001014709473,1000,1000
2.7675981000065804,0.806427001953125,-0.3916015625,-0.328460693359375,-0.2972412109375,-0.1220703125,-0.244140625,0.06103515625,0.76513671875,-0.4383544921875,0.4779052734375,-216.0,196.0,42.0,102818.0,-12.361001014709473,1000,1000
2.767749700025888,0.806427001953125,-0.3916015625,-0.328460693359375,-0.2972412109375,-0.18310546875,-0.06103515625,0.06103515625,0.7650146484375,-0.4393310546875,0.478759765625,-216.0,196.0,42.0,102818.0,-12.361001014709473,1000,1000
2.7678301999985706,0.806427001953125,-0.3916015625,-0.328460693359375,-0.2972412109375,-0.3662109375,-0.244140625,0.18310546875,0.7657470703125,-0.4388427734375,0.4793701171875,-216.0,196.0,42.0,102818.0,-12.361001014709473,1000,1000
2.7691104999976233,0.806427001953125,-0.391632080078125,-0.328460693359375,-0.2972412109375,-0.18310546875,-0.18310546875,-0.1220703125,0.7625732421875,-0.4395751953125,0.4791259765625,-216.0,196.0,42.0,102818.0,-12.361001014709473,1000,1000
2.769184100005077,0.806427001953125,-0.391632080078125,-0.328460693359375,-0.2972412109375,-0.18310546875,-0.244140625,0.1220703125,0.76220703125,-0.44091796875,0.4775390625,-216.0,196.0,42.0,102818.0,-12.361001014709473,1000,1000
2.769250800018199,0.806427001953125,-0.391632080078125,-0.328460693359375,-0.2972412109375,-0.1220703125,0.0,-0.1220703125,0.7637939453125,-0.4366455078125,0.4776611328125,-216.0,196.0,42.0,102818.0,-12.361001014709473,1000,1000
2.769318300008308,0.806427001953125,-0.391632080078125,-0.328460693359375,-0.2972412109375,-0.1220703125,0.0,-0.1220703125,0.7637939453125,-0.4366455078125,0.4776611328125,-216.0,196.0,42.0,102818.0,-12.361001014709473,1000,1000
2.7693887000204995,0.806427001953125,-0.391632080078125,-0.328460693359375,-0.297210693359375,-0.244140625,-0.30517578125,0.0,0.7637939453125,-0.4383544921875,0.4776611328125,-216.0,196.0,42.0,102818.0,-12.358000755310059,1000,1000
2.7694533000176307,0.806427001953125,-0.391632080078125,-0.328460693359375,-0.297210693359375,-0.06103515625,-0.1220703125,0.18310546875,0.765380859375,-0.437255859375,0.47802734375,-216.0,196.0,42.0,102818.0,-12.358000755310059,1000,1000
2.830647900002077,0.806427001953125,-0.391632080078125,-0.328460693359375,-0.297210693359375,0.0,-0.18310546875,0.244140625,0.7672119140625,-0.439208984375,0.4788818359375,-216.0,196.0,42.0,102818.0,-12.358000755310059,1000,1000
2.8307267000200227,0.806427001953125,-0.391632080078125,-0.328460693359375,-0.297210693359375,0.06103515625,-0.06103515625,0.42724609375,0.763671875,-0.439208984375,0.4781494140625,-216.0,196.0,42.0,102818.0,-12.358000755310059,1000,1000
2.830799500021385,0.806427001953125,-0.391632080078125,-0.328460693359375,-0.297210693359375,-0.06103515625,0.0,-0.1220703125,0.7652587890625,-0.4383544921875,0.477783203125,-216.0,196.0,42.0,102818.0,-12.358000755310059,1000,1000
2.830868900025962,0.806427001953125,-0.39166259765625,-0.328460693359375,-0.297210693359375,-0.06103515625,-0.18310546875,-0.18310546875,0.7667236328125,-0.439208984375,0.4779052734375,-216.0,196.0,42.0,102818.0,-12.358000755310059,1000,1000
2.8309353000076953,0.806427001953125,-0.39166259765625,-0.328460693359375,-0.297210693359375,-0.18310546875,-0.244140625,0.0,0.763671875,-0.439453125,0.47900390625,-216.0,196.0,42.0,102818.0,-12.358000755310059,1000,1000
2.831187800009502,0.806427001953125,-0.39166259765625,-0.328460693359375,-0.297210693359375,-0.18310546875,-0.244140625,0.0,0.763671875,-0.439453125,0.47900390625,-216.0,196.0,42.0,102818.0,-12.358000755310059,1000,1000
2.8312549000256695,0.806427001953125,-0.39166259765625,-0.328460693359375,-0.297210693359375,-0.1220703125,-0.244140625,0.0,0.763916015625,-0.4384765625,0.478759765625,-217.0,198.0,42.0,102818.0,-12.358000755310059,1000,1000
2.831371800013585,0.8065185546875,-0.391571044921875,-0.32855224609375,-0.2969970703125,0.0,-0.30517578125,-0.18310546875,0.763671875,-0.435546875,0.4783935546875,-217.0,198.0,42.0,102818.0,-12.358000755310059,1000,1000
2.8314384999976028,0.8065185546875,-0.391571044921875,-0.32855224609375,-0.2969970703125,-0.06103515625,-0.3662109375,0.1220703125,0.764404296875,-0.43701171875,0.477783203125,-217.0,198.0,42.0,102818.0,-12.358000755310059,1000,1000
2.8315057000145316,0.8065185546875,-0.39154052734375,-0.32855224609375,-0.2969970703125,0.18310546875,-0.244140625,-0.244140625,0.7645263671875,-0.4365234375,0.4815673828125,-217.0,198.0,42.0,102818.0,-12.358000755310059,1000,1000
2.8315723999985494,0.8065185546875,-0.39154052734375,-0.32855224609375,-0.2969970703125,-0.244140625,-0.1220703125,-0.1220703125,0.76318359375,-0.4361572265625,0.47705078125,-217.0,198.0,42.0,102818.0,-12.358000755310059,1000,1000
2.898640900006285,0.8065185546875,-0.39154052734375,-0.32855224609375,-0.2969970703125,-0.06103515625,-0.3662109375,-0.06103515625,0.763427734375,-0.4364013671875,0.47998046875,-217.0,198.0,42.0,102818.0,-12.358000755310059,1000,1000
2.898736300005112,0.8065185546875,-0.39154052734375,-0.32855224609375,-0.2969970703125,-0.1220703125,-0.30517578125,0.18310546875,0.7657470703125,-0.437255859375,0.4791259765625,-217.0,198.0,42.0,102818.0,-12.358000755310059,1000,1000
2.898806900018826,0.8065185546875,-0.39154052734375,-0.32855224609375,-0.2969970703125,-0.06103515625,-0.244140625,0.1220703125,0.764404296875,-0.4373779296875,0.477783203125,-217.0,198.0,42.0,102818.0,-12.358000755310059,1000,1000
2.8988764000241645,0.8065185546875,-0.39154052734375,-0.32855224609375,-0.2969970703125,-0.06103515625,-0.244140625,0.1220703125,0.764404296875,-0.4373779296875,0.477783203125,-217.0,198.0,42.0,102818.0,-12.358000755310059,1000,1000
2.8989455999981146,0.8065185546875,-0.39154052734375,-0.32855224609375,-0.2969970703125,-0.06103515625,-0.244140625,-0.06103515625,0.763916015625,-0.4376220703125,0.478759765625,-217.0,198.0,42.0,102818.0,-12.358000755310059,1000,1000
2.8990107999998145,0.8065185546875,-0.391571044921875,-0.32855224609375,-0.2969970703125,-0.06103515625,-0.18310546875,0.1220703125,0.7666015625,-0.4383544921875,0.4775390625,-217.0,198.0,42.0,102818.0,-12.360000610351562,1000,1000
2.899077700014459,0.8065185546875,-0.391571044921875,-0.328582763671875,-0.2969970703125,-0.18310546875,-0.06103515625,-0.06103515625,0.7674560546875,-0.4390869140625,0.478271484375,-217.0,198.0,42.0,102818.0,-12.360000610351562,1000,1000
2.8991627000214066,0.8065185546875,-0.391571044921875,-0.328582763671875,-0.2969970703125,-0.1220703125,-0.18310546875,0.0,0.7672119140625,-0.437744140625,0.4774169921875,-217.0,198.0,42.0,102818.0,-12.360000610351562,1000,1000
2.899228900001617,0.8065185546875,-0.391571044921875,-0.328582763671875,-0.2969970703125,-0.1220703125,-0.3662109375,0.06103515625,0.7667236328125,-0.4366455078125,0.4769287109375,-217.0,198.0,42.0,102818.0,-12.360000610351562,1000,1000
2.8993162999977358,0.8065185546875,-0.39154052734375,-0.328582763671875,-0.2969970703125,-0.06103515625,-0.30517578125,-0.06103515625,0.76708984375,-0.4356689453125,0.480224609375,-217.0,198.0,42.0,102818.0,-12.360000610351562,1000,1000
