Time stamp(sec),quaternion_0,quaternion_1,quaternion_2,quaternion_3,roll_angular_rate,pitch_angular_rate,yaw_angular_rate,acc_X,acc_Y,acc_Z,mag_X,mag_Y,mag_Z,pressure,altitude
1700.572001,-0.746795654296875,0.05450439453125,-0.005889892578125,0.662750244140625,0.1220703125,0.244140625,0.0,0.0653076171875,-0.0902099609375,1.002685546875,-218.0,32.0,-88.0,101920.0,-4.948000431060791,0,0
1700.579018,-0.746795654296875,0.05450439453125,-0.005859375,0.662750244140625,0.0,0.244140625,0.0,0.0640869140625,-0.0892333984375,1.0020751953125,-218.0,32.0,-88.0,101920.0,-4.948000431060791,0,0
1700.585995,-0.746795654296875,0.05450439453125,-0.005859375,0.662750244140625,0.18310546875,0.0,-0.06103515625,0.06298828125,-0.08837890625,1.0013427734375,-218.0,32.0,-88.0,101920.0,-4.948000431060791,0,0
1700.592995,-0.746795654296875,0.054473876953125,-0.005859375,0.662750244140625,0.1220703125,-0.06103515625,0.06103515625,0.0640869140625,-0.0869140625,1.000244140625,-218.0,32.0,-88.0,101920.0,-4.948000431060791,0,0
1700.60002,-0.746795654296875,0.054473876953125,-0.005859375,0.662750244140625,0.18310546875,0.3662109375,-0.18310546875,0.064208984375,-0.0902099609375,1.0008544921875,-218.0,32.0,-88.0,101920.0,-4.948000431060791,0,0
1700.606999,-0.746795654296875,0.054473876953125,-0.005859375,0.662750244140625,-0.1220703125,0.18310546875,0.1220703125,0.0634765625,-0.0904541015625,0.9993896484375,-218.0,32.0,-88.0,101920.0,-4.948000431060791,0,0
1700.614016,-0.746795654296875,0.054473876953125,-0.005859375,0.662750244140625,0.1220703125,0.1220703125,0.18310546875,0.0626220703125,-0.092041015625,1.0015869140625,-218.0,32.0,-88.0,101920.0,-4.948000431060791,0,0
1700.620997,-0.746795654296875,0.054473876953125,-0.005859375,0.662750244140625,0.0,0.244140625,0.06103515625,0.0640869140625,-0.0914306640625,1.0025634765625,-218.0,32.0,-88.0,101920.0,-4.948000431060791,0,0
1700.627997,-0.746795654296875,0.05450439453125,-0.005889892578125,0.662750244140625,0.18310546875,0.30517578125,-0.1220703125,0.0625,-0.0927734375,1.001220703125,-218.0,32.0,-88.0,101920.0,-4.948000431060791,0,0
1700.635022,-0.746795654296875,0.054473876953125,-0.005889892578125,0.662750244140625,0.06103515625,0.30517578125,0.06103515625,0.062255859375,-0.0906982421875,1.00146484375,-218.0,32.0,-88.0,101920.0,-4.948000431060791,0,0
1700.642001,-0.746734619140625,0.05450439453125,-0.00592041015625,0.662841796875,0.1220703125,0.48828125,0.0,0.062255859375,-0.089599609375,1.0015869140625,-218.0,32.0,-89.0,101920.0,-4.948000431060791,0,0
1700.648029,-0.746734619140625,0.05450439453125,-0.00592041015625,0.662841796875,0.1220703125,0.48828125,0.0,0.062255859375,-0.089599609375,1.0015869140625,-218.0,32.0,-89.0,101920.0,-4.948000431060791,0,0
1700.655018,-0.746734619140625,0.05450439453125,-0.00592041015625,0.662841796875,0.0,0.30517578125,-0.244140625,0.064453125,-0.0911865234375,1.0006103515625,-218.0,32.0,-89.0,101920.0,-4.948000431060791,0,0
1700.662001,-0.746734619140625,0.05450439453125,-0.00592041015625,0.662841796875,0.06103515625,0.18310546875,-0.06103515625,0.0638427734375,-0.0914306640625,1.0029296875,-218.0,32.0,-89.0,101920.0,-4.948000431060791,0,0
1700.669019,-0.746734619140625,0.05450439453125,-0.00592041015625,0.662841796875,0.1220703125,0.48828125,0.30517578125,0.063720703125,-0.0897216796875,1.0010986328125,-218.0,32.0,-89.0,101920.0,-4.948000431060791,0,0
1700.675995,-0.746734619140625,0.054534912109375,-0.00592041015625,0.662841796875,-0.06103515625,0.18310546875,0.0,0.0645751953125,-0.0919189453125,1.001953125,-218.0,32.0,-89.0,101920.0,-4.948000431060791,0,0
1700.682996,-0.746734619140625,0.054534912109375,-0.00592041015625,0.662841796875,0.1220703125,0.48828125,0.0,0.066650390625,-0.0894775390625,1.0028076171875,-218.0,32.0,-89.0,101920.0,-4.948000431060791,0,0
1700.69002,-0.746734619140625,0.054534912109375,-0.00592041015625,0.662841796875,-0.06103515625,0.244140625,-0.06103515625,0.064697265625,-0.09130859375,1.00146484375,-218.0,32.0,-89.0,101920.0,-4.949000358581543,0,0
1700.696999,-0.746734619140625,0.054534912109375,-0.00592041015625,0.662841796875,0.06103515625,0.3662109375,0.06103515625,0.0618896484375,-0.0909423828125,1.0032958984375,-218.0,32.0,-89.0,101920.0,-4.949000358581543,0,0
1700.704016,-0.746734619140625,0.054534912109375,-0.00592041015625,0.662841796875,0.18310546875,0.244140625,-0.1220703125,0.063720703125,-0.08837890625,1.0006103515625,-218.0,32.0,-89.0,101920.0,-4.949000358581543,0,0
1700.710997,-0.746734619140625,0.05450439453125,-0.00592041015625,0.662841796875,-0.18310546875,0.3662109375,-0.06103515625,0.061767578125,-0.087890625,1.0025634765625,-218.0,32.0,-89.0,101920.0,-4.949000358581543,0,0
1700.717997,-0.746734619140625,0.05450439453125,-0.00592041015625,0.662841796875,0.0,0.30517578125,0.06103515625,0.062255859375,-0.0885009765625,1.0015869140625,-218.0,32.0,-89.0,101920.0,-4.949000358581543,0,0
1700.725022,-0.746734619140625,0.05450439453125,-0.00592041015625,0.662841796875,0.0,0.06103515625,-0.42724609375,0.063232421875,-0.089599609375,1.0013427734375,-218.0,32.0,-89.0,101920.0,-4.949000358581543,0,0
1700.745048,-0.746734619140625,0.054473876953125,-0.00592041015625,0.662841796875,0.0,0.244140625,-0.06103515625,0.063720703125,-0.0885009765625,1.0010986328125,-218.0,32.0,-89.0,101920.0,-4.949000358581543,0,0
1700.752001,-0.74664306640625,0.054473876953125,-0.00592041015625,0.662933349609375,-0.06103515625,0.30517578125,0.0,0.063232421875,-0.0888671875,1.0025634765625,-218.0,32.0,-90.0,101920.0,-4.949000358581543,0,0
1700.759018,-0.74664306640625,0.054473876953125,-0.005950927734375,0.662933349609375,0.06103515625,0.06103515625,-0.18310546875,0.063720703125,-0.093017578125,1.0050048828125,-218.0,32.0,-90.0,101920.0,-4.949000358581543,0,0
1700.765996,-0.74664306640625,0.054473876953125,-0.005950927734375,0.662933349609375,-0.06103515625,0.1220703125,0.30517578125,0.0634765625,-0.091552734375,1.0023193359375,-218.0,32.0,-90.0,101920.0,-4.949000358581543,0,0
1700.773,-0.74664306640625,0.054473876953125,-0.005950927734375,0.662933349609375,-0.18310546875,0.30517578125,0.0,0.064697265625,-0.088623046875,1.00146484375,-218.0,32.0,-90.0,101920.0,-4.949000358581543,0,0
1700.78002,-0.74664306640625,0.054473876953125,-0.005950927734375,0.662933349609375,-0.244140625,-0.06103515625,0.18310546875,0.0626220703125,-0.0924072265625,1.000244140625,-218.0,32.0,-90.0,101920.0,-4.949000358581543,0,0
1700.786999,-0.74664306640625,0.054473876953125,-0.005950927734375,0.662933349609375,0.06103515625,0.30517578125,0.06103515625,0.062744140625,-0.0914306640625,1.000244140625,-218.0,32.0,-90.0,101920.0,-4.950000286102295,0,0
1700.794016,-0.74664306640625,0.054473876953125,-0.005950927734375,0.662933349609375,-0.30517578125,0.18310546875,0.0,0.0634765625,-0.0921630859375,1.0028076171875,-218.0,32.0,-90.0,101920.0,-4.950000286102295,0,0
1700.800998,-0.74664306640625,0.054473876953125,-0.005950927734375,0.662933349609375,0.06103515625,0.42724609375,0.06103515625,0.062744140625,-0.09326171875,1.001220703125,-218.0,32.0,-90.0,101920.0,-4.950000286102295,0,0
1700.807997,-0.74664306640625,0.05450439453125,-0.0059814453125,0.662933349609375,-0.1220703125,0.1220703125,-0.244140625,0.0650634765625,-0.09326171875,1.0028076171875,-218.0,32.0,-90.0,101920.0,-4.950000286102295,0,0
1700.815022,-0.74664306640625,0.05450439453125,-0.0059814453125,0.662933349609375,0.0,0.1220703125,0.30517578125,0.0635986328125,-0.0927734375,1.00146484375,-218.0,32.0,-90.0,101920.0,-4.950000286102295,0,0
1700.835048,-0.74664306640625,0.05450439453125,-0.0059814453125,0.662933349609375,0.0,0.18310546875,-0.18310546875,0.0621337890625,-0.0882568359375,1.0006103515625,-218.0,32.0,-90.0,101920.0,-4.950000286102295,0,0
1700.842001,-0.74664306640625,0.05450439453125,-0.0059814453125,0.662933349609375,-0.06103515625,0.244140625,-0.06103515625,0.0645751953125,-0.0877685546875,1.0023193359375,-218.0,31.0,-90.0,101920.0,-4.950000286102295,0,0
1700.849018,-0.746490478515625,0.05450439453125,-0.0059814453125,0.6630859375,0.1220703125,0.30517578125,0.06103515625,0.0654296875,-0.0887451171875,1.0030517578125,-218.0,31.0,-90.0,101920.0,-4.950000286102295,0,0
1700.855995,-0.746490478515625,0.05450439453125,-0.0059814453125,0.6630859375,0.06103515625,0.30517578125,0.1220703125,0.063720703125,-0.0889892578125,1.0008544921875,-218.0,31.0,-90.0,101920.0,-4.950000286102295,0,0
1700.862995,-0.746490478515625,0.05450439453125,-0.0059814453125,0.6630859375,0.1220703125,0.244140625,0.0,0.0650634765625,-0.0911865234375,1.0028076171875,-218.0,31.0,-90.0,101920.0,-4.950000286102295,0,0
1700.87002,-0.746490478515625,0.05450439453125,-0.0059814453125,0.663116455078125,0.06103515625,0.3662109375,-0.06103515625,0.064453125,-0.0880126953125,1.0009765625,-218.0,31.0,-90.0,101920.0,-4.950000286102295,0,0
1700.876999,-0.746490478515625,0.054473876953125,-0.005950927734375,0.663116455078125,0.0,0.30517578125,0.1220703125,0.0650634765625,-0.089111328125,1.002197265625,-218.0,31.0,-90.0,101920.0,-4.950000286102295,0,0
1700.884016,-0.746490478515625,0.054473876953125,-0.005950927734375,0.663116455078125,0.06103515625,0.3662109375,-0.06103515625,0.0638427734375,-0.0897216796875,1.0015869140625,-218.0,31.0,-90.0,101920.0,-4.950000286102295,0,0
1700.890998,-0.746490478515625,0.054473876953125,-0.005950927734375,0.663116455078125,-0.244140625,0.30517578125,0.1220703125,0.0657958984375,-0.0888671875,1.0008544921875,-218.0,31.0,-90.0,101920.0,-4.949000358581543,0,0
1700.897997,-0.746490478515625,0.054473876953125,-0.005950927734375,0.663116455078125,0.0,0.18310546875,0.1220703125,0.0657958984375,-0.091796875,1.002197265625,-218.0,31.0,-90.0,101920.0,-4.949000358581543,0,0
1700.905022,-0.746490478515625,0.054473876953125,-0.005950927734375,0.663116455078125,-0.06103515625,0.3662109375,-0.06103515625,0.0640869140625,-0.0877685546875,1.0028076171875,-218.0,31.0,-90.0,101920.0,-4.949000358581543,0,0
1700.912001,-0.746490478515625,0.054473876953125,-0.005950927734375,0.663116455078125,-0.18310546875,0.1220703125,-0.18310546875,0.06298828125,-0.088623046875,1.001708984375,-218.0,31.0,-90.0,101920.0,-4.949000358581543,0,0
1700.919015,-0.746490478515625,0.05450439453125,-0.005950927734375,0.663116455078125,-0.1220703125,0.18310546875,0.0,0.064208984375,-0.092529296875,1.0020751953125,-218.0,31.0,-90.0,101920.0,-4.949000358581543,0,0
1700.925996,-0.746490478515625,0.05450439453125,-0.005950927734375,0.663116455078125,0.18310546875,0.3662109375,0.0,0.06689453125,-0.0916748046875,1.0010986328125,-218.0,31.0,-90.0,101920.0,-4.949000358581543,0,0
1700.932027,-0.746490478515625,0.05450439453125,-0.005950927734375,0.663116455078125,0.18310546875,0.3662109375,0.0,0.06689453125,-0.0916748046875,1.0010986328125,-218.0,31.0,-90.0,101920.0,-4.949000358581543,0,0
1700.939018,-0.746490478515625,0.05450439453125,-0.005950927734375,0.663116455078125,0.1220703125,0.1220703125,-0.06103515625,0.0634765625,-0.0924072265625,1.0008544921875,-218.0,31.0,-90.0,101920.0,-4.949000358581543,0,0
1700.945995,-0.74639892578125,0.05450439453125,-0.005950927734375,0.663177490234375,0.0,0.06103515625,0.0,0.060791015625,-0.0921630859375,1.0025634765625,-218.0,32.0,-89.0,101920.0,-4.949000358581543,0,0
1700.952996,-0.74639892578125,0.05450439453125,-0.0059814453125,0.663177490234375,0.1220703125,0.1220703125,0.0,0.0640869140625,-0.09033203125,1.0008544921875,-218.0,32.0,-89.0,101920.0,-4.949000358581543,0,0
1700.96002,-0.74639892578125,0.05450439453125,-0.0059814453125,0.663177490234375,-0.18310546875,0.42724609375,-0.06103515625,0.060546875,-0.091552734375,1.00146484375,-218.0,32.0,-89.0,101920.0,-4.949000358581543,0,0
1700.966999,-0.74639892578125,0.054534912109375,-0.0059814453125,0.663177490234375,-0.1220703125,0.1220703125,0.1220703125,0.0623779296875,-0.0887451171875,1.0006103515625,-218.0,32.0,-89.0,101920.0,-4.949000358581543,0,0
1700.974016,-0.74639892578125,0.054534912109375,-0.0059814453125,0.663177490234375,0.0,0.244140625,0.18310546875,0.0635986328125,-0.092529296875,1.001708984375,-218.0,32.0,-89.0,101920.0,-4.949000358581543,0,0
1700.980997,-0.74639892578125,0.054534912109375,-0.0059814453125,0.663177490234375,0.1220703125,0.1220703125,-0.1220703125,0.0643310546875,-0.092041015625,1.0028076171875,-218.0,32.0,-89.0,101920.0,-4.949000358581543,0,0
1700.987997,-0.74639892578125,0.054534912109375,-0.0059814453125,0.663177490234375,0.18310546875,0.244140625,0.0,0.0657958984375,-0.0887451171875,1.00341796875,-218.0,32.0,-89.0,101920.0,-4.949000358581543,0,0
1701.009015,-0.74639892578125,0.05450439453125,-0.0059814453125,0.663177490234375,-0.1220703125,0.30517578125,0.06103515625,0.064697265625,-0.0888671875,1.001953125,-218.0,32.0,-89.0,101920.0,-4.949000358581543,0,0
1701.015995,-0.74639892578125,0.05450439453125,-0.005950927734375,0.663177490234375,-0.18310546875,0.18310546875,-0.1220703125,0.064453125,-0.0867919921875,1.00146484375,-218.0,32.0,-89.0,101920.0,-4.949000358581543,0,0
1701.022027,-0.74639892578125,0.05450439453125,-0.005950927734375,0.663177490234375,-0.18310546875,0.18310546875,-0.1220703125,0.064453125,-0.0867919921875,1.00146484375,-218.0,32.0,-89.0,101920.0,-4.949000358581543,0,0
1701.029018,-0.74639892578125,0.054473876953125,-0.005950927734375,0.663177490234375,0.1220703125,0.244140625,0.06103515625,0.0635986328125,-0.08740234375,1.0008544921875,-218.0,32.0,-89.0,101920.0,-4.949000358581543,0,0
1701.035995,-0.74639892578125,0.054473876953125,-0.00592041015625,0.663177490234375,0.244140625,0.30517578125,0.0,0.066650390625,-0.0867919921875,1.000732421875,-217.0,31.0,-89.0,101920.0,-4.949000358581543,0,0
1701.042996,-0.74639892578125,0.054473876953125,-0.005889892578125,0.6632080078125,0.06103515625,0.1220703125,0.244140625,0.0650634765625,-0.0870361328125,1.00244140625,-217.0,31.0,-89.0,101920.0,-4.949000358581543,0,0
1701.05002,-0.74639892578125,0.054473876953125,-0.005889892578125,0.6632080078125,-0.244140625,0.3662109375,-0.18310546875,0.06494140625,-0.089111328125,1.0008544921875,-217.0,31.0,-89.0,101920.0,-4.949000358581543,0,0
1701.056999,-0.74639892578125,0.054473876953125,-0.005889892578125,0.6632080078125,0.0,0.1220703125,0.0,0.063232421875,-0.08935546875,1.0,-217.0,31.0,-89.0,101920.0,-4.949000358581543,0,0
1701.064016,-0.74639892578125,0.054473876953125,-0.005889892578125,0.6632080078125,0.06103515625,0.30517578125,0.244140625,0.0616455078125,-0.0889892578125,1.0025634765625,-217.0,31.0,-89.0,101920.0,-4.949000358581543,0,0
1701.070998,-0.74639892578125,0.054473876953125,-0.005889892578125,0.6632080078125,-0.06103515625,0.1220703125,0.1220703125,0.065185546875,-0.090576171875,1.003662109375,-217.0,31.0,-89.0,101920.0,-4.949000358581543,0,0
1701.092001,-0.74639892578125,0.054473876953125,-0.00592041015625,0.663177490234375,0.0,0.30517578125,0.06103515625,0.0631103515625,-0.0908203125,1.00146484375,-217.0,31.0,-89.0,101920.0,-4.948000431060791,0,0
1701.099015,-0.74639892578125,0.05450439453125,-0.005950927734375,0.663177490234375,0.0,0.0,-0.06103515625,0.0628662109375,-0.0938720703125,1.0,-217.0,31.0,-89.0,101920.0,-4.948000431060791,0,0
1701.106,-0.74639892578125,0.05450439453125,-0.005950927734375,0.663177490234375,0.1220703125,0.42724609375,0.0,0.065673828125,-0.091064453125,1.00048828125,-217.0,31.0,-89.0,101920.0,-4.948000431060791,0,0
1701.112999,-0.74639892578125,0.05450439453125,-0.005950927734375,0.663177490234375,0.0,0.3662109375,-0.1220703125,0.0638427734375,-0.09375,1.00146484375,-217.0,31.0,-89.0,101920.0,-4.948000431060791,0,0
1701.119032,-0.74639892578125,0.05450439453125,-0.005950927734375,0.663177490234375,0.0,0.3662109375,-0.1220703125,0.0638427734375,-0.09375,1.00146484375,-217.0,31.0,-89.0,101920.0,-4.948000431060791,0,0
1701.125996,-0.74639892578125,0.054534912109375,-0.0059814453125,0.663177490234375,-0.06103515625,0.244140625,0.1220703125,0.0628662109375,-0.0899658203125,1.0003662109375,-217.0,31.0,-89.0,101920.0,-4.948000431060791,0,0
1701.133,-0.74639892578125,0.054534912109375,-0.0059814453125,0.663177490234375,0.18310546875,0.30517578125,0.0,0.06396484375,-0.090576171875,1.001953125,-217.0,31.0,-89.0,101920.0,-4.948000431060791,0,0
1701.14002,-0.74639892578125,0.054534912109375,-0.0059814453125,0.663177490234375,0.1220703125,0.30517578125,0.0,0.06396484375,-0.08837890625,1.002685546875,-217.0,32.0,-88.0,101920.0,-4.948000431060791,0,0
1701.146999,-0.74639892578125,0.054534912109375,-0.0059814453125,0.663177490234375,0.0,0.30517578125,0.0,0.06298828125,-0.0888671875,0.999755859375,-217.0,32.0,-88.0,101920.0,-4.948000431060791,0,0
1701.154016,-0.74639892578125,0.05450439453125,-0.005950927734375,0.663177490234375,0.3662109375,0.244140625,-0.06103515625,0.0633544921875,-0.0897216796875,1.0009765625,-217.0,32.0,-88.0,101920.0,-4.948000431060791,0,0
1701.160998,-0.74639892578125,0.05450439453125,-0.005950927734375,0.663177490234375,0.1220703125,0.1220703125,0.06103515625,0.064697265625,-0.08740234375,1.0015869140625,-217.0,32.0,-88.0,101920.0,-4.948000431060791,0,0
1701.167997,-0.74639892578125,0.05450439453125,-0.00592041015625,0.663177490234375,-0.244140625,0.3662109375,-0.1220703125,0.0650634765625,-0.087158203125,1.0020751953125,-217.0,32.0,-88.0,101920.0,-4.948000431060791,0,0
1701.175022,-0.74639892578125,0.05450439453125,-0.00592041015625,0.663177490234375,0.1220703125,0.1220703125,0.06103515625,0.064208984375,-0.0877685546875,1.002685546875,-217.0,32.0,-88.0,101920.0,-4.948000431060791,0,0
1701.182001,-0.74639892578125,0.05450439453125,-0.00592041015625,0.663177490234375,-0.244140625,0.06103515625,0.244140625,0.0662841796875,-0.08935546875,1.0006103515625,-217.0,32.0,-88.0,101920.0,-4.948000431060791,0,0
1701.189015,-0.74639892578125,0.05450439453125,-0.005889892578125,0.6632080078125,0.1220703125,0.1220703125,0.06103515625,0.0650634765625,-0.086669921875,1.000244140625,-217.0,32.0,-88.0,101920.0,-4.948000431060791,0,0
1701.195996,-0.74639892578125,0.05450439453125,-0.005889892578125,0.6632080078125,-0.06103515625,0.18310546875,0.0,0.0673828125,-0.0894775390625,1.0015869140625,-217.0,32.0,-88.0,101920.0,-4.948000431060791,0,0
1701.202995,-0.74639892578125,0.05450439453125,-0.005889892578125,0.6632080078125,-0.1220703125,0.42724609375,0.244140625,0.0635986328125,-0.09130859375,1.0015869140625,-217.0,32.0,-88.0,101920.0,-4.948000431060791,0,0
1701.209023,-0.74639892578125,0.05450439453125,-0.005889892578125,0.6632080078125,-0.1220703125,0.42724609375,0.244140625,0.0635986328125,-0.09130859375,1.0015869140625,-217.0,32.0,-88.0,101920.0,-4.948000431060791,0,0
1701.215995,-0.74639892578125,0.05450439453125,-0.00592041015625,0.663177490234375,-0.06103515625,0.30517578125,0.30517578125,0.0635986328125,-0.090576171875,1.00244140625,-217.0,32.0,-88.0,101920.0,-4.948000431060791,0,0
1701.222996,-0.74639892578125,0.05450439453125,-0.00592041015625,0.663177490234375,0.18310546875,0.244140625,-0.06103515625,0.0621337890625,-0.0906982421875,1.0025634765625,-217.0,32.0,-88.0,101920.0,-4.948000431060791,0,0
1701.23002,-0.74639892578125,0.05450439453125,-0.00592041015625,0.663177490234375,-0.06103515625,0.18310546875,0.1220703125,0.06494140625,-0.0902099609375,1.001953125,-217.0,32.0,-88.0,101920.0,-4.948000431060791,0,0
1701.236999,-0.74639892578125,0.05450439453125,-0.00592041015625,0.663177490234375,-0.1220703125,0.1220703125,0.06103515625,0.062255859375,-0.0914306640625,1.000244140625,-217.0,32.0,-88.0,101920.0,-4.948000431060791,0,0
1701.244016,-0.74639892578125,0.05450439453125,-0.005950927734375,0.663177490234375,-0.1220703125,0.1220703125,0.0,0.0609130859375,-0.08935546875,1.0015869140625,-217.0,31.0,-87.0,101920.0,-4.948000431060791,0,0
1701.265022,-0.74639892578125,0.05450439453125,-0.005950927734375,0.663177490234375,0.0,0.30517578125,0.0,0.061767578125,-0.0908203125,1.0020751953125,-217.0,31.0,-87.0,101920.0,-4.948000431060791,0,0
1701.272001,-0.74639892578125,0.05450439453125,-0.005950927734375,0.663177490234375,0.0,0.244140625,0.0,0.0631103515625,-0.091552734375,1.0006103515625,-217.0,31.0,-87.0,101920.0,-4.948000431060791,0,0
1701.279015,-0.74639892578125,0.054473876953125,-0.0059814453125,0.663177490234375,0.06103515625,0.244140625,-0.1220703125,0.0635986328125,-0.08837890625,1.001220703125,-217.0,31.0,-87.0,101920.0,-4.948000431060791,0,0
1701.285995,-0.74639892578125,0.054473876953125,-0.0059814453125,0.663177490234375,0.06103515625,0.3662109375,-0.1220703125,0.0623779296875,-0.087890625,1.0006103515625,-217.0,31.0,-87.0,101920.0,-4.948000431060791,0,0
1701.292995,-0.74639892578125,0.054473876953125,-0.0059814453125,0.663177490234375,-0.18310546875,0.1220703125,0.0,0.063720703125,-0.0882568359375,1.0,-217.0,31.0,-87.0,101920.0,-4.948000431060791,0,0
1701.300019,-0.74639892578125,0.054473876953125,-0.005950927734375,0.663177490234375,0.18310546875,0.244140625,-0.06103515625,0.0633544921875,-0.087158203125,1.0018310546875,-217.0,31.0,-87.0,101920.0,-4.948000431060791,0,0
1701.306052,-0.74639892578125,0.054473876953125,-0.005950927734375,0.663177490234375,0.18310546875,0.244140625,-0.06103515625,0.0633544921875,-0.087158203125,1.0018310546875,-217.0,31.0,-87.0,101920.0,-4.948000431060791,0,0
1701.312996,-0.74639892578125,0.054473876953125,-0.005950927734375,0.663177490234375,0.1220703125,0.244140625,0.0,0.066162109375,-0.0889892578125,1.0018310546875,-217.0,31.0,-87.0,101920.0,-4.948000431060791,0,0
1701.32002,-0.74639892578125,0.054473876953125,-0.005950927734375,0.663177490234375,0.0,0.42724609375,-0.244140625,0.0631103515625,-0.0902099609375,1.0013427734375,-217.0,31.0,-87.0,101920.0,-4.948000431060791,0,0
1701.326999,-0.74639892578125,0.054473876953125,-0.005950927734375,0.663177490234375,0.1220703125,0.244140625,-0.18310546875,0.0660400390625,-0.0906982421875,1.0013427734375,-217.0,31.0,-87.0,101920.0,-4.948000431060791,0,0
1701.334016,-0.74639892578125,0.054473876953125,-0.00592041015625,0.663177490234375,0.0,0.06103515625,0.06103515625,0.0634765625,-0.0885009765625,1.002685546875,-217.0,31.0,-87.0,101920.0,-4.948000431060791,0,0
1701.355022,-0.746337890625,0.05450439453125,-0.00592041015625,0.66326904296875,0.06103515625,0.244140625,0.06103515625,0.06396484375,-0.0916748046875,1.0013427734375,-219.0,31.0,-86.0,101920.0,-4.948000431060791,0,0
1701.362001,-0.746337890625,0.05450439453125,-0.00592041015625,0.66326904296875,0.0,0.3662109375,0.06103515625,0.0628662109375,-0.090087890625,1.000732421875,-219.0,31.0,-86.0,101920.0,-4.948000431060791,0,0
1701.369015,-0.746337890625,0.05450439453125,-0.005950927734375,0.66326904296875,-0.06103515625,0.48828125,-0.06103515625,0.062255859375,-0.092529296875,1.0020751953125,-219.0,31.0,-86.0,101920.0,-4.948000431060791,0,0
1701.376,-0.746337890625,0.05450439453125,-0.005950927734375,0.66326904296875,0.1220703125,0.06103515625,0.06103515625,0.0650634765625,-0.09228515625,1.002685546875,-219.0,31.0,-86.0,101920.0,-4.948000431060791,0,0
1701.382999,-0.746337890625,0.054534912109375,-0.005950927734375,0.66326904296875,0.06103515625,0.244140625,-0.30517578125,0.06787109375,-0.09228515625,1.002685546875,-219.0,31.0,-86.0,101920.0,-4.948000431060791,0,0
1701.39002,-0.746337890625,0.054534912109375,-0.005950927734375,0.66326904296875,-0.18310546875,0.18310546875,-0.06103515625,0.0633544921875,-0.092529296875,1.0013427734375,-219.0,31.0,-86.0,101920.0,-4.948000431060791,0,0
1701.396053,-0.746337890625,0.054534912109375,-0.005950927734375,0.66326904296875,-0.18310546875,0.18310546875,-0.06103515625,0.0633544921875,-0.092529296875,1.0013427734375,-219.0,31.0,-86.0,101920.0,-4.948000431060791,0,0
1701.403,-0.746337890625,0.05450439453125,-0.005950927734375,0.66326904296875,0.06103515625,0.30517578125,0.1220703125,0.063232421875,-0.0887451171875,1.004150390625,-219.0,31.0,-86.0,101920.0,-4.948000431060791,0,0
1701.41002,-0.746337890625,0.05450439453125,-0.005950927734375,0.66326904296875,0.0,0.244140625,0.0,0.064697265625,-0.0889892578125,1.0025634765625,-219.0,31.0,-86.0,101920.0,-4.948000431060791,0,0
1701.416999,-0.746337890625,0.054534912109375,-0.005950927734375,0.66326904296875,0.06103515625,0.0,0.06103515625,0.0645751953125,-0.0908203125,1.001708984375,-219.0,31.0,-86.0,101920.0,-4.948000431060791,0,0
1701.424016,-0.746337890625,0.05450439453125,-0.005950927734375,0.66326904296875,0.0,0.06103515625,-0.06103515625,0.062255859375,-0.0888671875,1.0018310546875,-219.0,31.0,-86.0,101920.0,-4.948000431060791,0,0
1701.430998,-0.746337890625,0.05450439453125,-0.005950927734375,0.66326904296875,0.30517578125,0.30517578125,0.244140625,0.062744140625,-0.0889892578125,1.00244140625,-219.0,31.0,-86.0,101920.0,-4.948000431060791,0,0
1701.437997,-0.746337890625,0.05450439453125,-0.005950927734375,0.66326904296875,0.0,0.30517578125,0.06103515625,0.0655517578125,-0.090087890625,1.001708984375,-219.0,31.0,-86.0,101920.0,-4.948000431060791,0,0
1701.445022,-0.746246337890625,0.05450439453125,-0.005950927734375,0.663360595703125,0.1220703125,0.244140625,0.06103515625,0.06396484375,-0.0882568359375,1.001953125,-219.0,31.0,-86.0,101920.0,-4.948000431060791,0,0
1701.452001,-0.746246337890625,0.05450439453125,-0.005950927734375,0.663360595703125,-0.06103515625,0.18310546875,-0.1220703125,0.06494140625,-0.0887451171875,1.0032958984375,-219.0,31.0,-86.0,101920.0,-4.948000431060791,0,0
1701.459015,-0.746246337890625,0.05450439453125,-0.00592041015625,0.663360595703125,-0.18310546875,0.06103515625,-0.1220703125,0.0662841796875,-0.086669921875,1.00341796875,-219.0,31.0,-86.0,101920.0,-4.948000431060791,0,0
1701.465996,-0.746246337890625,0.05450439453125,-0.00592041015625,0.663360595703125,0.1220703125,0.30517578125,0.1220703125,0.0643310546875,-0.088134765625,1.002197265625,-219.0,31.0,-86.0,101920.0,-4.948000431060791,0,0
1701.472995,-0.746246337890625,0.05450439453125,-0.00592041015625,0.663360595703125,0.06103515625,0.3662109375,0.1220703125,0.063720703125,-0.08935546875,1.0015869140625,-219.0,31.0,-86.0,101920.0,-4.948000431060791,0,0
1701.480019,-0.746246337890625,0.05450439453125,-0.00592041015625,0.663360595703125,0.18310546875,-0.1220703125,0.30517578125,0.06396484375,-0.0909423828125,1.0030517578125,-219.0,31.0,-86.0,101920.0,-4.948000431060791,0,0
1701.487003,-0.746246337890625,0.05450439453125,-0.00592041015625,0.663360595703125,-0.1220703125,0.244140625,-0.244140625,0.064453125,-0.0909423828125,1.0015869140625,-219.0,31.0,-86.0,101920.0,-4.948000431060791,0,0
1701.493036,-0.746246337890625,0.05450439453125,-0.00592041015625,0.663360595703125,-0.1220703125,0.244140625,-0.244140625,0.064453125,-0.0909423828125,1.0015869140625,-219.0,31.0,-86.0,101920.0,-4.948000431060791,0,0
1701.50002,-0.746246337890625,0.05450439453125,-0.00592041015625,0.663360595703125,0.1220703125,0.1220703125,-0.06103515625,0.06494140625,-0.090087890625,1.001708984375,-219.0,31.0,-86.0,101920.0,-4.948000431060791,0,0
1701.506999,-0.746246337890625,0.05450439453125,-0.005950927734375,0.663360595703125,0.0,0.48828125,0.244140625,0.0625,-0.090087890625,1.0009765625,-219.0,31.0,-86.0,101920.0,-4.948000431060791,0,0
1701.527997,-0.746246337890625,0.054534912109375,-0.005950927734375,0.663360595703125,-0.18310546875,0.30517578125,0.1220703125,0.06298828125,-0.0916748046875,1.0028076171875,-219.0,31.0,-86.0,101920.0,-4.948000431060791,0,0
1701.535022,-0.746246337890625,0.054534912109375,-0.005950927734375,0.663360595703125,0.244140625,0.244140625,-0.1220703125,0.0645751953125,-0.0916748046875,1.001220703125,-219.0,31.0,-86.0,101920.0,-4.948000431060791,0,0
1701.542001,-0.74609375,0.054534912109375,-0.0059814453125,0.663543701171875,0.18310546875,0.42724609375,0.0,0.0640869140625,-0.0919189453125,1.0028076171875,-220.0,30.0,-84.0,101920.0,-4.948000431060791,0,0
1701.549015,-0.74609375,0.054534912109375,-0.0059814453125,0.663543701171875,-0.06103515625,0.3662109375,0.30517578125,0.0614013671875,-0.090576171875,1.0032958984375,-220.0,30.0,-84.0,101920.0,-4.948000431060791,0,0
1701.555996,-0.74609375,0.054534912109375,-0.0059814453125,0.663543701171875,-0.1220703125,0.0,-0.06103515625,0.061767578125,-0.0899658203125,1.0015869140625,-220.0,30.0,-84.0,101920.0,-4.948000431060791,0,0
1701.562995,-0.74609375,0.054534912109375,-0.0059814453125,0.663543701171875,0.1220703125,0.244140625,-0.1220703125,0.0650634765625,-0.08984375,1.001953125,-220.0,30.0,-84.0,101920.0,-4.948000431060791,0,0
1701.570019,-0.74609375,0.054534912109375,-0.0059814453125,0.663543701171875,0.1220703125,0.1220703125,-0.18310546875,0.06396484375,-0.089111328125,1.00341796875,-220.0,30.0,-84.0,101920.0,-4.948000431060791,0,0
1701.577003,-0.74609375,0.05450439453125,-0.0059814453125,0.663543701171875,0.1220703125,0.18310546875,-0.06103515625,0.0618896484375,-0.0894775390625,1.0025634765625,-220.0,30.0,-84.0,101920.0,-4.948000431060791,0,0
1701.583036,-0.74609375,0.05450439453125,-0.0059814453125,0.663543701171875,0.1220703125,0.18310546875,-0.06103515625,0.0618896484375,-0.0894775390625,1.0025634765625,-220.0,30.0,-84.0,101920.0,-4.948000431060791,0,0
1701.59002,-0.74609375,0.05450439453125,-0.0059814453125,0.663543701171875,-0.1220703125,0.06103515625,0.06103515625,0.0640869140625,-0.0885009765625,1.001953125,-220.0,30.0,-84.0,101920.0,-4.948000431060791,0,0
1701.596999,-0.74609375,0.05450439453125,-0.0059814453125,0.663543701171875,-0.1220703125,0.54931640625,0.06103515625,0.0623779296875,-0.088134765625,1.001953125,-220.0,30.0,-84.0,101920.0,-4.948000431060791,0,0
1701.604016,4.699703039829612e-36,-5.90948594514614e+24,-5.711048699533146e+34,2.0925302701577307e-38,-2.804767592218283e+29,5.142870461456903e-39,4.3522893578639315e-36,6.166429272913302e-36,1.960373391597718e-38,9.07278537998503e-39,-5.711049194709162e+34,2.0925302701577307e-38,-6.614757307611867e+34,-8.540981114867573e+34,-1.2049044308181325e+38,56634,32629
1701.617997,-0.74609375,0.05450439453125,-0.005950927734375,0.663543701171875,0.1220703125,0.18310546875,0.06103515625,0.0655517578125,-0.0909423828125,1.0023193359375,-220.0,30.0,-84.0,101920.0,-4.948000431060791,0,0
1701.625022,-0.74609375,0.05450439453125,-0.005950927734375,0.663543701171875,0.0,0.1220703125,-0.06103515625,0.06591796875,-0.0894775390625,1.0003662109375,-220.0,30.0,-84.0,101920.0,-4.948000431060791,0,0
1701.632001,-0.74609375,0.05450439453125,-0.005950927734375,0.663543701171875,0.1220703125,0.1220703125,0.1220703125,0.06689453125,-0.0921630859375,1.0006103515625,-220.0,30.0,-84.0,101920.0,-4.948000431060791,0,0
1701.639015,-0.74609375,0.05450439453125,-0.005950927734375,0.663543701171875,-0.1220703125,0.30517578125,-0.06103515625,0.0655517578125,-0.089599609375,0.999267578125,-221.0,30.0,-84.0,101920.0,-4.948000431060791,0,0
1701.646,-0.74603271484375,0.054534912109375,-0.005950927734375,0.66363525390625,-0.1220703125,0.244140625,-0.06103515625,0.06494140625,-0.0902099609375,1.00244140625,-221.0,30.0,-84.0,101920.0,-4.948000431060791,0,0
1701.652999,-0.74603271484375,0.054534912109375,-0.005950927734375,0.66363525390625,0.06103515625,0.06103515625,0.18310546875,0.0662841796875,-0.0924072265625,1.000244140625,-221.0,30.0,-84.0,101920.0,-4.948000431060791,0,0
1701.66002,-0.74603271484375,0.0545654296875,-0.005950927734375,0.66363525390625,-0.06103515625,0.06103515625,-0.1220703125,0.0657958984375,-0.0919189453125,1.0015869140625,-221.0,30.0,-84.0,101920.0,-4.948000431060791,0,0
1701.667003,-0.74603271484375,0.0545654296875,-0.005950927734375,0.66363525390625,-0.06103515625,0.244140625,0.0,0.064208984375,-0.0888671875,1.0018310546875,-221.0,30.0,-84.0,101920.0,-4.948000431060791,0,0
1701.674018,-0.74603271484375,0.0545654296875,-0.005950927734375,0.66363525390625,0.3662109375,0.3662109375,0.0,0.064208984375,-0.08935546875,1.00390625,-221.0,30.0,-84.0,101920.0,-4.948000431060791,0,0
1701.680051,-0.74603271484375,0.0545654296875,-0.005950927734375,0.66363525390625,0.3662109375,0.3662109375,0.0,0.064208984375,-0.08935546875,1.00390625,-221.0,30.0,-84.0,101920.0,-4.948000431060791,0,0
1701.686999,-0.74603271484375,0.0545654296875,-0.005950927734375,0.66363525390625,-0.06103515625,0.18310546875,0.1220703125,0.0631103515625,-0.089599609375,0.99951171875,-221.0,30.0,-84.0,101920.0,-4.948000431060791,0,0
1701.694016,-0.74603271484375,0.0545654296875,-0.005950927734375,0.66363525390625,-0.1220703125,0.06103515625,-0.18310546875,0.06298828125,-0.0904541015625,1.000732421875,-221.0,30.0,-84.0,101920.0,-4.948000431060791,0,0
1701.700998,-0.74603271484375,0.054534912109375,-0.005950927734375,0.66363525390625,-0.244140625,0.42724609375,-0.06103515625,0.061279296875,-0.08837890625,1.00341796875,-221.0,30.0,-84.0,101920.0,-4.948000431060791,0,0
1701.707997,-0.74603271484375,0.054534912109375,-0.005950927734375,0.66363525390625,0.244140625,0.244140625,0.244140625,0.0645751953125,-0.0880126953125,1.001220703125,-221.0,30.0,-84.0,101920.0,-4.948000431060791,0,0
1701.715022,-0.74603271484375,0.054534912109375,-0.005950927734375,0.66363525390625,0.06103515625,0.30517578125,-0.06103515625,0.06396484375,-0.089599609375,1.0013427734375,-221.0,30.0,-84.0,101920.0,-4.948000431060791,0,0
1701.722001,-0.74603271484375,0.05450439453125,-0.005950927734375,0.66363525390625,0.244140625,0.42724609375,0.30517578125,0.0628662109375,-0.0872802734375,1.001708984375,-221.0,30.0,-84.0,101920.0,-4.948000431060791,0,0
1701.729015,-0.74603271484375,0.05450439453125,-0.00592041015625,0.66363525390625,-0.18310546875,0.18310546875,0.0,0.0638427734375,-0.087890625,1.003173828125,-221.0,30.0,-84.0,101920.0,-4.948000431060791,0,0
1701.736,-0.74603271484375,0.05450439453125,-0.00592041015625,0.66363525390625,-0.244140625,0.18310546875,0.18310546875,0.0592041015625,-0.0882568359375,1.000732421875,-221.0,30.0,-84.0,101920.0,-4.948000431060791,0,0
1701.742999,-0.745941162109375,0.054473876953125,-0.005950927734375,0.663726806640625,0.30517578125,0.18310546875,0.0,0.0621337890625,-0.0889892578125,1.0015869140625,-221.0,30.0,-84.0,101920.0,-4.948000431060791,0,0
1701.750019,-0.745941162109375,0.054473876953125,-0.005950927734375,0.663726806640625,-0.06103515625,0.244140625,0.0,0.0616455078125,-0.0887451171875,1.001708984375,-221.0,30.0,-84.0,101920.0,-4.948000431060791,0,0
1701.757003,-0.745941162109375,0.054473876953125,-0.005950927734375,0.663726806640625,0.1220703125,0.3662109375,0.0,0.063720703125,-0.09033203125,1.0008544921875,-221.0,30.0,-84.0,101920.0,-4.948000431060791,0,0
1701.764018,-0.745941162109375,0.054473876953125,-0.005950927734375,0.663726806640625,-0.30517578125,0.244140625,0.18310546875,0.0621337890625,-0.09033203125,1.00048828125,-221.0,30.0,-84.0,101920.0,-4.948000431060791,0,0
1701.770046,-0.745941162109375,0.054473876953125,-0.005950927734375,0.663726806640625,-0.30517578125,0.244140625,0.18310546875,0.0621337890625,-0.09033203125,1.00048828125,-221.0,30.0,-84.0,101920.0,-4.948000431060791,0,0
1701.790998,-0.745941162109375,0.05450439453125,-0.0059814453125,0.663726806640625,0.1220703125,0.3662109375,0.0,0.0657958984375,-0.091064453125,1.0015869140625,-221.0,30.0,-84.0,101920.0,-4.948000431060791,0,0
1701.797997,-0.745941162109375,0.05450439453125,-0.0059814453125,0.663726806640625,-0.18310546875,0.3662109375,-0.244140625,0.0653076171875,-0.091796875,1.00244140625,-221.0,30.0,-84.0,101920.0,-4.948000431060791,0,0
1701.805022,-0.745941162109375,0.05450439453125,-0.005950927734375,0.663726806640625,0.06103515625,0.244140625,0.06103515625,0.0635986328125,-0.089111328125,1.0010986328125,-221.0,30.0,-84.0,101920.0,-4.948000431060791,0,0
1701.812001,-0.745941162109375,0.05450439453125,-0.005950927734375,0.663726806640625,0.0,0.06103515625,0.06103515625,0.0634765625,-0.089111328125,1.002685546875,-221.0,30.0,-84.0,101920.0,-4.948000431060791,0,0
1701.819015,-0.745941162109375,0.05450439453125,-0.005950927734375,0.663726806640625,0.244140625,0.1220703125,-0.18310546875,0.06689453125,-0.088623046875,1.0009765625,-221.0,30.0,-84.0,101920.0,-4.948000431060791,0,0
1701.825995,-0.745941162109375,0.05450439453125,-0.005950927734375,0.663726806640625,0.0,0.06103515625,-0.06103515625,0.06298828125,-0.0892333984375,1.001953125,-221.0,30.0,-84.0,101920.0,-4.948000431060791,0,0
1701.832995,-0.745941162109375,0.05450439453125,-0.005950927734375,0.663726806640625,0.0,0.244140625,0.18310546875,0.0662841796875,-0.0887451171875,1.0013427734375,-221.0,30.0,-84.0,101920.0,-4.948000431060791,0,0
1701.840019,-0.745941162109375,0.05450439453125,-0.00592041015625,0.663726806640625,0.244140625,0.1220703125,-0.06103515625,0.064697265625,-0.0877685546875,1.001708984375,-220.0,31.0,-84.0,101920.0,-4.948000431060791,0,0
1701.847003,-0.745941162109375,0.05450439453125,-0.00592041015625,0.663726806640625,-0.18310546875,0.67138671875,0.0,0.066162109375,-0.0902099609375,1.0020751953125,-220.0,31.0,-84.0,101920.0,-4.948000431060791,0,0
1701.854018,-0.745941162109375,0.05450439453125,-0.00592041015625,0.663726806640625,-0.244140625,0.06103515625,-0.3662109375,0.0643310546875,-0.0904541015625,1.002685546875,-220.0,31.0,-84.0,101920.0,-4.948000431060791,0,0
1701.860997,-0.745941162109375,0.05450439453125,-0.00592041015625,0.663726806640625,0.0,0.54931640625,-0.1220703125,0.0643310546875,-0.087890625,1.0013427734375,-220.0,31.0,-84.0,101920.0,-4.948000431060791,0,0
1701.880997,-0.745941162109375,0.05450439453125,-0.00592041015625,0.663726806640625,0.0,0.30517578125,0.0,0.063232421875,-0.0908203125,1.0009765625,-220.0,31.0,-84.0,101920.0,-4.948000431060791,0,0
1701.887997,-0.745941162109375,0.05450439453125,-0.00592041015625,0.663726806640625,0.0,0.0,0.0,0.0601806640625,-0.0889892578125,1.0006103515625,-220.0,31.0,-84.0,101920.0,-4.948000431060791,0,0
1701.895022,-0.745941162109375,0.05450439453125,-0.00592041015625,0.663726806640625,-0.06103515625,0.30517578125,0.1220703125,0.0621337890625,-0.09130859375,1.0009765625,-220.0,31.0,-84.0,101920.0,-4.948000431060791,0,0
1701.902001,-0.745941162109375,0.054473876953125,-0.00592041015625,0.663726806640625,-0.30517578125,0.1220703125,-0.06103515625,0.060546875,-0.0888671875,1.0029296875,-220.0,31.0,-84.0,101920.0,-4.948000431060791,0,0
1701.909015,-0.745941162109375,0.054473876953125,-0.005950927734375,0.663726806640625,0.0,0.3662109375,-0.06103515625,0.06201171875,-0.0897216796875,1.0025634765625,-220.0,31.0,-84.0,101920.0,-4.948000431060791,0,0
1701.915996,-0.745941162109375,0.054473876953125,-0.005950927734375,0.663726806640625,0.30517578125,0.30517578125,0.0,0.063720703125,-0.09033203125,1.001708984375,-220.0,31.0,-84.0,101920.0,-4.948000431060791,0,0
1701.922995,-0.745941162109375,0.054473876953125,-0.005950927734375,0.663726806640625,0.06103515625,0.18310546875,0.0,0.06396484375,-0.087158203125,1.0018310546875,-220.0,31.0,-84.0,101920.0,-4.948000431060791,0,0
1701.930019,-0.745941162109375,0.054473876953125,-0.005950927734375,0.663726806640625,-0.06103515625,0.06103515625,-0.1220703125,0.0645751953125,-0.09033203125,1.002685546875,-220.0,31.0,-84.0,101920.0,-4.948000431060791,0,0
1701.937003,-0.745941162109375,0.054473876953125,-0.005950927734375,0.663726806640625,-0.18310546875,0.1220703125,-0.1220703125,0.062744140625,-0.0914306640625,1.002197265625,-220.0,31.0,-84.0,101920.0,-4.947000026702881,0,0
1701.944018,-0.745941162109375,0.054473876953125,-0.005950927734375,0.663726806640625,0.1220703125,0.0,0.06103515625,0.0660400390625,-0.09033203125,1.001953125,-220.0,31.0,-85.0,101920.0,-4.947000026702881,0,0
1701.950997,-0.745941162109375,0.05450439453125,-0.005950927734375,0.663726806640625,0.42724609375,0.1220703125,-0.1220703125,0.065673828125,-0.0908203125,1.0029296875,-220.0,31.0,-85.0,101920.0,-4.947000026702881,0,0
1701.95703,-0.745941162109375,0.05450439453125,-0.005950927734375,0.663726806640625,0.42724609375,0.1220703125,-0.1220703125,0.065673828125,-0.0908203125,1.0029296875,-220.0,31.0,-85.0,101920.0,-4.947000026702881,0,0
1701.964016,-0.745941162109375,0.05450439453125,-0.005950927734375,0.663726806640625,0.0,0.1220703125,0.30517578125,0.0628662109375,-0.092529296875,1.0009765625,-220.0,31.0,-85.0,101920.0,-4.947000026702881,0,0
1701.970998,-0.745941162109375,0.05450439453125,-0.005950927734375,0.663726806640625,0.0,0.244140625,0.1220703125,0.065673828125,-0.088134765625,1.0028076171875,-220.0,31.0,-85.0,101920.0,-4.947000026702881,0,0
1701.977997,-0.745941162109375,0.05450439453125,-0.005950927734375,0.663726806640625,0.18310546875,0.30517578125,0.0,0.06396484375,-0.0894775390625,1.001220703125,-220.0,31.0,-85.0,101920.0,-4.947000026702881,0,0
1701.985022,-0.745941162109375,0.05450439453125,-0.00592041015625,0.663726806640625,-0.06103515625,0.18310546875,0.1220703125,0.0648193359375,-0.08935546875,1.00341796875,-220.0,31.0,-85.0,101920.0,-4.947000026702881,0,0
1701.992001,-0.745941162109375,0.05450439453125,-0.005950927734375,0.663726806640625,0.1220703125,0.244140625,-0.244140625,0.061279296875,-0.0894775390625,1.00146484375,-220.0,31.0,-85.0,101920.0,-4.947000026702881,0,0
1701.999015,-0.745941162109375,0.054473876953125,-0.00592041015625,0.663726806640625,0.18310546875,0.244140625,-0.1220703125,0.0638427734375,-0.08984375,1.003662109375,-220.0,31.0,-85.0,101920.0,-4.947000026702881,0,0
1702.006,-0.745941162109375,0.054473876953125,-0.005950927734375,0.663726806640625,0.18310546875,0.18310546875,0.0,0.0614013671875,-0.0885009765625,1.0010986328125,-220.0,31.0,-85.0,101920.0,-4.947000026702881,0,0
1702.012999,-0.745941162109375,0.054473876953125,-0.005950927734375,0.663726806640625,-0.06103515625,0.54931640625,0.06103515625,0.063232421875,-0.091552734375,1.0032958984375,-220.0,31.0,-85.0,101920.0,-4.947000026702881,0,0
1702.02002,-0.745941162109375,0.054473876953125,-0.005950927734375,0.663726806640625,-0.06103515625,0.244140625,0.18310546875,0.0634765625,-0.090087890625,1.0028076171875,-220.0,31.0,-85.0,101920.0,-4.947000026702881,0,0
1702.027003,-0.745941162109375,0.054473876953125,-0.005950927734375,0.663726806640625,0.1220703125,0.244140625,0.18310546875,0.063232421875,-0.0870361328125,1.0025634765625,-220.0,31.0,-85.0,101920.0,-4.947000026702881,0,0
1702.034018,-0.745941162109375,0.054473876953125,-0.005950927734375,0.663726806640625,-0.1220703125,0.3662109375,0.1220703125,0.0625,-0.0885009765625,1.001953125,-220.0,31.0,-85.0,101920.0,-4.947000026702881,0,0
1702.054016,-0.745880126953125,0.054473876953125,-0.005950927734375,0.663787841796875,0.06103515625,0.18310546875,0.06103515625,0.06396484375,-0.09033203125,1.0,-221.0,32.0,-84.0,101920.0,-4.947000026702881,0,0
1702.060997,-0.745880126953125,0.054473876953125,-0.0059814453125,0.663787841796875,0.1220703125,0.1220703125,0.244140625,0.0623779296875,-0.0919189453125,1.0006103515625,-221.0,32.0,-84.0,101920.0,-4.947000026702881,0,0
1702.067997,-0.745880126953125,0.054473876953125,-0.0059814453125,0.663787841796875,0.1220703125,0.48828125,0.1220703125,0.0621337890625,-0.08935546875,1.0013427734375,-221.0,32.0,-84.0,101920.0,-4.947000026702881,0,0
1702.075022,-0.745880126953125,0.054473876953125,-0.0059814453125,0.663787841796875,0.0,0.18310546875,-0.06103515625,0.0650634765625,-0.08935546875,1.0023193359375,-221.0,32.0,-84.0,101920.0,-4.947000026702881,0,0
1702.082001,-0.745880126953125,0.054473876953125,-0.005950927734375,0.663787841796875,0.0,0.42724609375,-0.18310546875,0.0673828125,-0.09033203125,0.9991455078125,-221.0,32.0,-84.0,101920.0,-4.947000026702881,0,0
1702.089015,-0.745880126953125,0.054473876953125,-0.005950927734375,0.663787841796875,0.06103515625,0.1220703125,0.06103515625,0.0655517578125,-0.090087890625,1.00390625,-221.0,32.0,-84.0,101920.0,-4.947000026702881,0,0
1702.095996,-0.745880126953125,0.054473876953125,-0.005950927734375,0.663787841796875,0.1220703125,0.18310546875,0.1220703125,0.065185546875,-0.088134765625,0.9993896484375,-221.0,32.0,-84.0,101920.0,-4.947000026702881,0,0
1702.102995,-0.745880126953125,0.054473876953125,-0.00592041015625,0.663787841796875,0.0,0.244140625,-0.1220703125,0.0660400390625,-0.08984375,1.002685546875,-221.0,32.0,-84.0,101920.0,-4.947000026702881,0,0
1702.110019,-0.745880126953125,0.054473876953125,-0.00592041015625,0.663787841796875,-0.1220703125,0.18310546875,0.1220703125,0.064697265625,-0.088623046875,1.0018310546875,-221.0,32.0,-84.0,101920.0,-4.947000026702881,0,0
1702.117003,-0.745880126953125,0.054473876953125,-0.00592041015625,0.663787841796875,-0.1220703125,0.1220703125,-0.1220703125,0.0657958984375,-0.0885009765625,1.0013427734375,-221.0,32.0,-84.0,101920.0,-4.947000026702881,0,0
1702.124019,-0.745880126953125,0.05450439453125,-0.00592041015625,0.663787841796875,-0.244140625,0.3662109375,0.0,0.063720703125,-0.0919189453125,1.00244140625,-221.0,32.0,-84.0,101920.0,-4.947000026702881,0,0
1702.144029,-0.745880126953125,0.05450439453125,-0.00592041015625,0.663787841796875,-0.06103515625,0.30517578125,-0.06103515625,0.06494140625,-0.09033203125,1.003173828125,-221.0,31.0,-85.0,101920.0,-4.949000358581543,0,0
1702.150997,-0.74578857421875,0.05450439453125,-0.005950927734375,0.66387939453125,-0.1220703125,0.54931640625,0.06103515625,0.0645751953125,-0.0904541015625,1.0013427734375,-221.0,31.0,-85.0,101920.0,-4.949000358581543,0,0
1702.157997,-0.74578857421875,0.05450439453125,-0.005950927734375,0.66387939453125,-0.1220703125,0.3662109375,0.244140625,0.064208984375,-0.090576171875,1.0003662109375,-221.0,31.0,-85.0,101920.0,-4.949000358581543,0,0
1702.165022,-0.74578857421875,0.05450439453125,-0.005950927734375,0.66387939453125,0.0,0.18310546875,0.06103515625,0.0650634765625,-0.0889892578125,1.001953125,-221.0,31.0,-85.0,101920.0,-4.949000358581543,0,0
1702.172001,-0.74578857421875,0.05450439453125,-0.005950927734375,0.66387939453125,-0.18310546875,0.18310546875,0.0,0.064453125,-0.09130859375,1.0008544921875,-221.0,31.0,-85.0,101920.0,-4.949000358581543,0,0
1702.179015,-0.74578857421875,0.05450439453125,-0.005950927734375,0.66387939453125,0.06103515625,0.244140625,0.18310546875,0.0645751953125,-0.0908203125,1.001708984375,-221.0,31.0,-85.0,101920.0,-4.949000358581543,0,0
1702.185996,-0.74578857421875,0.05450439453125,-0.005950927734375,0.66387939453125,-0.1220703125,0.48828125,-0.06103515625,0.0615234375,-0.08984375,1.0006103515625,-221.0,31.0,-85.0,101920.0,-4.949000358581543,0,0
1702.192995,-0.74578857421875,0.05450439453125,-0.005950927734375,0.66387939453125,-0.1220703125,0.0,-0.06103515625,0.063720703125,-0.090576171875,1.0009765625,-221.0,31.0,-85.0,101920.0,-4.949000358581543,0,0
1702.200019,-0.74578857421875,0.05450439453125,-0.005950927734375,0.66387939453125,0.0,0.244140625,0.06103515625,0.0628662109375,-0.0911865234375,0.999755859375,-221.0,31.0,-85.0,101920.0,-4.949000358581543,0,0
1702.207003,-0.74578857421875,0.05450439453125,-0.0059814453125,0.66387939453125,0.0,0.18310546875,0.06103515625,0.0623779296875,-0.0902099609375,1.0028076171875,-221.0,31.0,-85.0,101920.0,-4.949000358581543,0,0
1702.214018,-0.74578857421875,0.054534912109375,-0.0059814453125,0.66387939453125,-0.06103515625,0.244140625,0.0,0.0662841796875,-0.0921630859375,1.0013427734375,-221.0,31.0,-85.0,101920.0,-4.949000358581543,0,0
1702.220997,-0.74578857421875,0.054534912109375,-0.005950927734375,0.66387939453125,0.06103515625,0.3662109375,-0.06103515625,0.0650634765625,-0.0880126953125,1.001708984375,-221.0,31.0,-85.0,101920.0,-4.949000358581543,0,0
1702.227996,-0.74578857421875,0.054534912109375,-0.005950927734375,0.66387939453125,-0.06103515625,0.48828125,0.06103515625,0.0640869140625,-0.0887451171875,1.002197265625,-221.0,31.0,-85.0,101920.0,-4.949000358581543,0,0
1702.234029,-0.74578857421875,0.054534912109375,-0.005950927734375,0.66387939453125,-0.06103515625,0.48828125,0.06103515625,0.0640869140625,-0.0887451171875,1.002197265625,-221.0,31.0,-85.0,101920.0,-4.949000358581543,0,0
1702.240998,-0.7457275390625,0.05450439453125,-0.0059814453125,0.663970947265625,-0.1220703125,0.06103515625,0.244140625,0.0643310546875,-0.0869140625,1.0008544921875,-221.0,31.0,-85.0,101920.0,-4.949000358581543,0,0
1702.247997,-0.7457275390625,0.054534912109375,-0.0059814453125,0.663970947265625,-0.06103515625,0.244140625,-0.1220703125,0.064208984375,-0.0919189453125,1.0008544921875,-221.0,31.0,-85.0,101920.0,-4.949000358581543,0,0
1702.255022,-0.7457275390625,0.054534912109375,-0.0059814453125,0.663970947265625,-0.1220703125,0.1220703125,-0.06103515625,0.0643310546875,-0.089111328125,0.999755859375,-221.0,31.0,-85.0,101920.0,-4.949000358581543,0,0
1702.262001,-0.7457275390625,0.054534912109375,-0.0059814453125,0.663970947265625,0.1220703125,0.0,0.244140625,0.0643310546875,-0.091064453125,1.0013427734375,-221.0,31.0,-85.0,101920.0,-4.949000358581543,0,0
1702.269015,-0.7457275390625,0.054534912109375,-0.0059814453125,0.663970947265625,-0.3662109375,0.18310546875,0.06103515625,0.0655517578125,-0.0875244140625,1.003173828125,-221.0,31.0,-85.0,101920.0,-4.949000358581543,0,0
1702.276,-0.7457275390625,0.054534912109375,-0.005950927734375,0.663970947265625,0.06103515625,0.18310546875,0.18310546875,0.0648193359375,-0.0889892578125,1.000244140625,-221.0,31.0,-85.0,101920.0,-4.949000358581543,0,0
1702.282999,-0.7457275390625,0.05450439453125,-0.005950927734375,0.663970947265625,0.06103515625,0.3662109375,0.06103515625,0.0653076171875,-0.087890625,1.0015869140625,-221.0,31.0,-85.0,101920.0,-4.949000358581543,0,0
1702.29002,-0.7457275390625,0.05450439453125,-0.005950927734375,0.663970947265625,-0.30517578125,0.42724609375,-0.06103515625,0.064208984375,-0.0906982421875,1.001708984375,-221.0,31.0,-85.0,101920.0,-4.949000358581543,0,0
1702.297003,-0.7457275390625,0.05450439453125,-0.005950927734375,0.663970947265625,-0.30517578125,0.244140625,0.0,0.0640869140625,-0.090087890625,1.000732421875,-221.0,31.0,-85.0,101920.0,-4.949000358581543,0,0
1702.317996,-0.7457275390625,0.05450439453125,-0.0059814453125,0.663970947265625,-0.1220703125,0.18310546875,0.244140625,0.0601806640625,-0.091796875,1.00146484375,-221.0,31.0,-85.0,101920.0,-4.949000358581543,0,0
1702.325017,-0.7457275390625,0.05450439453125,-0.0059814453125,0.663970947265625,0.0,0.0,0.06103515625,0.0634765625,-0.090087890625,1.001220703125,-221.0,31.0,-85.0,101920.0,-4.949000358581543,0,0
1702.33105,-0.7457275390625,0.05450439453125,-0.0059814453125,0.663970947265625,0.0,0.0,0.06103515625,0.0634765625,-0.090087890625,1.001220703125,-221.0,31.0,-85.0,101920.0,-4.949000358581543,0,0
1702.337997,-0.7457275390625,0.05450439453125,-0.0059814453125,0.663970947265625,-0.244140625,0.244140625,-0.1220703125,0.062744140625,-0.088623046875,1.001220703125,-219.0,32.0,-86.0,101920.0,-4.949000358581543,0,0
1702.345022,-0.745635986328125,0.054534912109375,-0.0059814453125,0.6640625,0.0,0.1220703125,-0.06103515625,0.066162109375,-0.091552734375,1.0006103515625,-219.0,32.0,-86.0,101920.0,-4.949000358581543,0,0
1702.352001,-0.745635986328125,0.054534912109375,-0.0059814453125,0.6640625,0.06103515625,0.244140625,0.06103515625,0.06640625,-0.089599609375,1.0009765625,-219.0,32.0,-86.0,101920.0,-4.949000358581543,0,0
1702.359015,-0.745635986328125,0.05450439453125,-0.0059814453125,0.6640625,0.0,0.1220703125,0.1220703125,0.0628662109375,-0.089599609375,1.0020751953125,-219.0,32.0,-86.0,101920.0,-4.949000358581543,0,0
1702.365996,-0.745635986328125,0.05450439453125,-0.0059814453125,0.6640625,0.0,-0.06103515625,0.1220703125,0.0633544921875,-0.08837890625,1.001708984375,-219.0,32.0,-86.0,101920.0,-4.949000358581543,0,0
1702.372995,-0.745635986328125,0.05450439453125,-0.0059814453125,0.6640625,-0.18310546875,0.244140625,0.1220703125,0.0633544921875,-0.08984375,1.0025634765625,-219.0,32.0,-86.0,101920.0,-4.949000358581543,0,0
1702.380019,-0.745635986328125,0.05450439453125,-0.0059814453125,0.6640625,-0.1220703125,0.1220703125,0.18310546875,0.0633544921875,-0.0902099609375,1.0010986328125,-219.0,32.0,-86.0,101920.0,-4.949000358581543,0,0
1702.400997,-0.745635986328125,0.05450439453125,-0.0059814453125,0.6640625,-0.06103515625,-0.06103515625,-0.06103515625,0.0631103515625,-0.0887451171875,1.001953125,-219.0,32.0,-86.0,101920.0,-4.949000358581543,0,0
1702.407996,-0.745635986328125,0.05450439453125,-0.0059814453125,0.6640625,-0.06103515625,0.244140625,0.1220703125,0.0653076171875,-0.0885009765625,0.999755859375,-219.0,32.0,-86.0,101920.0,-4.949000358581543,0,0
1702.415016,-0.745635986328125,0.05450439453125,-0.0059814453125,0.6640625,0.244140625,0.30517578125,0.06103515625,0.065185546875,-0.089111328125,1.001708984375,-219.0,32.0,-86.0,101920.0,-4.949000358581543,0,0
1702.421049,-0.745635986328125,0.05450439453125,-0.0059814453125,0.6640625,0.244140625,0.30517578125,0.06103515625,0.065185546875,-0.089111328125,1.001708984375,-219.0,32.0,-86.0,101920.0,-4.949000358581543,0,0
1702.427997,-0.745635986328125,0.05450439453125,-0.0059814453125,0.6640625,0.30517578125,0.244140625,-0.06103515625,0.0648193359375,-0.09228515625,1.0029296875,-219.0,32.0,-86.0,101920.0,-4.949000358581543,0,0
1702.435022,-0.745635986328125,0.05450439453125,-0.0059814453125,0.6640625,0.0,0.30517578125,0.244140625,0.0623779296875,-0.091064453125,1.001220703125,-219.0,32.0,-86.0,101920.0,-4.949000358581543,0,0
1702.442001,-0.745574951171875,0.05450439453125,-0.0059814453125,0.664154052734375,0.18310546875,0.244140625,0.0,0.0634765625,-0.090087890625,1.0029296875,-219.0,32.0,-86.0,101920.0,-4.950000286102295,0,0
1702.449015,-0.745574951171875,0.05450439453125,-0.006011962890625,0.664154052734375,-0.1220703125,0.30517578125,-0.18310546875,0.0648193359375,-0.0914306640625,1.0023193359375,-219.0,32.0,-86.0,101920.0,-4.950000286102295,0,0
1702.455996,-0.745574951171875,0.05450439453125,-0.006011962890625,0.664154052734375,-0.1220703125,0.42724609375,-0.06103515625,0.060791015625,-0.0909423828125,1.001708984375,-219.0,32.0,-86.0,101920.0,-4.950000286102295,0,0
1702.462995,-0.745574951171875,0.05450439453125,-0.006011962890625,0.664154052734375,-0.06103515625,0.1220703125,0.1220703125,0.064208984375,-0.0892333984375,1.003173828125,-219.0,32.0,-86.0,101920.0,-4.950000286102295,0,0
1702.470019,-0.745574951171875,0.05450439453125,-0.006011962890625,0.664154052734375,-0.06103515625,0.18310546875,0.0,0.06201171875,-0.090087890625,1.0010986328125,-219.0,32.0,-86.0,101920.0,-4.950000286102295,0,0
1702.477003,-0.745574951171875,0.05450439453125,-0.006011962890625,0.664154052734375,0.244140625,0.18310546875,0.06103515625,0.0633544921875,-0.0892333984375,1.0013427734375,-219.0,32.0,-86.0,101920.0,-4.950000286102295,0,0
1702.484019,-0.745574951171875,0.05450439453125,-0.006011962890625,0.664154052734375,-0.06103515625,0.06103515625,0.1220703125,0.064697265625,-0.090087890625,1.0023193359375,-219.0,32.0,-86.0,101920.0,-4.950000286102295,0,0
1702.490997,-0.745574951171875,0.05450439453125,-0.006011962890625,0.664154052734375,0.06103515625,0.42724609375,0.244140625,0.06494140625,-0.089111328125,1.0013427734375,-219.0,32.0,-86.0,101920.0,-4.950000286102295,0,0
1702.497996,-0.745574951171875,0.05450439453125,-0.006011962890625,0.664154052734375,0.0,-0.06103515625,-0.06103515625,0.063232421875,-0.0885009765625,1.0029296875,-219.0,32.0,-86.0,101920.0,-4.950000286102295,0,0
1702.505016,-0.745574951171875,0.05450439453125,-0.006011962890625,0.664154052734375,0.06103515625,0.18310546875,0.18310546875,0.0640869140625,-0.0885009765625,1.002685546875,-219.0,32.0,-86.0,101920.0,-4.950000286102295,0,0
1702.512001,-0.745574951171875,0.05450439453125,-0.0059814453125,0.664154052734375,0.1220703125,0.06103515625,0.1220703125,0.0643310546875,-0.0885009765625,1.000732421875,-219.0,32.0,-86.0,101920.0,-4.950000286102295,0,0
1702.518033,-0.745574951171875,0.05450439453125,-0.0059814453125,0.664154052734375,0.1220703125,0.06103515625,0.1220703125,0.0643310546875,-0.0885009765625,1.000732421875,-219.0,32.0,-86.0,101920.0,-4.950000286102295,0,0
1702.525022,-0.745574951171875,0.054473876953125,-0.0059814453125,0.664154052734375,0.06103515625,0.30517578125,0.18310546875,0.0626220703125,-0.0902099609375,1.00341796875,-219.0,32.0,-86.0,101920.0,-4.950000286102295,0,0
1702.532001,-0.745574951171875,0.054473876953125,-0.0059814453125,0.664154052734375,-0.06103515625,0.244140625,0.06103515625,0.06396484375,-0.090087890625,1.0003662109375,-219.0,32.0,-86.0,101920.0,-4.950000286102295,0,0
1702.539015,-0.745574951171875,0.054473876953125,-0.0059814453125,0.664154052734375,0.0,0.30517578125,-0.06103515625,0.0640869140625,-0.088623046875,1.0010986328125,-219.0,32.0,-86.0,101921.0,-4.951000213623047,0,0
1702.546,-0.7454833984375,0.054473876953125,-0.0059814453125,0.66424560546875,0.1220703125,0.244140625,-0.06103515625,0.062744140625,-0.0899658203125,1.0020751953125,-219.0,32.0,-86.0,101921.0,-4.951000213623047,0,0
1702.552999,-0.7454833984375,0.054473876953125,-0.0059814453125,0.66424560546875,-0.1220703125,0.42724609375,0.1220703125,0.06494140625,-0.0887451171875,1.0045166015625,-219.0,32.0,-86.0,101921.0,-4.951000213623047,0,0
1702.574018,-0.7454833984375,0.05450439453125,-0.0059814453125,0.66424560546875,-0.18310546875,0.244140625,0.06103515625,0.064208984375,-0.0911865234375,1.0018310546875,-219.0,32.0,-86.0,101921.0,-4.951000213623047,0,0
1702.580997,-0.7454833984375,0.05450439453125,-0.0059814453125,0.66424560546875,-0.1220703125,0.1220703125,0.18310546875,0.0650634765625,-0.0916748046875,1.001953125,-219.0,32.0,-86.0,101921.0,-4.951000213623047,0,0
1702.587996,-0.7454833984375,0.05450439453125,-0.0059814453125,0.66424560546875,-0.18310546875,0.30517578125,-0.06103515625,0.0667724609375,-0.0909423828125,1.001220703125,-219.0,32.0,-86.0,101921.0,-4.951000213623047,0,0
1702.595017,-0.7454833984375,0.05450439453125,-0.0059814453125,0.66424560546875,0.06103515625,0.0,0.06103515625,0.0648193359375,-0.0909423828125,1.0009765625,-219.0,32.0,-86.0,101921.0,-4.951000213623047,0,0
1702.602001,-0.7454833984375,0.05450439453125,-0.0059814453125,0.66424560546875,0.0,0.30517578125,0.06103515625,0.064208984375,-0.09033203125,1.0009765625,-219.0,32.0,-86.0,101921.0,-4.951000213623047,0,0
1702.608034,-0.7454833984375,0.05450439453125,-0.0059814453125,0.66424560546875,0.0,0.30517578125,0.06103515625,0.064208984375,-0.09033203125,1.0009765625,-219.0,32.0,-86.0,101921.0,-4.951000213623047,0,0
1702.615022,-0.7454833984375,0.054534912109375,-0.006011962890625,0.664215087890625,0.0,0.48828125,0.1220703125,0.063232421875,-0.0911865234375,0.9991455078125,-219.0,32.0,-86.0,101921.0,-4.951000213623047,0,0
1702.622001,-0.7454833984375,0.054534912109375,-0.006011962890625,0.664215087890625,-0.244140625,0.06103515625,0.0,0.061767578125,-0.0909423828125,1.0006103515625,-219.0,32.0,-86.0,101921.0,-4.951000213623047,0,0
1702.629015,-0.7454833984375,0.054534912109375,-0.006011962890625,0.664215087890625,-0.18310546875,0.1220703125,0.0,0.064208984375,-0.0899658203125,1.00341796875,-219.0,32.0,-86.0,101921.0,-4.951000213623047,0,0
1702.636,-0.7454833984375,0.05450439453125,-0.006011962890625,0.664215087890625,-0.06103515625,0.3662109375,0.1220703125,0.0609130859375,-0.088134765625,1.000732421875,-219.0,32.0,-86.0,101921.0,-4.951000213623047,0,0
1702.642995,-0.7454833984375,0.05450439453125,-0.006011962890625,0.66424560546875,0.0,0.06103515625,0.06103515625,0.0631103515625,-0.086669921875,1.0010986328125,-218.0,32.0,-86.0,101921.0,-4.951000213623047,0,0
1702.664018,-0.7454833984375,0.05450439453125,-0.006011962890625,0.664215087890625,-0.244140625,0.30517578125,-0.244140625,0.0631103515625,-0.0889892578125,1.0009765625,-218.0,32.0,-86.0,101921.0,-4.951000213623047,0,0
1702.670997,-0.7454833984375,0.05450439453125,-0.006011962890625,0.664215087890625,0.06103515625,0.30517578125,-0.1220703125,0.0645751953125,-0.089599609375,1.001953125,-218.0,32.0,-86.0,101921.0,-4.951000213623047,0,0
1702.677996,-0.7454833984375,0.05450439453125,-0.006011962890625,0.66424560546875,-0.1220703125,0.06103515625,0.06103515625,0.06494140625,-0.0892333984375,1.0009765625,-218.0,32.0,-86.0,101921.0,-4.951000213623047,0,0
1702.685016,-0.7454833984375,0.05450439453125,-0.006011962890625,0.66424560546875,-0.1220703125,0.244140625,-0.06103515625,0.0654296875,-0.087646484375,1.00146484375,-218.0,32.0,-86.0,101921.0,-4.951000213623047,0,0
1702.692001,-0.7454833984375,0.05450439453125,-0.006011962890625,0.66424560546875,0.0,0.1220703125,0.1220703125,0.0640869140625,-0.0902099609375,1.0035400390625,-218.0,32.0,-86.0,101921.0,-4.951000213623047,0,0
1702.699018,-0.7454833984375,0.05450439453125,-0.006011962890625,0.66424560546875,0.06103515625,0.3662109375,-0.18310546875,0.0621337890625,-0.0902099609375,1.0,-218.0,32.0,-86.0,101921.0,-4.951000213623047,0,0
1702.705053,-0.7454833984375,0.05450439453125,-0.006011962890625,0.66424560546875,0.06103515625,0.3662109375,-0.18310546875,0.0621337890625,-0.0902099609375,1.0,-218.0,32.0,-86.0,101921.0,-4.951000213623047,0,0
1702.712001,-0.7454833984375,0.05450439453125,-0.006011962890625,0.66424560546875,-0.30517578125,0.1220703125,-0.1220703125,0.0625,-0.091552734375,1.001708984375,-218.0,32.0,-86.0,101921.0,-4.951000213623047,0,0
1702.719015,-0.7454833984375,0.05450439453125,-0.00604248046875,0.664215087890625,0.244140625,0.3662109375,0.244140625,0.06298828125,-0.0906982421875,0.999755859375,-218.0,32.0,-86.0,101921.0,-4.951000213623047,0,0
1702.725995,-0.7454833984375,0.05450439453125,-0.00604248046875,0.664215087890625,-0.30517578125,0.0,0.06103515625,0.0623779296875,-0.089599609375,1.001953125,-218.0,32.0,-86.0,101921.0,-4.951000213623047,0,0
1702.732995,-0.7454833984375,0.05450439453125,-0.00604248046875,0.664215087890625,0.06103515625,0.244140625,-0.1220703125,0.0614013671875,-0.0911865234375,1.0018310546875,-218.0,32.0,-86.0,101921.0,-4.951000213623047,0,0
1702.754018,-0.7454833984375,0.05450439453125,-0.00604248046875,0.664215087890625,-0.06103515625,0.3662109375,-0.18310546875,0.063720703125,-0.090087890625,1.0,-218.0,32.0,-86.0,101921.0,-4.951000213623047,0,0
1702.760997,-0.7454833984375,0.054473876953125,-0.00604248046875,0.664215087890625,0.1220703125,0.30517578125,0.06103515625,0.06201171875,-0.0882568359375,1.001708984375,-218.0,32.0,-86.0,101921.0,-4.951000213623047,0,0
1702.767996,-0.7454833984375,0.054473876953125,-0.00604248046875,0.664215087890625,0.0,0.244140625,0.1220703125,0.0631103515625,-0.08984375,1.0030517578125,-218.0,32.0,-86.0,101921.0,-4.951000213623047,0,0
1702.775016,-0.7454833984375,0.054473876953125,-0.00604248046875,0.664215087890625,-0.06103515625,0.18310546875,-0.18310546875,0.0633544921875,-0.08984375,1.003173828125,-218.0,32.0,-86.0,101921.0,-4.951000213623047,0,0
1702.782001,-0.7454833984375,0.054473876953125,-0.00604248046875,0.664215087890625,-0.244140625,0.1220703125,-0.18310546875,0.064453125,-0.09033203125,1.00146484375,-218.0,32.0,-86.0,101921.0,-4.951000213623047,0,0
1702.789018,-0.7454833984375,0.054473876953125,-0.00604248046875,0.664215087890625,0.06103515625,0.1220703125,-0.06103515625,0.0615234375,-0.0872802734375,1.000732421875,-218.0,32.0,-86.0,101921.0,-4.951000213623047,0,0
1702.795049,-0.7454833984375,0.054473876953125,-0.00604248046875,0.664215087890625,0.06103515625,0.1220703125,-0.06103515625,0.0615234375,-0.0872802734375,1.000732421875,-218.0,32.0,-86.0,101921.0,-4.951000213623047,0,0
1702.802001,-0.7454833984375,0.054443359375,-0.00604248046875,0.66424560546875,-0.06103515625,0.18310546875,-0.1220703125,0.064453125,-0.0882568359375,0.9993896484375,-218.0,32.0,-86.0,101921.0,-4.951000213623047,0,0
1702.809015,-0.7454833984375,0.054443359375,-0.00604248046875,0.66424560546875,0.244140625,0.244140625,0.0,0.0645751953125,-0.087646484375,1.00048828125,-218.0,32.0,-86.0,101921.0,-4.951000213623047,0,0
1702.815996,-0.7454833984375,0.054443359375,-0.006011962890625,0.66424560546875,0.0,0.244140625,-0.1220703125,0.064453125,-0.09033203125,1.0015869140625,-218.0,32.0,-86.0,101921.0,-4.951000213623047,0,0
1702.837003,-0.7454833984375,0.054443359375,-0.006011962890625,0.66424560546875,-0.06103515625,0.30517578125,0.1220703125,0.06396484375,-0.088134765625,1.0013427734375,-217.0,32.0,-86.0,101921.0,-4.951000213623047,0,0
1702.844018,-0.7454833984375,0.054443359375,-0.0059814453125,0.66424560546875,-0.30517578125,0.1220703125,-0.06103515625,0.064697265625,-0.0887451171875,1.00146484375,-217.0,32.0,-86.0,101921.0,-4.951000213623047,0,0
1702.850997,-0.7454833984375,0.054443359375,-0.0059814453125,0.66424560546875,0.18310546875,0.3662109375,-0.06103515625,0.0654296875,-0.0880126953125,1.0023193359375,-217.0,32.0,-86.0,101921.0,-4.951000213623047,0,0
1702.857996,-0.7454833984375,0.054443359375,-0.0059814453125,0.66424560546875,-0.18310546875,0.3662109375,0.06103515625,0.06201171875,-0.0897216796875,1.0,-217.0,32.0,-86.0,101921.0,-4.951000213623047,0,0
1702.865017,-0.7454833984375,0.054443359375,-0.006011962890625,0.66424560546875,-0.1220703125,0.18310546875,0.1220703125,0.0633544921875,-0.0904541015625,1.00048828125,-217.0,32.0,-86.0,101921.0,-4.951000213623047,0,0
1702.872001,-0.7454833984375,0.054443359375,-0.006011962890625,0.66424560546875,0.0,0.30517578125,-0.06103515625,0.063720703125,-0.090576171875,1.0006103515625,-217.0,32.0,-86.0,101921.0,-4.951000213623047,0,0
1702.879018,-0.7454833984375,0.054443359375,-0.006011962890625,0.66424560546875,-0.06103515625,0.3662109375,-0.06103515625,0.0631103515625,-0.08984375,1.00048828125,-217.0,32.0,-86.0,101921.0,-4.951000213623047,0,0
1702.885999,-0.7454833984375,0.054443359375,-0.006011962890625,0.66424560546875,-0.06103515625,0.0,0.1220703125,0.0654296875,-0.092041015625,1.0013427734375,-217.0,32.0,-86.0,101921.0,-4.951000213623047,0,0
1702.892032,-0.7454833984375,0.054443359375,-0.006011962890625,0.66424560546875,-0.06103515625,0.0,0.1220703125,0.0654296875,-0.092041015625,1.0013427734375,-217.0,32.0,-86.0,101921.0,-4.951000213623047,0,0
1702.899015,-0.7454833984375,0.054443359375,-0.00604248046875,0.66424560546875,0.0,0.1220703125,-0.06103515625,0.0618896484375,-0.091552734375,1.00244140625,-217.0,32.0,-86.0,101921.0,-4.951000213623047,0,0
1702.906,-0.7454833984375,0.054443359375,-0.00604248046875,0.66424560546875,0.06103515625,0.18310546875,-0.06103515625,0.062255859375,-0.0892333984375,1.0013427734375,-217.0,32.0,-86.0,101921.0,-4.951000213623047,0,0
1702.927003,-0.7454833984375,0.054443359375,-0.00604248046875,0.66424560546875,0.0,0.244140625,0.0,0.0648193359375,-0.0885009765625,1.0009765625,-217.0,32.0,-86.0,101921.0,-4.951000213623047,0,0
1702.934018,-0.7454833984375,0.054443359375,-0.00604248046875,0.66424560546875,-0.06103515625,0.244140625,0.06103515625,0.0623779296875,-0.0872802734375,1.0018310546875,-217.0,32.0,-86.0,101921.0,-4.951000213623047,0,0
1702.940997,-0.7454833984375,0.054443359375,-0.006011962890625,0.66424560546875,0.06103515625,0.18310546875,0.06103515625,0.064208984375,-0.0875244140625,1.000732421875,-218.0,32.0,-85.0,101921.0,-4.951000213623047,0,0
1702.947996,-0.7454833984375,0.054443359375,-0.006011962890625,0.66424560546875,0.244140625,0.42724609375,-0.1220703125,0.0660400390625,-0.08935546875,1.0030517578125,-218.0,32.0,-85.0,101921.0,-4.951000213623047,0,0
1702.955016,-0.7454833984375,0.054443359375,-0.006011962890625,0.66424560546875,-0.06103515625,0.30517578125,0.18310546875,0.0655517578125,-0.0885009765625,1.0030517578125,-218.0,32.0,-85.0,101921.0,-4.951000213623047,0,0
1702.962001,-0.7454833984375,0.054412841796875,-0.006011962890625,0.66424560546875,-0.1220703125,0.244140625,0.06103515625,0.0618896484375,-0.0872802734375,1.0009765625,-218.0,32.0,-85.0,101921.0,-4.951000213623047,0,0
1702.969018,-0.7454833984375,0.054412841796875,-0.0059814453125,0.66424560546875,-0.1220703125,0.30517578125,-0.06103515625,0.066650390625,-0.089111328125,1.0006103515625,-218.0,32.0,-85.0,101921.0,-4.951000213623047,0,0
1702.975995,-0.7454833984375,0.054443359375,-0.0059814453125,0.66424560546875,0.1220703125,0.3662109375,0.0,0.0665283203125,-0.0887451171875,1.0010986328125,-218.0,32.0,-85.0,101921.0,-4.951000213623047,0,0
1702.982023,-0.7454833984375,0.054443359375,-0.0059814453125,0.66424560546875,0.1220703125,0.3662109375,0.0,0.0665283203125,-0.0887451171875,1.0010986328125,-218.0,32.0,-85.0,101921.0,-4.951000213623047,0,0
1702.989015,-0.7454833984375,0.054443359375,-0.0059814453125,0.66424560546875,-0.244140625,0.1220703125,0.1220703125,0.0654296875,-0.0902099609375,1.00146484375,-218.0,32.0,-85.0,101921.0,-4.951000213623047,0,0
1702.995995,-0.7454833984375,0.054443359375,-0.0059814453125,0.66424560546875,0.30517578125,0.3662109375,0.0,0.0655517578125,-0.0888671875,1.0009765625,-218.0,32.0,-85.0,101921.0,-4.951000213623047,0,0
1703.002995,-0.7454833984375,0.054443359375,-0.0059814453125,0.66424560546875,-0.1220703125,0.1220703125,0.06103515625,0.0648193359375,-0.09228515625,1.000732421875,-218.0,32.0,-85.0,101921.0,-4.951000213623047,0,0
1703.010019,-0.7454833984375,0.054443359375,-0.0059814453125,0.66424560546875,0.30517578125,0.18310546875,0.1220703125,0.06396484375,-0.0899658203125,1.001220703125,-218.0,32.0,-85.0,101921.0,-4.951000213623047,0,0
1703.017003,-0.7454833984375,0.054473876953125,-0.0059814453125,0.66424560546875,-0.1220703125,0.30517578125,0.0,0.06494140625,-0.09130859375,1.00048828125,-218.0,32.0,-85.0,101921.0,-4.951000213623047,0,0
1703.024018,-0.7454833984375,0.054473876953125,-0.0059814453125,0.66424560546875,-0.3662109375,0.30517578125,0.18310546875,0.0635986328125,-0.0921630859375,1.0013427734375,-218.0,32.0,-85.0,101921.0,-4.951000213623047,0,0
1703.030997,-0.7454833984375,0.054473876953125,-0.0059814453125,0.66424560546875,-0.06103515625,0.30517578125,0.0,0.0640869140625,-0.0909423828125,1.00146484375,-218.0,32.0,-85.0,101921.0,-4.951000213623047,0,0
1703.037996,-0.7457275390625,0.054443359375,-0.0059814453125,0.663970947265625,0.18310546875,0.06103515625,0.0,0.062255859375,-0.0889892578125,1.0025634765625,-217.0,34.0,-84.0,101921.0,-4.951000213623047,0,0
1703.045016,-0.7457275390625,0.054473876953125,-0.0059814453125,0.663970947265625,0.18310546875,0.18310546875,0.1220703125,0.0650634765625,-0.0927734375,1.0013427734375,-217.0,34.0,-84.0,101921.0,-4.951000213623047,0,0
1703.052001,-0.7457275390625,0.054473876953125,-0.0059814453125,0.663970947265625,0.1220703125,0.06103515625,-0.18310546875,0.0660400390625,-0.0906982421875,1.00048828125,-217.0,34.0,-84.0,101921.0,-4.951000213623047,0,0
1703.059019,-0.7457275390625,0.054473876953125,-0.0059814453125,0.663970947265625,-0.06103515625,0.244140625,0.1220703125,0.063232421875,-0.0916748046875,0.999755859375,-217.0,34.0,-84.0,101921.0,-4.951000213623047,0,0
1703.065995,-0.7457275390625,0.054473876953125,-0.0059814453125,0.663970947265625,0.1220703125,0.30517578125,0.0,0.0633544921875,-0.0888671875,1.0023193359375,-217.0,34.0,-84.0,101921.0,-4.951000213623047,0,0
1703.072994,-0.7457275390625,0.054473876953125,-0.005950927734375,0.663970947265625,-0.244140625,0.18310546875,0.06103515625,0.0655517578125,-0.088623046875,1.00244140625,-217.0,34.0,-84.0,101921.0,-4.951000213623047,0,0
1703.079026,-0.7457275390625,0.054473876953125,-0.005950927734375,0.663970947265625,-0.244140625,0.18310546875,0.06103515625,0.0655517578125,-0.088623046875,1.00244140625,-217.0,34.0,-84.0,101921.0,-4.951000213623047,0,0
1703.100019,-0.7457275390625,0.054443359375,-0.005950927734375,0.663970947265625,0.30517578125,0.30517578125,0.06103515625,0.063232421875,-0.0882568359375,1.0029296875,-217.0,34.0,-84.0,101921.0,-4.951000213623047,0,0
1703.107003,-0.7457275390625,0.054443359375,-0.0059814453125,0.663970947265625,-0.1220703125,0.3662109375,-0.06103515625,0.06298828125,-0.0909423828125,1.0013427734375,-217.0,34.0,-84.0,101921.0,-4.951000213623047,0,0
1703.114018,-0.7457275390625,0.054443359375,-0.0059814453125,0.663970947265625,0.0,0.30517578125,0.0,0.060302734375,-0.087890625,1.000244140625,-217.0,34.0,-84.0,101921.0,-4.951000213623047,0,0
1703.120997,-0.7457275390625,0.054443359375,-0.005950927734375,0.663970947265625,0.1220703125,0.244140625,0.1220703125,0.063232421875,-0.0889892578125,1.00048828125,-217.0,34.0,-84.0,101921.0,-4.951000213623047,0,0
1703.127996,-0.7457275390625,0.054443359375,-0.005950927734375,0.663970947265625,0.1220703125,0.18310546875,-0.06103515625,0.0655517578125,-0.088134765625,1.0010986328125,-217.0,34.0,-84.0,101921.0,-4.951000213623047,0,0
1703.135016,-0.7457275390625,0.054443359375,-0.005950927734375,0.663970947265625,-0.06103515625,0.1220703125,0.18310546875,0.0643310546875,-0.090576171875,1.0001220703125,-217.0,34.0,-84.0,101921.0,-4.951000213623047,0,0
1703.142001,-0.745880126953125,0.054443359375,-0.00592041015625,0.663787841796875,-0.18310546875,0.244140625,0.1220703125,0.0655517578125,-0.089599609375,1.00244140625,-218.0,34.0,-83.0,101921.0,-4.951000213623047,0,0
1703.149018,-0.745880126953125,0.054443359375,-0.005950927734375,0.663787841796875,0.1220703125,0.3662109375,0.18310546875,0.0628662109375,-0.090087890625,1.0010986328125,-218.0,34.0,-83.0,101921.0,-4.951000213623047,0,0
1703.155999,-0.745880126953125,0.054473876953125,-0.00592041015625,0.663787841796875,0.0,0.30517578125,0.18310546875,0.06689453125,-0.0906982421875,1.00439453125,-218.0,34.0,-83.0,101921.0,-4.951000213623047,0,0
1703.162999,-0.745880126953125,0.054473876953125,-0.005950927734375,0.663787841796875,0.0,0.244140625,0.06103515625,0.0635986328125,-0.0921630859375,1.00244140625,-218.0,34.0,-83.0,101921.0,-4.951000213623047,0,0
1703.169032,-0.745880126953125,0.054473876953125,-0.005950927734375,0.663787841796875,0.0,0.244140625,0.06103515625,0.0635986328125,-0.0921630859375,1.00244140625,-218.0,34.0,-83.0,101921.0,-4.951000213623047,0,0
1703.19002,-0.745880126953125,0.05450439453125,-0.005950927734375,0.663787841796875,0.1220703125,0.3662109375,0.1220703125,0.06396484375,-0.0919189453125,1.001953125,-218.0,34.0,-83.0,101920.0,-4.950000286102295,0,0
1703.197003,-0.745880126953125,0.05450439453125,-0.0059814453125,0.663787841796875,0.1220703125,0.244140625,-0.1220703125,0.06201171875,-0.0906982421875,1.0003662109375,-218.0,34.0,-83.0,101920.0,-4.950000286102295,0,0
1703.204019,-0.745880126953125,0.05450439453125,-0.0059814453125,0.663787841796875,0.06103515625,0.1220703125,0.0,0.0626220703125,-0.08935546875,1.0010986328125,-218.0,34.0,-83.0,101920.0,-4.950000286102295,0,0
1703.210997,-0.745880126953125,0.05450439453125,-0.0059814453125,0.663787841796875,0.30517578125,0.3662109375,-0.1220703125,0.064697265625,-0.0897216796875,1.002197265625,-218.0,34.0,-83.0,101920.0,-4.950000286102295,0,0
1703.217996,-0.745880126953125,0.05450439453125,-0.0059814453125,0.663787841796875,-0.1220703125,0.244140625,0.244140625,0.0645751953125,-0.089599609375,1.0020751953125,-218.0,34.0,-83.0,101920.0,-4.950000286102295,0,0
1703.225017,-0.745880126953125,0.05450439453125,-0.0059814453125,0.663787841796875,0.06103515625,0.06103515625,0.18310546875,0.06396484375,-0.09033203125,1.0015869140625,-218.0,34.0,-83.0,101920.0,-4.950000286102295,0,0
1703.232001,-0.745880126953125,0.05450439453125,-0.0059814453125,0.663787841796875,0.0,0.06103515625,-0.06103515625,0.064208984375,-0.090576171875,1.0029296875,-218.0,34.0,-83.0,101920.0,-4.950000286102295,0,0
1703.239018,-0.746124267578125,0.054473876953125,-0.005950927734375,0.663543701171875,-0.1220703125,0.244140625,0.06103515625,0.0645751953125,-0.089111328125,1.0010986328125,-217.0,34.0,-84.0,101920.0,-4.950000286102295,0,0
1703.245995,-0.746124267578125,0.054473876953125,-0.005950927734375,0.663543701171875,-0.1220703125,0.3662109375,-0.06103515625,0.0648193359375,-0.088623046875,1.0003662109375,-217.0,34.0,-84.0,101920.0,-4.950000286102295,0,0
1703.252994,-0.746124267578125,0.054473876953125,-0.005950927734375,0.663543701171875,0.244140625,0.30517578125,-0.244140625,0.063232421875,-0.089599609375,1.001220703125,-217.0,34.0,-84.0,101920.0,-4.950000286102295,0,0
1703.260019,-0.746124267578125,0.054473876953125,-0.005950927734375,0.663543701171875,-0.1220703125,0.06103515625,-0.1220703125,0.064697265625,-0.091796875,1.00048828125,-217.0,34.0,-84.0,101920.0,-4.950000286102295,0,0
1703.266051,-0.746124267578125,0.054473876953125,-0.005950927734375,0.663543701171875,-0.1220703125,0.06103515625,-0.1220703125,0.064697265625,-0.091796875,1.00048828125,-217.0,34.0,-84.0,101920.0,-4.950000286102295,0,0
1703.272995,-0.746124267578125,0.054473876953125,-0.005950927734375,0.663543701171875,-0.18310546875,0.30517578125,0.18310546875,0.062744140625,-0.090087890625,1.0,-217.0,34.0,-84.0,101920.0,-4.950000286102295,0,0
1703.280019,-0.746124267578125,0.05450439453125,-0.005950927734375,0.663543701171875,0.0,0.06103515625,-0.06103515625,0.065185546875,-0.09033203125,1.0035400390625,-217.0,34.0,-84.0,101920.0,-4.950000286102295,0,0
1703.287003,-0.746124267578125,0.05450439453125,-0.005950927734375,0.663543701171875,0.06103515625,0.3662109375,0.18310546875,0.0640869140625,-0.0908203125,1.0025634765625,-217.0,34.0,-84.0,101920.0,-4.950000286102295,0,0
1703.294018,-0.746124267578125,0.05450439453125,-0.005950927734375,0.663543701171875,-0.06103515625,0.18310546875,0.06103515625,0.064697265625,-0.090087890625,1.0015869140625,-217.0,34.0,-84.0,101920.0,-4.950000286102295,0,0
1703.300997,-0.74609375,0.05450439453125,-0.005950927734375,0.663543701171875,0.1220703125,0.18310546875,-0.1220703125,0.064697265625,-0.0921630859375,0.9996337890625,-217.0,34.0,-84.0,101920.0,-4.950000286102295,0,0
1703.307996,-0.74609375,0.05450439453125,-0.005950927734375,0.66351318359375,0.06103515625,0.06103515625,0.06103515625,0.065185546875,-0.0927734375,1.0025634765625,-217.0,34.0,-84.0,101920.0,-4.950000286102295,0,0
1703.315016,-0.74609375,0.05450439453125,-0.0059814453125,0.66351318359375,-0.1220703125,0.3662109375,0.1220703125,0.064697265625,-0.091064453125,1.0013427734375,-217.0,34.0,-84.0,101920.0,-4.950000286102295,0,0
1703.322001,-0.74609375,0.054534912109375,-0.0059814453125,0.66351318359375,-0.18310546875,0.1220703125,0.0,0.0635986328125,-0.0902099609375,1.0032958984375,-217.0,34.0,-84.0,101920.0,-4.950000286102295,0,0
1703.329018,-0.74609375,0.054534912109375,-0.0059814453125,0.66351318359375,-0.06103515625,0.18310546875,0.0,0.064208984375,-0.091064453125,1.0015869140625,-217.0,34.0,-84.0,101920.0,-4.950000286102295,0,0
1703.335995,-0.746124267578125,0.05450439453125,-0.0059814453125,0.66351318359375,-0.1220703125,0.30517578125,-0.1220703125,0.0645751953125,-0.0892333984375,1.0015869140625,-217.0,33.0,-82.0,101920.0,-4.950000286102295,0,0
1703.342994,-0.746185302734375,0.054534912109375,-0.0059814453125,0.6634521484375,0.06103515625,0.18310546875,0.06103515625,0.06396484375,-0.0921630859375,1.0013427734375,-217.0,33.0,-82.0,101920.0,-4.950000286102295,0,0
1703.362995,-0.746185302734375,0.054534912109375,-0.0059814453125,0.6634521484375,-0.06103515625,0.18310546875,0.1220703125,0.06494140625,-0.0904541015625,1.001708984375,-217.0,33.0,-82.0,101920.0,-4.950000286102295,0,0
1703.370019,-0.746185302734375,0.054534912109375,-0.0059814453125,0.6634521484375,0.0,0.244140625,0.1220703125,0.06494140625,-0.09033203125,1.001220703125,-217.0,33.0,-82.0,101920.0,-4.950000286102295,0,0
1703.377003,-0.746185302734375,0.054534912109375,-0.0059814453125,0.6634521484375,0.1220703125,0.1220703125,-0.30517578125,0.063232421875,-0.08984375,1.0010986328125,-217.0,33.0,-82.0,101920.0,-4.950000286102295,0,0
1703.384018,-0.746185302734375,0.054534912109375,-0.0059814453125,0.6634521484375,0.06103515625,0.18310546875,0.1220703125,0.0638427734375,-0.090087890625,1.0030517578125,-217.0,33.0,-82.0,101920.0,-4.950000286102295,0,0
1703.390997,-0.746185302734375,0.054534912109375,-0.0059814453125,0.6634521484375,0.06103515625,0.30517578125,0.0,0.065185546875,-0.0863037109375,1.0020751953125,-217.0,33.0,-82.0,101920.0,-4.950000286102295,0,0
1703.397996,-0.746185302734375,0.05450439453125,-0.005950927734375,0.6634521484375,0.06103515625,0.3662109375,0.06103515625,0.0643310546875,-0.0867919921875,1.002685546875,-217.0,33.0,-82.0,101920.0,-4.950000286102295,0,0
1703.405016,-0.746185302734375,0.05450439453125,-0.005950927734375,0.6634521484375,-0.06103515625,0.06103515625,-0.1220703125,0.0654296875,-0.08935546875,1.0,-217.0,33.0,-82.0,101920.0,-4.950000286102295,0,0
1703.412001,-0.746185302734375,0.05450439453125,-0.005950927734375,0.6634521484375,0.06103515625,0.30517578125,0.0,0.063720703125,-0.0897216796875,1.002197265625,-217.0,33.0,-82.0,101920.0,-4.950000286102295,0,0
1703.419018,-0.746185302734375,0.054534912109375,-0.005950927734375,0.6634521484375,0.06103515625,0.1220703125,0.06103515625,0.062744140625,-0.0899658203125,1.0020751953125,-217.0,33.0,-82.0,101920.0,-4.950000286102295,0,0
1703.425995,-0.746185302734375,0.054534912109375,-0.005950927734375,0.6634521484375,-0.244140625,0.18310546875,-0.06103515625,0.063720703125,-0.0921630859375,1.004150390625,-217.0,33.0,-82.0,101920.0,-4.950000286102295,0,0
1703.432994,-0.746185302734375,0.054534912109375,-0.0059814453125,0.6634521484375,0.244140625,0.18310546875,0.0,0.06591796875,-0.0928955078125,1.0010986328125,-218.0,34.0,-83.0,101920.0,-4.950000286102295,0,0
1703.453031,-0.746337890625,0.054534912109375,-0.005950927734375,0.66326904296875,0.0,0.3662109375,-0.18310546875,0.064453125,-0.093505859375,1.0015869140625,-218.0,34.0,-83.0,101920.0,-4.950000286102295,0,0
1703.46002,-0.746337890625,0.0545654296875,-0.0059814453125,0.66326904296875,-0.06103515625,0.30517578125,0.244140625,0.06298828125,-0.093017578125,1.0013427734375,-218.0,34.0,-83.0,101920.0,-4.950000286102295,0,0
1703.467003,-0.746337890625,0.0545654296875,-0.0059814453125,0.66326904296875,-0.06103515625,0.06103515625,0.06103515625,0.0631103515625,-0.091552734375,1.001708984375,-218.0,34.0,-83.0,101920.0,-4.950000286102295,0,0
1703.474018,-0.746337890625,0.0545654296875,-0.0059814453125,0.66326904296875,-0.18310546875,0.18310546875,0.0,0.0634765625,-0.0926513671875,1.0025634765625,-218.0,34.0,-83.0,101920.0,-4.950000286102295,0,0
1703.480997,-0.746337890625,0.0545654296875,-0.0059814453125,0.66326904296875,0.1220703125,0.3662109375,0.06103515625,0.0645751953125,-0.0927734375,1.0015869140625,-218.0,34.0,-83.0,101920.0,-4.950000286102295,0,0
1703.487996,-0.746337890625,0.0545654296875,-0.0059814453125,0.66326904296875,0.06103515625,0.30517578125,-0.244140625,0.06396484375,-0.0892333984375,0.9996337890625,-218.0,34.0,-83.0,101921.0,-4.951000213623047,0,0
1703.495017,-0.746337890625,0.0545654296875,-0.0059814453125,0.66326904296875,-0.30517578125,0.30517578125,-0.06103515625,0.06396484375,-0.0889892578125,1.0015869140625,-218.0,34.0,-83.0,101921.0,-4.951000213623047,0,0
1703.502001,-0.746337890625,0.0545654296875,-0.0059814453125,0.66326904296875,-0.06103515625,0.30517578125,-0.06103515625,0.06494140625,-0.0914306640625,1.00146484375,-218.0,34.0,-83.0,101921.0,-4.951000213623047,0,0
1703.509018,-0.746337890625,0.054595947265625,-0.005950927734375,0.66326904296875,-0.06103515625,0.1220703125,0.1220703125,0.0653076171875,-0.0906982421875,1.0015869140625,-218.0,34.0,-83.0,101921.0,-4.951000213623047,0,0
1703.515999,-0.746337890625,0.054595947265625,-0.005950927734375,0.66326904296875,0.0,0.42724609375,-0.06103515625,0.0640869140625,-0.089599609375,1.00244140625,-218.0,34.0,-83.0,101921.0,-4.951000213623047,0,0
