Time stamp(sec),quaternion_0,quaternion_1,quaternion_2,quaternion_3,roll_angular_rate,pitch_angular_rate,yaw_angular_rate,acc_X,acc_Y,acc_Z,mag_X,mag_Y,mag_Z,pressure,altitude
19.574996,0.838836669921875,-0.4241943359375,-0.27728271484375,-0.198699951171875,-0.1220703125,-0.18310546875,-0.06103515625,0.6343994140625,-0.6009521484375,0.486328125,-198.0,269.0,6.0,102285.0,-7.969000339508057,0,0
19.579993,0.838836669921875,-0.4241943359375,-0.27728271484375,-0.198699951171875,0.18310546875,0.0,-0.06103515625,0.633056640625,-0.6015625,0.4859619140625,-198.0,269.0,6.0,102285.0,-7.969000339508057,0,0
19.584993,0.838836669921875,-0.4241943359375,-0.27728271484375,-0.198699951171875,0.1220703125,0.0,-0.06103515625,0.6336669921875,-0.60302734375,0.4871826171875,-198.0,269.0,6.0,102285.0,-7.969000339508057,0,0
19.589994,0.838836669921875,-0.424163818359375,-0.27728271484375,-0.198699951171875,0.0,-0.1220703125,-0.06103515625,0.6329345703125,-0.5994873046875,0.489013671875,-198.0,269.0,6.0,102285.0,-7.969000339508057,0,0
19.594995,0.838836669921875,-0.4241943359375,-0.27728271484375,-0.198699951171875,0.30517578125,-0.30517578125,-0.18310546875,0.6357421875,-0.60009765625,0.4854736328125,-198.0,269.0,6.0,102285.0,-7.969000339508057,0,0
19.599992,0.838836669921875,-0.4241943359375,-0.27728271484375,-0.198699951171875,0.48828125,0.0,-0.244140625,0.634521484375,-0.6026611328125,0.485595703125,-198.0,269.0,6.0,102285.0,-7.969000339508057,0,0
19.604993,0.838836669921875,-0.4241943359375,-0.27728271484375,-0.198699951171875,0.1220703125,-0.1220703125,-0.30517578125,0.63330078125,-0.6009521484375,0.488037109375,-198.0,269.0,6.0,102285.0,-7.969000339508057,0,0
19.609993,0.838836669921875,-0.424163818359375,-0.27728271484375,-0.198699951171875,0.18310546875,0.0,-0.06103515625,0.6334228515625,-0.602294921875,0.4881591796875,-198.0,269.0,6.0,102285.0,-7.969000339508057,0,0
19.614022,0.838836669921875,-0.424163818359375,-0.27728271484375,-0.198699951171875,0.18310546875,0.0,-0.06103515625,0.6334228515625,-0.602294921875,0.4881591796875,-198.0,269.0,6.0,102285.0,-7.969000339508057,0,0
19.618993,0.838836669921875,-0.424163818359375,-0.27728271484375,-0.198699951171875,0.0,-0.244140625,-0.18310546875,0.6356201171875,-0.5999755859375,0.486572265625,-198.0,269.0,6.0,102285.0,-7.969000339508057,0,0
19.623994,0.838836669921875,-0.424163818359375,-0.27728271484375,-0.198699951171875,0.06103515625,-0.30517578125,-0.06103515625,0.63525390625,-0.60009765625,0.4864501953125,-198.0,269.0,6.0,102285.0,-7.969000339508057,0,0
19.628996,0.838836669921875,-0.424163818359375,-0.27728271484375,-0.198699951171875,0.0,-0.30517578125,-0.42724609375,0.6337890625,-0.599365234375,0.4854736328125,-198.0,269.0,6.0,102285.0,-7.969000339508057,0,0
19.633993,0.838836669921875,-0.424163818359375,-0.27728271484375,-0.198699951171875,0.244140625,-0.244140625,-0.18310546875,0.6339111328125,-0.601318359375,0.4857177734375,-198.0,269.0,6.0,102285.0,-7.969000339508057,0,0
19.638993,0.838836669921875,-0.4241943359375,-0.27728271484375,-0.198699951171875,0.0,-0.06103515625,-0.1220703125,0.633544921875,-0.6024169921875,0.48681640625,-198.0,269.0,6.0,102285.0,-7.969000339508057,0,0
19.643994,0.838836669921875,-0.4241943359375,-0.27728271484375,-0.198699951171875,-0.06103515625,-0.18310546875,-0.18310546875,0.6334228515625,-0.60205078125,0.4853515625,-198.0,269.0,6.0,102285.0,-7.969000339508057,0,0
19.648995,0.838836669921875,-0.4241943359375,-0.27728271484375,-0.198699951171875,0.06103515625,-0.48828125,-0.18310546875,0.6336669921875,-0.601318359375,0.48779296875,-198.0,269.0,6.0,102285.0,-7.969000339508057,0,0
19.653992,0.838836669921875,-0.4241943359375,-0.27728271484375,-0.198699951171875,-0.1220703125,0.0,-0.18310546875,0.63427734375,-0.6016845703125,0.4874267578125,-198.0,269.0,6.0,102285.0,-7.969000339508057,0,0
19.658993,0.838836669921875,-0.424163818359375,-0.27728271484375,-0.198699951171875,0.1220703125,-0.06103515625,-0.30517578125,0.6351318359375,-0.601806640625,0.4876708984375,-198.0,269.0,6.0,102285.0,-7.969000339508057,0,0
19.663993,0.8388671875,-0.42413330078125,-0.27734375,-0.198577880859375,0.18310546875,-0.06103515625,-0.1220703125,0.6356201171875,-0.60009765625,0.4862060546875,-199.0,270.0,5.0,102285.0,-7.969000339508057,0,0
19.668994,0.8388671875,-0.42413330078125,-0.27734375,-0.198577880859375,0.1220703125,0.18310546875,-0.06103515625,0.6361083984375,-0.6002197265625,0.486083984375,-199.0,270.0,5.0,102285.0,-7.969000339508057,0,0
19.673996,0.8388671875,-0.42413330078125,-0.27734375,-0.1986083984375,0.1220703125,-0.18310546875,-0.30517578125,0.6357421875,-0.599609375,0.4854736328125,-199.0,270.0,5.0,102285.0,-7.969000339508057,0,0
19.678027,0.8388671875,-0.42413330078125,-0.27734375,-0.1986083984375,0.1220703125,-0.18310546875,-0.30517578125,0.6357421875,-0.599609375,0.4854736328125,-199.0,270.0,5.0,102285.0,-7.969000339508057,0,0
19.682996,0.8388671875,-0.42413330078125,-0.277374267578125,-0.1986083984375,0.1220703125,-0.18310546875,-0.18310546875,0.6365966796875,-0.6005859375,0.487548828125,-199.0,270.0,5.0,102285.0,-7.969000339508057,0,0
19.697995,0.8388671875,-0.42413330078125,-0.277374267578125,-0.1986083984375,0.0,-0.244140625,-0.1220703125,0.63623046875,-0.6007080078125,0.4871826171875,-199.0,270.0,5.0,102285.0,-7.969000339508057,0,0
19.702997,0.8388671875,-0.42413330078125,-0.277374267578125,-0.1986083984375,0.30517578125,-0.06103515625,-0.244140625,0.6334228515625,-0.601806640625,0.486328125,-199.0,270.0,5.0,102285.0,-7.969000339508057,0,0
19.707997,0.8388671875,-0.42413330078125,-0.277374267578125,-0.1986083984375,-0.06103515625,-0.244140625,-0.30517578125,0.635498046875,-0.60205078125,0.485595703125,-199.0,270.0,5.0,102286.0,-7.9710001945495605,0,0
19.712994,0.8388671875,-0.42413330078125,-0.277374267578125,-0.1986083984375,0.18310546875,-0.1220703125,0.0,0.6336669921875,-0.6009521484375,0.4874267578125,-199.0,270.0,5.0,102286.0,-7.9710001945495605,0,0
19.717994,0.8388671875,-0.42413330078125,-0.277374267578125,-0.1986083984375,0.1220703125,-0.244140625,-0.1220703125,0.6353759765625,-0.6007080078125,0.4862060546875,-199.0,270.0,5.0,102286.0,-7.9710001945495605,0,0
19.722994,0.8388671875,-0.424102783203125,-0.277374267578125,-0.1986083984375,0.1220703125,-0.244140625,-0.1220703125,0.6353759765625,-0.6007080078125,0.4862060546875,-199.0,270.0,5.0,102286.0,-7.9710001945495605,0,0
19.727997,0.8388671875,-0.42413330078125,-0.277374267578125,-0.1986083984375,-0.1220703125,-0.244140625,-0.1220703125,0.6341552734375,-0.6015625,0.4849853515625,-199.0,270.0,5.0,102286.0,-7.9710001945495605,0,0
19.732994,0.8388671875,-0.42413330078125,-0.277374267578125,-0.1986083984375,0.244140625,-0.1220703125,-0.244140625,0.63134765625,-0.601318359375,0.48681640625,-199.0,270.0,5.0,102286.0,-7.9710001945495605,0,0
19.737994,0.8388671875,-0.42413330078125,-0.277374267578125,-0.1986083984375,-0.1220703125,-0.1220703125,-0.1220703125,0.6343994140625,-0.6019287109375,0.48681640625,-199.0,270.0,5.0,102286.0,-7.9710001945495605,0,0
19.742995,0.8388671875,-0.42413330078125,-0.277374267578125,-0.1986083984375,0.244140625,0.06103515625,-0.18310546875,0.632568359375,-0.6019287109375,0.48779296875,-199.0,270.0,5.0,102286.0,-7.9710001945495605,0,0
19.747025,0.8388671875,-0.42413330078125,-0.277374267578125,-0.1986083984375,0.244140625,0.06103515625,-0.18310546875,0.632568359375,-0.6019287109375,0.48779296875,-199.0,270.0,5.0,102286.0,-7.9710001945495605,0,0
19.761992,0.838897705078125,-0.424072265625,-0.277435302734375,-0.198486328125,0.0,0.06103515625,-0.18310546875,0.6348876953125,-0.60107421875,0.4864501953125,-199.0,270.0,5.0,102286.0,-7.9710001945495605,0,0
19.766993,0.838897705078125,-0.424072265625,-0.277435302734375,-0.198486328125,0.18310546875,-0.244140625,-0.30517578125,0.6346435546875,-0.6011962890625,0.4866943359375,-199.0,270.0,5.0,102286.0,-7.9710001945495605,0,0
19.771993,0.838897705078125,-0.424072265625,-0.277435302734375,-0.198486328125,-0.06103515625,-0.18310546875,-0.1220703125,0.6353759765625,-0.599853515625,0.4874267578125,-199.0,270.0,5.0,102286.0,-7.9710001945495605,0,0
19.776994,0.838897705078125,-0.424072265625,-0.277435302734375,-0.198486328125,0.3662109375,-0.06103515625,-0.244140625,0.6348876953125,-0.60107421875,0.4879150390625,-199.0,270.0,5.0,102286.0,-7.9710001945495605,0,0
19.781996,0.838897705078125,-0.424072265625,-0.277435302734375,-0.198486328125,0.0,-0.06103515625,-0.3662109375,0.634765625,-0.604736328125,0.488525390625,-199.0,270.0,5.0,102286.0,-7.9710001945495605,0,0
19.786993,0.838897705078125,-0.424072265625,-0.277435302734375,-0.198486328125,0.06103515625,-0.30517578125,-0.1220703125,0.6319580078125,-0.6025390625,0.48876953125,-199.0,270.0,5.0,102286.0,-7.9710001945495605,0,0
19.791993,0.838897705078125,-0.424072265625,-0.277435302734375,-0.198486328125,0.30517578125,-0.244140625,-0.30517578125,0.6326904296875,-0.6036376953125,0.4852294921875,-199.0,270.0,5.0,102286.0,-7.9710001945495605,0,0
19.796994,0.838897705078125,-0.424072265625,-0.277435302734375,-0.198486328125,0.18310546875,-0.1220703125,0.1220703125,0.6318359375,-0.6002197265625,0.4853515625,-199.0,270.0,5.0,102286.0,-7.9710001945495605,0,0
19.801995,0.838897705078125,-0.424072265625,-0.277435302734375,-0.198486328125,0.244140625,-0.06103515625,-0.06103515625,0.6351318359375,-0.6021728515625,0.48583984375,-199.0,270.0,5.0,102286.0,-7.9710001945495605,0,0
19.806993,0.838897705078125,-0.424072265625,-0.277435302734375,-0.198486328125,0.1220703125,-0.42724609375,-0.30517578125,0.633544921875,-0.6021728515625,0.4869384765625,-199.0,270.0,5.0,102285.0,-7.967000484466553,0,0
19.811021,0.838897705078125,-0.424072265625,-0.277435302734375,-0.198486328125,0.1220703125,-0.42724609375,-0.30517578125,0.633544921875,-0.6021728515625,0.4869384765625,-199.0,270.0,5.0,102285.0,-7.967000484466553,0,0
19.825993,0.838897705078125,-0.424072265625,-0.277435302734375,-0.198486328125,0.0,-0.1220703125,-0.06103515625,0.6318359375,-0.601806640625,0.4864501953125,-199.0,270.0,5.0,102285.0,-7.967000484466553,0,0
19.830994,0.838897705078125,-0.424072265625,-0.277435302734375,-0.198486328125,-0.244140625,0.0,-0.244140625,0.631591796875,-0.6011962890625,0.486572265625,-199.0,270.0,5.0,102285.0,-7.967000484466553,0,0
19.835996,0.838897705078125,-0.424072265625,-0.27740478515625,-0.198486328125,-0.244140625,-0.30517578125,-0.18310546875,0.6336669921875,-0.6019287109375,0.487060546875,-199.0,270.0,5.0,102285.0,-7.967000484466553,0,0
19.840993,0.838897705078125,-0.424072265625,-0.277435302734375,-0.198486328125,0.244140625,-0.18310546875,-0.244140625,0.635498046875,-0.6015625,0.4864501953125,-199.0,270.0,5.0,102285.0,-7.967000484466553,0,0
19.845993,0.838897705078125,-0.424072265625,-0.27740478515625,-0.198486328125,0.1220703125,0.0,-0.06103515625,0.633056640625,-0.6015625,0.48583984375,-199.0,270.0,5.0,102285.0,-7.967000484466553,0,0
19.850994,0.838897705078125,-0.424072265625,-0.27740478515625,-0.198486328125,0.06103515625,-0.244140625,-0.18310546875,0.63330078125,-0.6007080078125,0.4871826171875,-199.0,270.0,5.0,102285.0,-7.967000484466553,0,0
19.855995,0.838897705078125,-0.424072265625,-0.27740478515625,-0.198486328125,0.1220703125,-0.18310546875,-0.3662109375,0.63330078125,-0.6011962890625,0.488037109375,-199.0,270.0,5.0,102285.0,-7.967000484466553,0,0
19.860996,0.838897705078125,-0.424072265625,-0.27740478515625,-0.198486328125,0.244140625,-0.18310546875,-0.06103515625,0.6351318359375,-0.6025390625,0.4874267578125,-199.0,270.0,5.0,102285.0,-7.967000484466553,0,0
19.865993,0.83892822265625,-0.42401123046875,-0.2774658203125,-0.1983642578125,-0.30517578125,-0.1220703125,-0.18310546875,0.6353759765625,-0.6025390625,0.4874267578125,-199.0,270.0,5.0,102285.0,-7.967000484466553,0,0
19.870993,0.83892822265625,-0.42401123046875,-0.2774658203125,-0.1983642578125,0.0,-0.244140625,-0.18310546875,0.63330078125,-0.5999755859375,0.488037109375,-199.0,270.0,5.0,102285.0,-7.967000484466553,0,0
19.884994,0.83892822265625,-0.424041748046875,-0.2774658203125,-0.1983642578125,0.18310546875,0.0,-0.1220703125,0.635009765625,-0.603759765625,0.4854736328125,-199.0,270.0,5.0,102285.0,-7.967000484466553,0,0
19.889996,0.83892822265625,-0.424041748046875,-0.2774658203125,-0.1983642578125,0.1220703125,0.06103515625,-0.18310546875,0.6337890625,-0.6025390625,0.4864501953125,-199.0,270.0,5.0,102285.0,-7.967000484466553,0,0
19.894993,0.83892822265625,-0.424041748046875,-0.2774658203125,-0.1983642578125,0.3662109375,0.0,-0.3662109375,0.633544921875,-0.6009521484375,0.4873046875,-199.0,270.0,5.0,102285.0,-7.967000484466553,0,0
19.899993,0.83892822265625,-0.424041748046875,-0.2774658203125,-0.1983642578125,0.18310546875,-0.18310546875,0.0,0.6334228515625,-0.6019287109375,0.4852294921875,-199.0,270.0,5.0,102285.0,-7.967000484466553,0,0
19.904995,0.83892822265625,-0.424041748046875,-0.2774658203125,-0.1983642578125,-0.1220703125,0.0,-0.244140625,0.6339111328125,-0.601318359375,0.4873046875,-199.0,270.0,5.0,102285.0,-7.967000484466553,0,0
19.909997,0.83892822265625,-0.42401123046875,-0.2774658203125,-0.1983642578125,0.244140625,-0.1220703125,-0.30517578125,0.6337890625,-0.6016845703125,0.4888916015625,-199.0,270.0,5.0,102285.0,-7.969000339508057,0,0
19.914996,0.83892822265625,-0.42401123046875,-0.2774658203125,-0.1983642578125,0.42724609375,-0.18310546875,-0.30517578125,0.6341552734375,-0.60205078125,0.487060546875,-199.0,270.0,5.0,102285.0,-7.969000339508057,0,0
19.919994,0.83892822265625,-0.42401123046875,-0.2774658203125,-0.1983642578125,-0.30517578125,-0.06103515625,0.0,0.630615234375,-0.6011962890625,0.4847412109375,-199.0,270.0,5.0,102285.0,-7.969000339508057,0,0
19.924994,0.83892822265625,-0.42401123046875,-0.2774658203125,-0.1983642578125,0.06103515625,-0.06103515625,-0.06103515625,0.6326904296875,-0.599365234375,0.4854736328125,-199.0,270.0,5.0,102285.0,-7.969000339508057,0,0
19.929994,0.83892822265625,-0.42401123046875,-0.2774658203125,-0.1983642578125,0.42724609375,0.1220703125,-0.1220703125,0.6348876953125,-0.600341796875,0.48486328125,-199.0,270.0,5.0,102285.0,-7.969000339508057,0,0
19.934997,0.83892822265625,-0.424041748046875,-0.2774658203125,-0.1983642578125,-0.1220703125,0.0,-0.244140625,0.6317138671875,-0.6019287109375,0.48486328125,-199.0,270.0,5.0,102285.0,-7.969000339508057,0,0
19.948998,0.83892822265625,-0.424041748046875,-0.2774658203125,-0.1983642578125,0.244140625,-0.18310546875,-0.06103515625,0.6328125,-0.600830078125,0.4864501953125,-199.0,270.0,5.0,102285.0,-7.969000339508057,0,0
19.953994,0.83892822265625,-0.424041748046875,-0.2774658203125,-0.1983642578125,0.1220703125,-0.18310546875,0.06103515625,0.634521484375,-0.6014404296875,0.4852294921875,-199.0,270.0,5.0,102285.0,-7.969000339508057,0,0
19.958995,0.83892822265625,-0.424041748046875,-0.2774658203125,-0.1983642578125,0.1220703125,-0.18310546875,0.06103515625,0.634521484375,-0.6014404296875,0.4852294921875,-199.0,269.0,6.0,102285.0,-7.969000339508057,0,0
19.963997,0.83892822265625,-0.424041748046875,-0.2774658203125,-0.1983642578125,0.18310546875,-0.18310546875,-0.1220703125,0.63232421875,-0.6016845703125,0.4859619140625,-199.0,269.0,6.0,102285.0,-7.969000339508057,0,0
19.968996,0.83892822265625,-0.424041748046875,-0.2774658203125,-0.1983642578125,0.732421875,0.06103515625,-0.244140625,0.6318359375,-0.599365234375,0.4852294921875,-199.0,269.0,6.0,102285.0,-7.969000339508057,0,0
19.973993,0.83892822265625,-0.424041748046875,-0.2774658203125,-0.1983642578125,0.06103515625,-0.06103515625,-0.30517578125,0.6357421875,-0.602294921875,0.4864501953125,-199.0,269.0,6.0,102285.0,-7.969000339508057,0,0
19.978993,0.83892822265625,-0.424041748046875,-0.2774658203125,-0.1983642578125,-0.06103515625,0.06103515625,0.0,0.6336669921875,-0.6024169921875,0.48583984375,-199.0,269.0,6.0,102285.0,-7.969000339508057,0,0
19.983994,0.83892822265625,-0.424041748046875,-0.2774658203125,-0.1983642578125,0.06103515625,-0.244140625,0.06103515625,0.6334228515625,-0.6041259765625,0.486328125,-199.0,269.0,6.0,102285.0,-7.969000339508057,0,0
19.988996,0.83892822265625,-0.424041748046875,-0.2774658203125,-0.1983642578125,-0.18310546875,-0.1220703125,-0.30517578125,0.633544921875,-0.6015625,0.485595703125,-199.0,269.0,6.0,102285.0,-7.969000339508057,0,0
19.993993,0.83892822265625,-0.424041748046875,-0.2774658203125,-0.1983642578125,0.1220703125,-0.06103515625,-0.30517578125,0.6329345703125,-0.6011962890625,0.4869384765625,-199.0,269.0,6.0,102285.0,-7.969000339508057,0,0
19.998993,0.83892822265625,-0.424041748046875,-0.2774658203125,-0.1983642578125,0.3662109375,0.06103515625,0.0,0.6339111328125,-0.60107421875,0.48583984375,-199.0,269.0,6.0,102285.0,-7.969000339508057,0,0
20.003994,0.83892822265625,-0.424041748046875,-0.2774658203125,-0.1983642578125,0.0,-0.18310546875,-0.06103515625,0.6341552734375,-0.600341796875,0.4857177734375,-199.0,269.0,6.0,102285.0,-7.969000339508057,0,0
20.008995,0.83892822265625,-0.424041748046875,-0.2774658203125,-0.1983642578125,0.0,0.06103515625,-0.06103515625,0.6339111328125,-0.599853515625,0.4844970703125,-199.0,269.0,6.0,102285.0,-7.969000339508057,0,0
20.01302,0.83892822265625,-0.424041748046875,-0.2774658203125,-0.1983642578125,0.0,0.06103515625,-0.06103515625,0.6339111328125,-0.599853515625,0.4844970703125,-199.0,269.0,6.0,102285.0,-7.969000339508057,0,0
20.017995,0.83892822265625,-0.424041748046875,-0.2774658203125,-0.1983642578125,-0.18310546875,-0.244140625,-0.06103515625,0.6336669921875,-0.5994873046875,0.4874267578125,-199.0,269.0,6.0,102285.0,-7.969000339508057,0,0
20.022996,0.83892822265625,-0.424072265625,-0.2774658203125,-0.1983642578125,0.0,0.0,0.0,0.63525390625,-0.6029052734375,0.486572265625,-199.0,269.0,6.0,102285.0,-7.969000339508057,0,0
20.027993,0.83892822265625,-0.424072265625,-0.2774658203125,-0.198333740234375,-0.1220703125,-0.30517578125,0.06103515625,0.6336669921875,-0.6041259765625,0.486328125,-199.0,269.0,6.0,102285.0,-7.969000339508057,0,0
20.032993,0.83892822265625,-0.424072265625,-0.2774658203125,-0.198333740234375,0.0,-0.18310546875,-0.1220703125,0.634033203125,-0.60107421875,0.4859619140625,-199.0,269.0,6.0,102285.0,-7.969000339508057,0,0
20.037994,0.83892822265625,-0.424072265625,-0.2774658203125,-0.198333740234375,-0.18310546875,-0.18310546875,0.0,0.6326904296875,-0.60107421875,0.486572265625,-199.0,269.0,6.0,102285.0,-7.969000339508057,0,0
20.042996,0.83892822265625,-0.424072265625,-0.2774658203125,-0.1983642578125,-0.1220703125,-0.06103515625,-0.06103515625,0.6351318359375,-0.6009521484375,0.486328125,-199.0,269.0,6.0,102285.0,-7.969000339508057,0,0
20.047993,0.83892822265625,-0.424041748046875,-0.2774658203125,-0.1983642578125,0.1220703125,0.06103515625,-0.18310546875,0.634033203125,-0.600341796875,0.4862060546875,-199.0,269.0,6.0,102285.0,-7.969000339508057,0,0
20.052993,0.83892822265625,-0.424072265625,-0.2774658203125,-0.198333740234375,0.06103515625,-0.1220703125,-0.1220703125,0.6334228515625,-0.6005859375,0.485107421875,-199.0,269.0,6.0,102285.0,-7.969000339508057,0,0
20.057994,0.83892822265625,-0.424072265625,-0.2774658203125,-0.198333740234375,0.06103515625,-0.1220703125,-0.1220703125,0.6334228515625,-0.6005859375,0.485107421875,-199.0,268.0,5.0,102285.0,-7.969000339508057,0,0
20.072993,0.8388671875,-0.424163818359375,-0.27734375,-0.198577880859375,0.1220703125,-0.1220703125,-0.06103515625,0.6339111328125,-0.6009521484375,0.4873046875,-199.0,268.0,5.0,102285.0,-7.969000339508057,0,0
20.077022,0.8388671875,-0.424163818359375,-0.27734375,-0.198577880859375,0.1220703125,-0.1220703125,-0.06103515625,0.6339111328125,-0.6009521484375,0.4873046875,-199.0,268.0,5.0,102285.0,-7.969000339508057,0,0
20.081993,0.8388671875,-0.424163818359375,-0.27734375,-0.198577880859375,0.1220703125,-0.06103515625,-0.06103515625,0.63232421875,-0.6009521484375,0.4866943359375,-199.0,268.0,5.0,102285.0,-7.969000339508057,0,0
20.086993,0.8388671875,-0.424163818359375,-0.27734375,-0.198577880859375,0.0,-0.30517578125,-0.18310546875,0.635009765625,-0.6016845703125,0.4852294921875,-199.0,268.0,5.0,102285.0,-7.969000339508057,0,0
20.091994,0.8388671875,-0.424163818359375,-0.27734375,-0.198577880859375,0.18310546875,-0.1220703125,-0.18310546875,0.6336669921875,-0.6011962890625,0.4837646484375,-199.0,268.0,5.0,102285.0,-7.969000339508057,0,0
20.096996,0.8388671875,-0.424163818359375,-0.27734375,-0.198577880859375,-0.1220703125,-0.244140625,0.18310546875,0.635009765625,-0.6005859375,0.485595703125,-199.0,268.0,5.0,102285.0,-7.969000339508057,0,0
20.101993,0.8388671875,-0.424163818359375,-0.27734375,-0.198577880859375,0.06103515625,-0.1220703125,-0.18310546875,0.634033203125,-0.6015625,0.486328125,-199.0,268.0,5.0,102285.0,-7.969000339508057,0,0
20.106993,0.8388671875,-0.424163818359375,-0.27734375,-0.198577880859375,0.0,-0.18310546875,0.06103515625,0.6337890625,-0.60205078125,0.48583984375,-199.0,268.0,5.0,102286.0,-7.9710001945495605,0,0
20.111994,0.838836669921875,-0.424163818359375,-0.277374267578125,-0.198577880859375,0.18310546875,-0.18310546875,-0.18310546875,0.6390380859375,-0.600830078125,0.4859619140625,-199.0,268.0,5.0,102286.0,-7.9710001945495605,0,0
20.116997,0.838836669921875,-0.424163818359375,-0.277374267578125,-0.1986083984375,0.0,-0.06103515625,-0.06103515625,0.63525390625,-0.6024169921875,0.48779296875,-199.0,268.0,5.0,102286.0,-7.9710001945495605,0,0
20.131994,0.8388671875,-0.42413330078125,-0.277374267578125,-0.1986083984375,0.30517578125,-0.06103515625,-0.244140625,0.632568359375,-0.6007080078125,0.4849853515625,-199.0,268.0,5.0,102286.0,-7.9710001945495605,0,0
20.136994,0.8388671875,-0.424163818359375,-0.277374267578125,-0.1986083984375,0.3662109375,-0.18310546875,-0.18310546875,0.633056640625,-0.5999755859375,0.486328125,-199.0,268.0,5.0,102286.0,-7.9710001945495605,0,0
20.141026,0.8388671875,-0.424163818359375,-0.277374267578125,-0.1986083984375,0.3662109375,-0.18310546875,-0.18310546875,0.633056640625,-0.5999755859375,0.486328125,-199.0,268.0,5.0,102286.0,-7.9710001945495605,0,0
20.145994,0.838836669921875,-0.424163818359375,-0.277374267578125,-0.198577880859375,0.30517578125,-0.3662109375,-0.1220703125,0.633056640625,-0.601318359375,0.4842529296875,-199.0,268.0,5.0,102286.0,-7.9710001945495605,0,0
20.150997,0.838836669921875,-0.424163818359375,-0.277374267578125,-0.1986083984375,-0.06103515625,-0.06103515625,-0.18310546875,0.6346435546875,-0.601318359375,0.486083984375,-199.0,268.0,5.0,102286.0,-7.9710001945495605,0,0
20.155994,0.8388671875,-0.424163818359375,-0.277374267578125,-0.198577880859375,0.30517578125,-0.18310546875,-0.1220703125,0.6328125,-0.6025390625,0.4862060546875,-199.0,268.0,5.0,102286.0,-7.9710001945495605,0,0
20.160994,0.8388671875,-0.424163818359375,-0.277374267578125,-0.198577880859375,0.0,-0.30517578125,-0.18310546875,0.6341552734375,-0.601318359375,0.4869384765625,-199.0,268.0,6.0,102286.0,-7.9710001945495605,0,0
20.165995,0.83880615234375,-0.424224853515625,-0.2772216796875,-0.198822021484375,-0.18310546875,0.0,-0.244140625,0.6317138671875,-0.6024169921875,0.4866943359375,-199.0,268.0,6.0,102286.0,-7.9710001945495605,0,0
20.170997,0.83880615234375,-0.424224853515625,-0.2772216796875,-0.198822021484375,0.244140625,0.06103515625,-0.18310546875,0.6307373046875,-0.6015625,0.4857177734375,-199.0,268.0,6.0,102286.0,-7.9710001945495605,0,0
20.175997,0.83880615234375,-0.424224853515625,-0.2772216796875,-0.198822021484375,-0.06103515625,-0.1220703125,-0.06103515625,0.6329345703125,-0.6016845703125,0.4864501953125,-199.0,268.0,6.0,102286.0,-7.9710001945495605,0,0
20.180994,0.83880615234375,-0.424224853515625,-0.2772216796875,-0.198822021484375,0.1220703125,-0.244140625,-0.1220703125,0.6326904296875,-0.599853515625,0.48681640625,-199.0,268.0,6.0,102286.0,-7.9710001945495605,0,0
20.185993,0.83880615234375,-0.424224853515625,-0.2772216796875,-0.198822021484375,0.244140625,0.1220703125,-0.244140625,0.6329345703125,-0.600830078125,0.486328125,-199.0,268.0,6.0,102286.0,-7.9710001945495605,0,0
20.190994,0.83880615234375,-0.424224853515625,-0.2772216796875,-0.198822021484375,-0.18310546875,-0.244140625,0.0,0.6317138671875,-0.6007080078125,0.48681640625,-199.0,268.0,6.0,102286.0,-7.9710001945495605,0,0
20.195996,0.83880615234375,-0.424224853515625,-0.2772216796875,-0.198822021484375,0.244140625,-0.1220703125,-0.18310546875,0.6337890625,-0.603515625,0.487060546875,-199.0,268.0,6.0,102286.0,-7.9710001945495605,0,0
20.200993,0.83880615234375,-0.424224853515625,-0.2772216796875,-0.198822021484375,0.0,-0.06103515625,-0.1220703125,0.6324462890625,-0.6031494140625,0.4859619140625,-199.0,268.0,6.0,102286.0,-7.9710001945495605,0,0
20.205993,0.83880615234375,-0.424224853515625,-0.2772216796875,-0.198822021484375,-0.1220703125,-0.06103515625,0.0,0.6324462890625,-0.601318359375,0.48681640625,-199.0,268.0,6.0,102285.0,-7.968000411987305,0,0
20.210022,0.83880615234375,-0.424224853515625,-0.2772216796875,-0.198822021484375,-0.1220703125,-0.06103515625,0.0,0.6324462890625,-0.601318359375,0.48681640625,-199.0,268.0,6.0,102285.0,-7.968000411987305,0,0
20.259993,0.83880615234375,-0.42425537109375,-0.2772216796875,-0.198822021484375,0.06103515625,-0.18310546875,-0.18310546875,0.633544921875,-0.603515625,0.48583984375,-199.0,266.0,6.0,102285.0,-7.968000411987305,0,0
20.264994,0.8387451171875,-0.424346923828125,-0.277099609375,-0.199066162109375,0.1220703125,-0.1220703125,-0.1220703125,0.63525390625,-0.6014404296875,0.4869384765625,-199.0,266.0,6.0,102285.0,-7.968000411987305,0,0
20.269995,0.8387451171875,-0.424346923828125,-0.277099609375,-0.199066162109375,-0.1220703125,-0.244140625,0.06103515625,0.6339111328125,-0.6015625,0.4847412109375,-199.0,266.0,6.0,102285.0,-7.968000411987305,0,0
20.27402,0.8387451171875,-0.424346923828125,-0.277099609375,-0.199066162109375,-0.1220703125,-0.244140625,0.06103515625,0.6339111328125,-0.6015625,0.4847412109375,-199.0,266.0,6.0,102285.0,-7.968000411987305,0,0
20.278996,0.838714599609375,-0.424346923828125,-0.277099609375,-0.199066162109375,0.06103515625,0.0,-0.3662109375,0.6357421875,-0.6029052734375,0.48583984375,-199.0,266.0,6.0,102285.0,-7.968000411987305,0,0
20.283992,0.838714599609375,-0.424346923828125,-0.277099609375,-0.199066162109375,-0.18310546875,-0.18310546875,-0.1220703125,0.6329345703125,-0.6009521484375,0.486328125,-199.0,266.0,6.0,102285.0,-7.968000411987305,0,0
20.288993,0.838714599609375,-0.424346923828125,-0.277099609375,-0.199066162109375,-0.18310546875,-0.18310546875,-0.1220703125,0.6329345703125,-0.6009521484375,0.486328125,-199.0,266.0,6.0,102285.0,-7.968000411987305,0,0
20.293993,0.8387451171875,-0.424346923828125,-0.277099609375,-0.199066162109375,-0.1220703125,-0.06103515625,-0.1220703125,0.6339111328125,-0.60205078125,0.487060546875,-199.0,266.0,6.0,102285.0,-7.968000411987305,0,0
20.298994,0.8387451171875,-0.424346923828125,-0.277099609375,-0.199066162109375,0.0,-0.42724609375,-0.18310546875,0.6361083984375,-0.5994873046875,0.48681640625,-199.0,266.0,6.0,102285.0,-7.968000411987305,0,0
20.303996,0.8387451171875,-0.424346923828125,-0.277099609375,-0.199066162109375,-0.06103515625,-0.1220703125,-0.06103515625,0.63427734375,-0.5994873046875,0.486328125,-199.0,266.0,6.0,102285.0,-7.968000411987305,0,0
20.318994,0.8387451171875,-0.42431640625,-0.277099609375,-0.199066162109375,0.06103515625,-0.30517578125,-0.18310546875,0.6326904296875,-0.6009521484375,0.4866943359375,-199.0,266.0,6.0,102286.0,-7.970000267028809,0,0
20.323995,0.8387451171875,-0.42431640625,-0.277099609375,-0.199066162109375,0.06103515625,-0.18310546875,0.0,0.632568359375,-0.6011962890625,0.4871826171875,-199.0,266.0,6.0,102286.0,-7.970000267028809,0,0
20.328996,0.8387451171875,-0.42431640625,-0.277099609375,-0.199066162109375,0.18310546875,-0.18310546875,-0.06103515625,0.63427734375,-0.60107421875,0.4849853515625,-199.0,266.0,6.0,102286.0,-7.970000267028809,0,0
20.333994,0.8387451171875,-0.424346923828125,-0.277099609375,-0.199066162109375,-0.06103515625,-0.18310546875,-0.244140625,0.635986328125,-0.6031494140625,0.48681640625,-199.0,266.0,6.0,102286.0,-7.970000267028809,0,0
20.338994,0.8387451171875,-0.42431640625,-0.277099609375,-0.199066162109375,0.1220703125,-0.244140625,-0.18310546875,0.6334228515625,-0.6014404296875,0.4866943359375,-199.0,266.0,6.0,102286.0,-7.970000267028809,0,0
20.343024,0.8387451171875,-0.42431640625,-0.277099609375,-0.199066162109375,0.1220703125,-0.244140625,-0.18310546875,0.6334228515625,-0.6014404296875,0.4866943359375,-199.0,266.0,6.0,102286.0,-7.970000267028809,0,0
20.347994,0.8387451171875,-0.42431640625,-0.277099609375,-0.199066162109375,0.1220703125,-0.1220703125,-0.18310546875,0.6331787109375,-0.6021728515625,0.4864501953125,-199.0,266.0,6.0,102286.0,-7.970000267028809,0,0
20.352994,0.8387451171875,-0.42431640625,-0.277099609375,-0.199066162109375,0.1220703125,-0.244140625,-0.3662109375,0.6329345703125,-0.6014404296875,0.4869384765625,-199.0,266.0,6.0,102286.0,-7.970000267028809,0,0
20.357997,0.8387451171875,-0.42431640625,-0.277099609375,-0.199066162109375,-0.1220703125,-0.1220703125,-0.3662109375,0.63427734375,-0.600830078125,0.4866943359375,-199.0,268.0,5.0,102286.0,-7.970000267028809,0,0
20.362994,0.8387451171875,-0.42431640625,-0.277099609375,-0.199066162109375,0.06103515625,-0.06103515625,-0.1220703125,0.634033203125,-0.6015625,0.486083984375,-199.0,268.0,5.0,102286.0,-7.970000267028809,0,0
20.367994,0.83868408203125,-0.424407958984375,-0.2769775390625,-0.199310302734375,-0.18310546875,-0.244140625,-0.06103515625,0.6317138671875,-0.6011962890625,0.48583984375,-199.0,268.0,5.0,102286.0,-7.970000267028809,0,0
20.372995,0.83868408203125,-0.424407958984375,-0.2769775390625,-0.199310302734375,0.18310546875,-0.06103515625,-0.30517578125,0.635009765625,-0.600830078125,0.4862060546875,-199.0,268.0,5.0,102286.0,-7.970000267028809,0,0
20.377997,0.83868408203125,-0.424407958984375,-0.2769775390625,-0.199310302734375,0.3662109375,-0.06103515625,-0.18310546875,0.6334228515625,-0.600341796875,0.4852294921875,-199.0,268.0,5.0,102286.0,-7.970000267028809,0,0
20.382997,0.83868408203125,-0.424407958984375,-0.2769775390625,-0.199310302734375,0.244140625,-0.18310546875,-0.1220703125,0.633056640625,-0.601318359375,0.4852294921875,-199.0,268.0,5.0,102286.0,-7.970000267028809,0,0
20.387994,0.83868408203125,-0.424407958984375,-0.2769775390625,-0.199310302734375,0.244140625,-0.1220703125,-0.30517578125,0.63330078125,-0.602783203125,0.4874267578125,-199.0,268.0,5.0,102286.0,-7.970000267028809,0,0
20.392994,0.83868408203125,-0.424407958984375,-0.277008056640625,-0.199310302734375,-0.244140625,-0.06103515625,-0.244140625,0.634765625,-0.600830078125,0.4869384765625,-199.0,268.0,5.0,102286.0,-7.970000267028809,0,0
20.397994,0.83868408203125,-0.424407958984375,-0.2769775390625,-0.199310302734375,0.06103515625,-0.30517578125,-0.18310546875,0.6357421875,-0.6024169921875,0.486083984375,-199.0,268.0,5.0,102286.0,-7.970000267028809,0,0
20.402996,0.83868408203125,-0.424407958984375,-0.2769775390625,-0.199310302734375,-0.06103515625,-0.06103515625,0.0,0.6331787109375,-0.602294921875,0.486572265625,-199.0,268.0,5.0,102286.0,-7.970000267028809,0,0
20.407027,0.83868408203125,-0.424407958984375,-0.2769775390625,-0.199310302734375,-0.06103515625,-0.06103515625,0.0,0.6331787109375,-0.602294921875,0.486572265625,-199.0,268.0,5.0,102286.0,-7.970000267028809,0,0
20.411996,0.83868408203125,-0.424407958984375,-0.2769775390625,-0.199310302734375,0.1220703125,0.0,-0.18310546875,0.6328125,-0.6007080078125,0.4853515625,-199.0,268.0,5.0,102285.0,-7.968000411987305,0,0
20.416993,0.83868408203125,-0.424407958984375,-0.2769775390625,-0.199310302734375,0.06103515625,-0.18310546875,-0.1220703125,0.633056640625,-0.6031494140625,0.4871826171875,-199.0,268.0,5.0,102285.0,-7.968000411987305,0,0
20.421993,0.83868408203125,-0.424407958984375,-0.2769775390625,-0.199310302734375,-0.18310546875,0.18310546875,-0.244140625,0.634765625,-0.6011962890625,0.4879150390625,-199.0,268.0,5.0,102285.0,-7.968000411987305,0,0
20.426994,0.83868408203125,-0.424407958984375,-0.2769775390625,-0.199310302734375,0.0,0.0,-0.18310546875,0.63232421875,-0.60302734375,0.4879150390625,-199.0,268.0,5.0,102285.0,-7.968000411987305,0,0
20.441993,0.83868408203125,-0.424407958984375,-0.2769775390625,-0.199310302734375,-0.06103515625,-0.18310546875,-0.244140625,0.6326904296875,-0.6015625,0.4833984375,-199.0,268.0,5.0,102285.0,-7.968000411987305,0,0
20.446993,0.83868408203125,-0.424407958984375,-0.2769775390625,-0.199310302734375,0.18310546875,-0.244140625,-0.18310546875,0.6341552734375,-0.59912109375,0.4864501953125,-199.0,268.0,5.0,102285.0,-7.968000411987305,0,0
20.451994,0.83868408203125,-0.424407958984375,-0.2769775390625,-0.199310302734375,-0.06103515625,-0.18310546875,-0.06103515625,0.63623046875,-0.6004638671875,0.4842529296875,-199.0,268.0,5.0,102285.0,-7.968000411987305,0,0
20.456996,0.83868408203125,-0.424407958984375,-0.2769775390625,-0.199310302734375,0.0,-0.06103515625,0.06103515625,0.6343994140625,-0.6043701171875,0.4871826171875,-199.0,268.0,5.0,102285.0,-7.968000411987305,0,0
20.461993,0.83868408203125,-0.424407958984375,-0.2769775390625,-0.199310302734375,0.1220703125,-0.1220703125,0.0,0.6353759765625,-0.603515625,0.486572265625,-200.0,268.0,5.0,102285.0,-7.968000411987305,0,0
20.466993,0.838592529296875,-0.424530029296875,-0.27679443359375,-0.199676513671875,0.30517578125,0.0,-0.18310546875,0.6331787109375,-0.6019287109375,0.485107421875,-200.0,268.0,5.0,102285.0,-7.968000411987305,0,0
20.471994,0.838592529296875,-0.424530029296875,-0.27679443359375,-0.19964599609375,0.06103515625,-0.18310546875,0.06103515625,0.633056640625,-0.6016845703125,0.4854736328125,-200.0,268.0,5.0,102285.0,-7.968000411987305,0,0
20.476021,0.838592529296875,-0.424530029296875,-0.27679443359375,-0.19964599609375,0.06103515625,-0.18310546875,0.06103515625,0.633056640625,-0.6016845703125,0.4854736328125,-200.0,268.0,5.0,102285.0,-7.968000411987305,0,0
20.480994,0.838592529296875,-0.424530029296875,-0.27679443359375,-0.199676513671875,0.0,-0.244140625,-0.18310546875,0.63232421875,-0.5999755859375,0.486328125,-200.0,268.0,5.0,102285.0,-7.968000411987305,0,0
20.485995,0.838592529296875,-0.424530029296875,-0.27679443359375,-0.19964599609375,-0.18310546875,-0.30517578125,-0.1220703125,0.6334228515625,-0.6025390625,0.4859619140625,-200.0,268.0,5.0,102285.0,-7.968000411987305,0,0
20.490996,0.838592529296875,-0.424530029296875,-0.27679443359375,-0.199676513671875,0.18310546875,-0.1220703125,0.0,0.63427734375,-0.60107421875,0.485595703125,-200.0,268.0,5.0,102285.0,-7.968000411987305,0,0
20.505994,0.838592529296875,-0.424530029296875,-0.27679443359375,-0.199676513671875,0.18310546875,-0.1220703125,-0.18310546875,0.6343994140625,-0.602294921875,0.48828125,-200.0,268.0,5.0,102286.0,-7.970000267028809,0,0
20.510996,0.838592529296875,-0.424530029296875,-0.27679443359375,-0.199676513671875,-0.30517578125,0.0,-0.06103515625,0.6343994140625,-0.6031494140625,0.4854736328125,-200.0,268.0,5.0,102286.0,-7.970000267028809,0,0
20.515993,0.838592529296875,-0.424560546875,-0.27679443359375,-0.199676513671875,0.06103515625,-0.42724609375,-0.30517578125,0.633544921875,-0.6016845703125,0.48583984375,-200.0,268.0,5.0,102286.0,-7.970000267028809,0,0
20.520993,0.838592529296875,-0.424530029296875,-0.27679443359375,-0.199676513671875,0.18310546875,-0.42724609375,-0.1220703125,0.6317138671875,-0.5982666015625,0.4857177734375,-200.0,268.0,5.0,102286.0,-7.970000267028809,0,0
20.525994,0.838592529296875,-0.424530029296875,-0.276824951171875,-0.199676513671875,-0.18310546875,-0.244140625,-0.54931640625,0.6336669921875,-0.598876953125,0.4847412109375,-200.0,268.0,5.0,102286.0,-7.970000267028809,0,0
20.530995,0.838592529296875,-0.424530029296875,-0.276824951171875,-0.199676513671875,0.1220703125,-0.1220703125,-0.18310546875,0.6331787109375,-0.600341796875,0.4847412109375,-200.0,268.0,5.0,102286.0,-7.970000267028809,0,0
20.535992,0.838592529296875,-0.424530029296875,-0.276824951171875,-0.199676513671875,0.18310546875,0.0,0.0,0.63525390625,-0.6026611328125,0.4866943359375,-200.0,268.0,5.0,102286.0,-7.970000267028809,0,0
20.540021,0.838592529296875,-0.424530029296875,-0.276824951171875,-0.199676513671875,0.18310546875,0.0,0.0,0.63525390625,-0.6026611328125,0.4866943359375,-200.0,268.0,5.0,102286.0,-7.970000267028809,0,0
20.544996,0.838592529296875,-0.424560546875,-0.27679443359375,-0.199676513671875,0.18310546875,-0.06103515625,-0.06103515625,0.632080078125,-0.6031494140625,0.486328125,-200.0,268.0,5.0,102286.0,-7.970000267028809,0,0
20.549994,0.838592529296875,-0.424560546875,-0.27679443359375,-0.19964599609375,-0.244140625,-0.06103515625,-0.3662109375,0.6317138671875,-0.6025390625,0.4874267578125,-200.0,268.0,5.0,102286.0,-7.970000267028809,0,0
20.554994,0.838592529296875,-0.424560546875,-0.27679443359375,-0.19964599609375,0.1220703125,-0.06103515625,-0.244140625,0.6348876953125,-0.601318359375,0.4844970703125,-200.0,268.0,5.0,102286.0,-7.970000267028809,0,0
20.559994,0.838592529296875,-0.424560546875,-0.27679443359375,-0.19964599609375,0.1220703125,-0.06103515625,-0.244140625,0.6348876953125,-0.601318359375,0.4844970703125,-200.0,269.0,4.0,102286.0,-7.970000267028809,0,0
20.564996,0.83856201171875,-0.424591064453125,-0.2767333984375,-0.19976806640625,0.244140625,-0.244140625,-0.42724609375,0.63427734375,-0.600830078125,0.4864501953125,-200.0,269.0,4.0,102286.0,-7.970000267028809,0,0
20.569994,0.838531494140625,-0.424591064453125,-0.276763916015625,-0.19976806640625,-0.1220703125,-0.244140625,-0.18310546875,0.6328125,-0.602294921875,0.4840087890625,-200.0,269.0,4.0,102286.0,-7.970000267028809,0,0
20.574994,0.838531494140625,-0.424591064453125,-0.276763916015625,-0.199798583984375,0.0,-0.1220703125,-0.06103515625,0.6348876953125,-0.601318359375,0.487060546875,-200.0,269.0,4.0,102286.0,-7.970000267028809,0,0
20.579995,0.838531494140625,-0.424591064453125,-0.276763916015625,-0.199798583984375,0.06103515625,0.1220703125,-0.06103515625,0.633544921875,-0.5999755859375,0.488037109375,-200.0,269.0,4.0,102286.0,-7.970000267028809,0,0
20.584997,0.838531494140625,-0.424591064453125,-0.276763916015625,-0.199798583984375,-0.1220703125,-0.18310546875,-0.244140625,0.633544921875,-0.60205078125,0.48681640625,-200.0,269.0,4.0,102286.0,-7.970000267028809,0,0
20.589996,0.838531494140625,-0.424591064453125,-0.276763916015625,-0.19976806640625,0.0,-0.06103515625,-0.18310546875,0.6331787109375,-0.60302734375,0.4852294921875,-200.0,269.0,4.0,102286.0,-7.970000267028809,0,0
20.594994,0.838531494140625,-0.424591064453125,-0.276763916015625,-0.19976806640625,0.3662109375,0.0,-0.244140625,0.6351318359375,-0.6021728515625,0.486572265625,-200.0,269.0,4.0,102286.0,-7.970000267028809,0,0
20.599994,0.838531494140625,-0.424591064453125,-0.276763916015625,-0.19976806640625,-0.1220703125,0.0,-0.244140625,0.632568359375,-0.6002197265625,0.487060546875,-200.0,269.0,4.0,102286.0,-7.970000267028809,0,0
20.604994,0.83856201171875,-0.424591064453125,-0.276763916015625,-0.199798583984375,0.3662109375,-0.244140625,-0.30517578125,0.632080078125,-0.5987548828125,0.4881591796875,-200.0,269.0,4.0,102286.0,-7.970000267028809,0,0
20.609025,0.83856201171875,-0.424591064453125,-0.276763916015625,-0.199798583984375,0.3662109375,-0.244140625,-0.30517578125,0.632080078125,-0.5987548828125,0.4881591796875,-200.0,269.0,4.0,102286.0,-7.970000267028809,0,0
20.613994,0.83856201171875,-0.424591064453125,-0.2767333984375,-0.199798583984375,0.18310546875,-0.06103515625,-0.3662109375,0.6341552734375,-0.6021728515625,0.4871826171875,-200.0,269.0,4.0,102285.0,-7.968000411987305,0,0
20.628993,0.83856201171875,-0.424591064453125,-0.276763916015625,-0.199798583984375,-0.06103515625,0.0,-0.06103515625,0.633544921875,-0.5999755859375,0.4844970703125,-200.0,269.0,4.0,102285.0,-7.968000411987305,0,0
20.633994,0.83856201171875,-0.424591064453125,-0.2767333984375,-0.199798583984375,0.0,-0.06103515625,0.06103515625,0.632568359375,-0.6029052734375,0.4857177734375,-200.0,269.0,4.0,102285.0,-7.968000411987305,0,0
20.638995,0.83856201171875,-0.424591064453125,-0.2767333984375,-0.199798583984375,0.18310546875,-0.06103515625,-0.1220703125,0.6339111328125,-0.601318359375,0.4859619140625,-200.0,269.0,4.0,102285.0,-7.968000411987305,0,0
20.643992,0.83856201171875,-0.424591064453125,-0.2767333984375,-0.199798583984375,-0.244140625,-0.06103515625,-0.18310546875,0.633056640625,-0.6016845703125,0.48486328125,-200.0,269.0,4.0,102285.0,-7.968000411987305,0,0
20.648993,0.83856201171875,-0.424591064453125,-0.276763916015625,-0.199798583984375,0.244140625,-0.06103515625,-0.244140625,0.634033203125,-0.60107421875,0.4852294921875,-200.0,269.0,4.0,102285.0,-7.968000411987305,0,0
20.653993,0.83856201171875,-0.424591064453125,-0.2767333984375,-0.199798583984375,0.0,-0.18310546875,-0.30517578125,0.6348876953125,-0.6009521484375,0.488037109375,-200.0,269.0,4.0,102285.0,-7.968000411987305,0,0
20.658994,0.83856201171875,-0.424591064453125,-0.2767333984375,-0.199798583984375,0.0,-0.18310546875,-0.30517578125,0.6348876953125,-0.6009521484375,0.488037109375,-200.0,269.0,3.0,102285.0,-7.968000411987305,0,0
20.663996,0.83856201171875,-0.424591064453125,-0.276763916015625,-0.199798583984375,-0.3662109375,-0.30517578125,-0.244140625,0.6356201171875,-0.600341796875,0.4874267578125,-200.0,269.0,3.0,102285.0,-7.968000411987305,0,0
20.668993,0.838531494140625,-0.42462158203125,-0.276702880859375,-0.199920654296875,-0.1220703125,0.0,-0.06103515625,0.6343994140625,-0.600341796875,0.48583984375,-200.0,269.0,3.0,102285.0,-7.968000411987305,0,0
20.673021,0.838531494140625,-0.42462158203125,-0.276702880859375,-0.199920654296875,-0.1220703125,0.0,-0.06103515625,0.6343994140625,-0.600341796875,0.48583984375,-200.0,269.0,3.0,102285.0,-7.968000411987305,0,0
20.677993,0.838531494140625,-0.42462158203125,-0.276702880859375,-0.199920654296875,-0.244140625,-0.06103515625,0.0,0.632080078125,-0.6005859375,0.4844970703125,-200.0,269.0,3.0,102285.0,-7.968000411987305,0,0
20.692995,0.838531494140625,-0.42462158203125,-0.276702880859375,-0.199920654296875,0.1220703125,0.0,-0.244140625,0.6336669921875,-0.603515625,0.4871826171875,-200.0,269.0,3.0,102285.0,-7.968000411987305,0,0
20.697992,0.838531494140625,-0.42462158203125,-0.276702880859375,-0.199920654296875,0.30517578125,-0.244140625,-0.42724609375,0.6341552734375,-0.6016845703125,0.4884033203125,-200.0,269.0,3.0,102285.0,-7.968000411987305,0,0
20.702993,0.838531494140625,-0.42462158203125,-0.276702880859375,-0.199920654296875,-0.06103515625,-0.42724609375,-0.18310546875,0.6358642578125,-0.6016845703125,0.4871826171875,-200.0,269.0,3.0,102285.0,-7.968000411987305,0,0
20.707993,0.838531494140625,-0.42462158203125,-0.276702880859375,-0.199920654296875,0.06103515625,-0.244140625,-0.18310546875,0.6341552734375,-0.6004638671875,0.488525390625,-200.0,269.0,3.0,102286.0,-7.970000267028809,0,0
20.712994,0.838531494140625,-0.42462158203125,-0.276702880859375,-0.199920654296875,0.06103515625,0.0,-0.06103515625,0.6339111328125,-0.598876953125,0.484130859375,-200.0,269.0,3.0,102286.0,-7.970000267028809,0,0
20.717996,0.838531494140625,-0.424591064453125,-0.276702880859375,-0.199920654296875,0.0,-0.18310546875,0.18310546875,0.6322021484375,-0.59765625,0.48583984375,-200.0,269.0,3.0,102286.0,-7.970000267028809,0,0
20.722993,0.838531494140625,-0.424591064453125,-0.276702880859375,-0.199920654296875,0.06103515625,0.0,0.0,0.63330078125,-0.5997314453125,0.4857177734375,-200.0,269.0,3.0,102286.0,-7.970000267028809,0,0
20.727993,0.838531494140625,-0.424591064453125,-0.276702880859375,-0.199920654296875,0.18310546875,-0.3662109375,0.18310546875,0.63525390625,-0.6036376953125,0.487548828125,-200.0,269.0,3.0,102286.0,-7.970000267028809,0,0
20.732994,0.838531494140625,-0.424591064453125,-0.276702880859375,-0.199920654296875,0.244140625,-0.18310546875,-0.30517578125,0.6326904296875,-0.60400390625,0.4881591796875,-200.0,269.0,3.0,102286.0,-7.970000267028809,0,0
20.737995,0.838531494140625,-0.42462158203125,-0.276702880859375,-0.199920654296875,0.1220703125,-0.1220703125,-0.30517578125,0.6353759765625,-0.604736328125,0.4871826171875,-200.0,269.0,3.0,102286.0,-7.970000267028809,0,0
20.74202,0.838531494140625,-0.42462158203125,-0.276702880859375,-0.199920654296875,0.1220703125,-0.1220703125,-0.30517578125,0.6353759765625,-0.604736328125,0.4871826171875,-200.0,269.0,3.0,102286.0,-7.970000267028809,0,0
20.746996,0.838531494140625,-0.42462158203125,-0.276702880859375,-0.199920654296875,0.0,-0.244140625,-0.42724609375,0.635498046875,-0.60302734375,0.4864501953125,-200.0,269.0,3.0,102286.0,-7.970000267028809,0,0
20.751996,0.838531494140625,-0.42462158203125,-0.276702880859375,-0.199920654296875,0.1220703125,-0.30517578125,-0.30517578125,0.6328125,-0.60107421875,0.487548828125,-200.0,269.0,3.0,102286.0,-7.970000267028809,0,0
20.756994,0.838531494140625,-0.424591064453125,-0.276702880859375,-0.199920654296875,-0.1220703125,0.1220703125,-0.1220703125,0.6331787109375,-0.598876953125,0.48486328125,-200.0,269.0,3.0,102286.0,-7.970000267028809,0,0
20.761994,0.838531494140625,-0.424591064453125,-0.276702880859375,-0.199920654296875,-0.42724609375,0.1220703125,0.06103515625,0.63232421875,-0.5987548828125,0.4854736328125,-200.0,270.0,3.0,102286.0,-7.970000267028809,0,0
20.766994,0.838531494140625,-0.424591064453125,-0.276702880859375,-0.199920654296875,0.1220703125,0.0,0.0,0.6312255859375,-0.5999755859375,0.48583984375,-200.0,270.0,3.0,102286.0,-7.970000267028809,0,0
20.771996,0.838531494140625,-0.424591064453125,-0.276702880859375,-0.199920654296875,-0.18310546875,-0.06103515625,0.18310546875,0.6317138671875,-0.6007080078125,0.4871826171875,-200.0,270.0,3.0,102286.0,-7.970000267028809,0,0
20.776994,0.838531494140625,-0.424591064453125,-0.276702880859375,-0.199920654296875,0.18310546875,-0.06103515625,-0.48828125,0.632568359375,-0.603271484375,0.4857177734375,-200.0,270.0,3.0,102286.0,-7.970000267028809,0,0
20.781994,0.838531494140625,-0.424591064453125,-0.276702880859375,-0.199920654296875,0.244140625,-0.18310546875,-0.18310546875,0.633544921875,-0.602783203125,0.487060546875,-200.0,270.0,3.0,102286.0,-7.970000267028809,0,0
20.786995,0.838531494140625,-0.424591064453125,-0.27667236328125,-0.199920654296875,0.06103515625,0.0,-0.244140625,0.6341552734375,-0.6024169921875,0.48876953125,-200.0,270.0,3.0,102286.0,-7.970000267028809,0,0
20.791997,0.838531494140625,-0.424591064453125,-0.276702880859375,-0.199920654296875,-0.1220703125,-0.30517578125,-0.18310546875,0.6351318359375,-0.6011962890625,0.48681640625,-200.0,270.0,3.0,102286.0,-7.970000267028809,0,0
20.796996,0.838531494140625,-0.424591064453125,-0.276702880859375,-0.199920654296875,0.06103515625,-0.244140625,-0.06103515625,0.6357421875,-0.5999755859375,0.484130859375,-200.0,270.0,3.0,102286.0,-7.970000267028809,0,0
20.801994,0.838531494140625,-0.424591064453125,-0.276702880859375,-0.199920654296875,0.06103515625,-0.06103515625,-0.06103515625,0.6341552734375,-0.6011962890625,0.4859619140625,-200.0,270.0,3.0,102286.0,-7.970000267028809,0,0
20.815994,0.838531494140625,-0.424591064453125,-0.276702880859375,-0.199920654296875,0.30517578125,-0.1220703125,-0.42724609375,0.6343994140625,-0.603271484375,0.4866943359375,-200.0,270.0,3.0,102285.0,-7.966000556945801,0,0
20.820994,0.838531494140625,-0.424591064453125,-0.27667236328125,-0.199920654296875,0.06103515625,-0.06103515625,-0.06103515625,0.6339111328125,-0.604736328125,0.486083984375,-200.0,270.0,3.0,102285.0,-7.966000556945801,0,0
20.825996,0.838531494140625,-0.424591064453125,-0.27667236328125,-0.199920654296875,0.18310546875,-0.06103515625,-0.244140625,0.633544921875,-0.60107421875,0.486328125,-200.0,270.0,3.0,102285.0,-7.966000556945801,0,0
20.830993,0.838531494140625,-0.424591064453125,-0.27667236328125,-0.199920654296875,0.3662109375,-0.3662109375,-0.18310546875,0.6318359375,-0.600830078125,0.484619140625,-200.0,270.0,3.0,102285.0,-7.966000556945801,0,0
20.835993,0.838531494140625,-0.424591064453125,-0.27667236328125,-0.199920654296875,0.0,0.0,-0.18310546875,0.6328125,-0.599609375,0.4849853515625,-200.0,270.0,3.0,102285.0,-7.966000556945801,0,0
20.840994,0.838531494140625,-0.424591064453125,-0.27667236328125,-0.199920654296875,0.42724609375,-0.1220703125,-0.244140625,0.6331787109375,-0.6009521484375,0.485595703125,-200.0,270.0,3.0,102285.0,-7.966000556945801,0,0
20.845995,0.838531494140625,-0.424591064453125,-0.27667236328125,-0.199920654296875,0.42724609375,-0.1220703125,-0.244140625,0.6331787109375,-0.6009521484375,0.485595703125,-200.0,270.0,3.0,102285.0,-7.966000556945801,0,0
20.850996,0.838531494140625,-0.424591064453125,-0.276702880859375,-0.199920654296875,0.1220703125,-0.1220703125,0.06103515625,0.6341552734375,-0.6011962890625,0.48486328125,-200.0,270.0,3.0,102285.0,-7.966000556945801,0,0
20.855993,0.838531494140625,-0.424591064453125,-0.276702880859375,-0.199920654296875,0.1220703125,0.1220703125,-0.1220703125,0.63427734375,-0.6024169921875,0.487548828125,-200.0,270.0,3.0,102285.0,-7.966000556945801,0,0
20.860993,0.838531494140625,-0.424591064453125,-0.276702880859375,-0.199920654296875,0.1220703125,0.1220703125,-0.1220703125,0.63427734375,-0.6024169921875,0.487548828125,-200.0,270.0,4.0,102285.0,-7.966000556945801,0,0
20.865994,0.83856201171875,-0.424560546875,-0.2767333984375,-0.199798583984375,0.244140625,-0.244140625,-0.30517578125,0.6328125,-0.6024169921875,0.4866943359375,-200.0,270.0,4.0,102285.0,-7.966000556945801,0,0
20.879996,0.83856201171875,-0.424560546875,-0.276763916015625,-0.199798583984375,0.06103515625,-0.42724609375,-0.30517578125,0.6343994140625,-0.6004638671875,0.48388671875,-200.0,270.0,4.0,102285.0,-7.966000556945801,0,0
20.884993,0.83856201171875,-0.424560546875,-0.2767333984375,-0.199798583984375,0.06103515625,-0.1220703125,-0.244140625,0.6307373046875,-0.60107421875,0.4849853515625,-200.0,270.0,4.0,102285.0,-7.966000556945801,0,0
20.889993,0.83856201171875,-0.424560546875,-0.276763916015625,-0.199798583984375,0.18310546875,0.06103515625,-0.18310546875,0.6343994140625,-0.6011962890625,0.48388671875,-200.0,270.0,4.0,102285.0,-7.966000556945801,0,0
20.894994,0.83856201171875,-0.424560546875,-0.276763916015625,-0.199798583984375,0.18310546875,0.1220703125,-0.18310546875,0.6358642578125,-0.603759765625,0.4873046875,-200.0,270.0,4.0,102285.0,-7.966000556945801,0,0
20.899995,0.83856201171875,-0.424560546875,-0.2767333984375,-0.199798583984375,0.18310546875,-0.06103515625,-0.18310546875,0.6339111328125,-0.6024169921875,0.4874267578125,-200.0,270.0,4.0,102285.0,-7.966000556945801,0,0
20.904996,0.83856201171875,-0.424560546875,-0.276763916015625,-0.199798583984375,0.06103515625,-0.30517578125,-0.18310546875,0.63525390625,-0.6009521484375,0.4879150390625,-200.0,270.0,4.0,102285.0,-7.966000556945801,0,0
20.909993,0.83856201171875,-0.424560546875,-0.276763916015625,-0.199798583984375,0.06103515625,-0.30517578125,-0.18310546875,0.63525390625,-0.6009521484375,0.4879150390625,-200.0,270.0,4.0,102285.0,-7.966000556945801,0,0
20.914993,0.83856201171875,-0.424560546875,-0.276763916015625,-0.199798583984375,0.0,-0.18310546875,-0.18310546875,0.634765625,-0.600830078125,0.4853515625,-200.0,270.0,4.0,102285.0,-7.966000556945801,0,0
20.919994,0.83856201171875,-0.424560546875,-0.276763916015625,-0.199798583984375,0.06103515625,-0.18310546875,0.18310546875,0.6358642578125,-0.6024169921875,0.4852294921875,-200.0,270.0,4.0,102285.0,-7.966000556945801,0,0
20.924996,0.83856201171875,-0.424560546875,-0.276763916015625,-0.199798583984375,0.1220703125,-0.06103515625,0.1220703125,0.6351318359375,-0.60107421875,0.484375,-200.0,270.0,4.0,102285.0,-7.966000556945801,0,0
20.929993,0.83856201171875,-0.424560546875,-0.276763916015625,-0.199798583984375,0.18310546875,-0.1220703125,-0.1220703125,0.633056640625,-0.6005859375,0.4862060546875,-200.0,270.0,4.0,102285.0,-7.966000556945801,0,0
20.934993,0.83856201171875,-0.424560546875,-0.276763916015625,-0.199798583984375,-0.30517578125,0.0,-0.06103515625,0.6317138671875,-0.6009521484375,0.485595703125,-200.0,270.0,4.0,102285.0,-7.966000556945801,0,0
20.939021,0.83856201171875,-0.424560546875,-0.276763916015625,-0.199798583984375,-0.30517578125,0.0,-0.06103515625,0.6317138671875,-0.6009521484375,0.485595703125,-200.0,270.0,4.0,102285.0,-7.966000556945801,0,0
20.943993,0.83856201171875,-0.424560546875,-0.276763916015625,-0.199798583984375,0.06103515625,-0.18310546875,-0.30517578125,0.6353759765625,-0.6029052734375,0.48681640625,-200.0,270.0,4.0,102285.0,-7.966000556945801,0,0
20.948994,0.83856201171875,-0.424560546875,-0.2767333984375,-0.199798583984375,0.48828125,-0.18310546875,0.1220703125,0.635986328125,-0.6031494140625,0.48828125,-200.0,270.0,4.0,102285.0,-7.966000556945801,0,0
20.953995,0.83856201171875,-0.424530029296875,-0.2767333984375,-0.199798583984375,-0.1220703125,-0.3662109375,-0.18310546875,0.6339111328125,-0.6029052734375,0.4898681640625,-200.0,270.0,4.0,102285.0,-7.966000556945801,0,0
20.958996,0.83856201171875,-0.424530029296875,-0.2767333984375,-0.199798583984375,0.18310546875,-0.18310546875,-0.18310546875,0.63427734375,-0.6014404296875,0.4881591796875,-200.0,271.0,4.0,102285.0,-7.969000339508057,0,0
20.963993,0.83856201171875,-0.424530029296875,-0.2767333984375,-0.199798583984375,-0.06103515625,0.1220703125,-0.30517578125,0.634033203125,-0.6019287109375,0.4866943359375,-200.0,271.0,4.0,102285.0,-7.969000339508057,0,0
20.968994,0.838592529296875,-0.42449951171875,-0.27679443359375,-0.199676513671875,0.0,-0.1220703125,-0.244140625,0.63427734375,-0.6002197265625,0.4853515625,-200.0,271.0,4.0,102285.0,-7.969000339508057,0,0
20.973994,0.838592529296875,-0.42449951171875,-0.276824951171875,-0.199676513671875,0.30517578125,-0.18310546875,-0.06103515625,0.635498046875,-0.598388671875,0.4837646484375,-200.0,271.0,4.0,102285.0,-7.969000339508057,0,0
20.978997,0.838592529296875,-0.42449951171875,-0.276824951171875,-0.199676513671875,0.0,-0.06103515625,0.06103515625,0.6312255859375,-0.5977783203125,0.48681640625,-200.0,271.0,4.0,102285.0,-7.969000339508057,0,0
20.983994,0.838592529296875,-0.42449951171875,-0.276824951171875,-0.199676513671875,0.244140625,-0.18310546875,-0.1220703125,0.632080078125,-0.6011962890625,0.4854736328125,-200.0,271.0,4.0,102285.0,-7.969000339508057,0,0
20.988994,0.838592529296875,-0.42449951171875,-0.276824951171875,-0.199676513671875,-0.06103515625,-0.1220703125,-0.1220703125,0.6361083984375,-0.6053466796875,0.4871826171875,-200.0,271.0,4.0,102285.0,-7.969000339508057,0,0
21.003997,0.838592529296875,-0.42449951171875,-0.27679443359375,-0.199676513671875,0.244140625,-0.30517578125,-0.48828125,0.63134765625,-0.6011962890625,0.486572265625,-200.0,271.0,4.0,102285.0,-7.969000339508057,0,0
21.008024,0.838592529296875,-0.42449951171875,-0.27679443359375,-0.199676513671875,0.244140625,-0.30517578125,-0.48828125,0.63134765625,-0.6011962890625,0.486572265625,-200.0,271.0,4.0,102285.0,-7.969000339508057,0,0
21.012996,0.838592529296875,-0.42449951171875,-0.276824951171875,-0.199676513671875,-0.06103515625,0.0,-0.18310546875,0.6351318359375,-0.5994873046875,0.486328125,-200.0,271.0,4.0,102285.0,-7.969000339508057,0,0
21.017994,0.838592529296875,-0.42449951171875,-0.27679443359375,-0.199676513671875,-0.1220703125,0.06103515625,-0.06103515625,0.633056640625,-0.599853515625,0.4874267578125,-200.0,271.0,4.0,102285.0,-7.969000339508057,0,0
21.022994,0.838592529296875,-0.42449951171875,-0.27679443359375,-0.199676513671875,-0.1220703125,0.0,-0.18310546875,0.6318359375,-0.6009521484375,0.4864501953125,-200.0,271.0,4.0,102285.0,-7.969000339508057,0,0
21.027994,0.838592529296875,-0.42449951171875,-0.27679443359375,-0.199676513671875,0.30517578125,0.06103515625,-0.244140625,0.634765625,-0.6014404296875,0.485595703125,-200.0,271.0,4.0,102285.0,-7.969000339508057,0,0
21.032997,0.838592529296875,-0.42449951171875,-0.27679443359375,-0.199676513671875,0.18310546875,-0.1220703125,-0.1220703125,0.6341552734375,-0.6036376953125,0.4862060546875,-200.0,271.0,4.0,102285.0,-7.969000339508057,0,0
21.037993,0.838592529296875,-0.42449951171875,-0.27679443359375,-0.199676513671875,0.18310546875,-0.1220703125,-0.3662109375,0.633544921875,-0.6016845703125,0.4853515625,-200.0,271.0,4.0,102285.0,-7.969000339508057,0,0
21.042993,0.838592529296875,-0.42449951171875,-0.27679443359375,-0.199676513671875,0.1220703125,-0.244140625,-0.244140625,0.6317138671875,-0.6026611328125,0.48779296875,-200.0,271.0,4.0,102285.0,-7.969000339508057,0,0
21.047994,0.838592529296875,-0.42449951171875,-0.27679443359375,-0.199676513671875,0.06103515625,-0.18310546875,-0.54931640625,0.633056640625,-0.6007080078125,0.485595703125,-200.0,271.0,4.0,102285.0,-7.969000339508057,0,0
21.052995,0.838592529296875,-0.42449951171875,-0.27679443359375,-0.199676513671875,0.18310546875,-0.3662109375,-0.06103515625,0.632080078125,-0.5997314453125,0.48486328125,-200.0,271.0,4.0,102285.0,-7.969000339508057,0,0
21.062993,0.838592529296875,-0.42449951171875,-0.27679443359375,-0.199676513671875,-0.18310546875,-0.06103515625,-0.1220703125,0.634521484375,-0.6031494140625,0.486328125,-200.0,270.0,5.0,102285.0,-7.968000411987305,0,0
21.067993,0.838592529296875,-0.424530029296875,-0.2767333984375,-0.199798583984375,-0.3662109375,-0.06103515625,0.06103515625,0.6341552734375,-0.6016845703125,0.4866943359375,-200.0,270.0,5.0,102285.0,-7.968000411987305,0,0
21.072022,0.838592529296875,-0.424530029296875,-0.2767333984375,-0.199798583984375,-0.3662109375,-0.06103515625,0.06103515625,0.6341552734375,-0.6016845703125,0.4866943359375,-200.0,270.0,5.0,102285.0,-7.968000411987305,0,0
21.076993,0.83856201171875,-0.424530029296875,-0.2767333984375,-0.199798583984375,0.06103515625,-0.18310546875,-0.30517578125,0.6343994140625,-0.60107421875,0.48681640625,-200.0,270.0,5.0,102285.0,-7.968000411987305,0,0
21.081994,0.83856201171875,-0.424530029296875,-0.2767333984375,-0.199798583984375,0.06103515625,-0.1220703125,-0.3662109375,0.634033203125,-0.6021728515625,0.4842529296875,-200.0,270.0,5.0,102285.0,-7.968000411987305,0,0
21.086996,0.83856201171875,-0.424560546875,-0.2767333984375,-0.199798583984375,-0.06103515625,0.0,-0.244140625,0.634765625,-0.6011962890625,0.484375,-200.0,270.0,5.0,102285.0,-7.968000411987305,0,0
21.091993,0.83856201171875,-0.424560546875,-0.2767333984375,-0.199798583984375,0.30517578125,-0.06103515625,0.0,0.634521484375,-0.6011962890625,0.48583984375,-200.0,270.0,5.0,102285.0,-7.968000411987305,0,0
21.096993,0.83856201171875,-0.424560546875,-0.276763916015625,-0.199798583984375,0.18310546875,-0.42724609375,-0.30517578125,0.634033203125,-0.6033935546875,0.486328125,-200.0,270.0,5.0,102285.0,-7.968000411987305,0,0
21.101994,0.83856201171875,-0.424560546875,-0.276763916015625,-0.199798583984375,-0.18310546875,-0.06103515625,0.0,0.6353759765625,-0.600830078125,0.4876708984375,-200.0,270.0,5.0,102285.0,-7.968000411987305,0,0
21.106995,0.83856201171875,-0.424530029296875,-0.276763916015625,-0.199798583984375,0.18310546875,-0.18310546875,-0.18310546875,0.634033203125,-0.6014404296875,0.487060546875,-200.0,270.0,5.0,102285.0,-7.968000411987305,0,0
21.111992,0.83856201171875,-0.424560546875,-0.2767333984375,-0.199798583984375,0.18310546875,0.06103515625,-0.18310546875,0.63232421875,-0.6021728515625,0.4862060546875,-200.0,270.0,5.0,102285.0,-7.968000411987305,0,0
21.116993,0.83856201171875,-0.424530029296875,-0.276763916015625,-0.199798583984375,0.1220703125,-0.06103515625,0.0,0.633544921875,-0.6004638671875,0.4864501953125,-200.0,270.0,5.0,102285.0,-7.968000411987305,0,0
21.121993,0.83856201171875,-0.424530029296875,-0.2767333984375,-0.199798583984375,0.18310546875,0.1220703125,-0.244140625,0.633056640625,-0.601806640625,0.4874267578125,-200.0,270.0,5.0,102285.0,-7.968000411987305,0,0
21.126994,0.83856201171875,-0.424530029296875,-0.276763916015625,-0.199798583984375,0.06103515625,-0.244140625,-0.30517578125,0.63525390625,-0.5987548828125,0.486083984375,-200.0,270.0,5.0,102285.0,-7.968000411987305,0,0
21.131996,0.83856201171875,-0.424530029296875,-0.276763916015625,-0.199798583984375,0.0,-0.1220703125,-0.18310546875,0.6348876953125,-0.6009521484375,0.4876708984375,-200.0,270.0,5.0,102285.0,-7.968000411987305,0,0
21.136993,0.83856201171875,-0.424530029296875,-0.276763916015625,-0.199798583984375,0.0,-0.06103515625,-0.3662109375,0.6322021484375,-0.60107421875,0.488037109375,-200.0,270.0,5.0,102285.0,-7.968000411987305,0,0
21.141021,0.83856201171875,-0.424530029296875,-0.276763916015625,-0.199798583984375,0.0,-0.06103515625,-0.3662109375,0.6322021484375,-0.60107421875,0.488037109375,-200.0,270.0,5.0,102285.0,-7.968000411987305,0,0
21.145993,0.83856201171875,-0.424530029296875,-0.276763916015625,-0.199798583984375,-0.06103515625,0.06103515625,-0.18310546875,0.6337890625,-0.6014404296875,0.4869384765625,-200.0,270.0,5.0,102285.0,-7.968000411987305,0,0
21.150993,0.83856201171875,-0.424530029296875,-0.276763916015625,-0.199798583984375,0.30517578125,-0.1220703125,-0.244140625,0.6343994140625,-0.6015625,0.4869384765625,-200.0,270.0,5.0,102285.0,-7.968000411987305,0,0
21.155994,0.83856201171875,-0.424530029296875,-0.276763916015625,-0.1998291015625,-0.06103515625,0.0,0.06103515625,0.6341552734375,-0.5994873046875,0.4859619140625,-200.0,270.0,5.0,102285.0,-7.968000411987305,0,0
21.160995,0.83856201171875,-0.424530029296875,-0.276763916015625,-0.199798583984375,-0.06103515625,0.0,0.06103515625,0.6341552734375,-0.5994873046875,0.4859619140625,-200.0,270.0,4.0,102285.0,-7.969000339508057,0,0
21.165992,0.838592529296875,-0.42449951171875,-0.27679443359375,-0.199676513671875,0.244140625,-0.1220703125,0.06103515625,0.6324462890625,-0.6021728515625,0.487060546875,-200.0,270.0,4.0,102285.0,-7.969000339508057,0,0
21.170993,0.838623046875,-0.424468994140625,-0.27679443359375,-0.199676513671875,-0.18310546875,0.06103515625,-0.1220703125,0.6314697265625,-0.60205078125,0.486328125,-200.0,270.0,4.0,102285.0,-7.969000339508057,0,0
21.175993,0.838623046875,-0.424468994140625,-0.27679443359375,-0.199676513671875,0.244140625,-0.244140625,-0.244140625,0.635009765625,-0.601806640625,0.4873046875,-200.0,270.0,4.0,102285.0,-7.969000339508057,0,0
21.190994,0.838623046875,-0.424468994140625,-0.27679443359375,-0.19970703125,-0.06103515625,-0.1220703125,-0.18310546875,0.6339111328125,-0.600341796875,0.4866943359375,-200.0,270.0,4.0,102285.0,-7.969000339508057,0,0
21.195994,0.838623046875,-0.424468994140625,-0.27679443359375,-0.19970703125,-0.06103515625,-0.1220703125,-0.18310546875,0.6348876953125,-0.60107421875,0.486328125,-200.0,270.0,4.0,102285.0,-7.969000339508057,0,0
21.200995,0.838623046875,-0.424468994140625,-0.27679443359375,-0.19970703125,0.1220703125,0.0,-0.30517578125,0.63427734375,-0.602294921875,0.4866943359375,-200.0,270.0,4.0,102285.0,-7.969000339508057,0,0
21.205025,0.838623046875,-0.424468994140625,-0.27679443359375,-0.19970703125,0.1220703125,0.0,-0.30517578125,0.63427734375,-0.602294921875,0.4866943359375,-200.0,270.0,4.0,102285.0,-7.969000339508057,0,0
21.209995,0.838623046875,-0.424468994140625,-0.27679443359375,-0.19970703125,0.244140625,-0.18310546875,-0.1220703125,0.63427734375,-0.6036376953125,0.4864501953125,-200.0,270.0,4.0,102285.0,-7.969000339508057,0,0
21.214997,0.838623046875,-0.424468994140625,-0.27679443359375,-0.19970703125,0.0,-0.18310546875,-0.18310546875,0.634765625,-0.601318359375,0.488525390625,-200.0,270.0,4.0,102285.0,-7.969000339508057,0,0
21.219997,0.838623046875,-0.424468994140625,-0.27679443359375,-0.19970703125,0.30517578125,0.06103515625,-0.18310546875,0.63427734375,-0.60107421875,0.4871826171875,-200.0,270.0,4.0,102285.0,-7.969000339508057,0,0
21.224994,0.838623046875,-0.424468994140625,-0.276824951171875,-0.19970703125,0.0,-0.1220703125,-0.42724609375,0.6356201171875,-0.601806640625,0.486328125,-200.0,270.0,4.0,102285.0,-7.969000339508057,0,0
21.229994,0.838623046875,-0.424468994140625,-0.276824951171875,-0.19970703125,0.0,-0.244140625,-0.30517578125,0.633544921875,-0.5997314453125,0.486083984375,-200.0,270.0,4.0,102285.0,-7.969000339508057,0,0
21.234994,0.838623046875,-0.4244384765625,-0.276824951171875,-0.19970703125,0.06103515625,-0.06103515625,-0.1220703125,0.6328125,-0.598876953125,0.487060546875,-200.0,270.0,4.0,102285.0,-7.969000339508057,0,0
21.249993,0.838623046875,-0.4244384765625,-0.27679443359375,-0.19970703125,0.0,-0.1220703125,0.1220703125,0.634765625,-0.6026611328125,0.4874267578125,-200.0,270.0,4.0,102285.0,-7.969000339508057,0,0
21.254994,0.838623046875,-0.424468994140625,-0.27679443359375,-0.19970703125,0.244140625,-0.1220703125,-0.244140625,0.6331787109375,-0.603271484375,0.488525390625,-200.0,270.0,4.0,102285.0,-7.969000339508057,0,0
21.259995,0.838623046875,-0.424468994140625,-0.27679443359375,-0.19970703125,0.244140625,-0.1220703125,-0.244140625,0.6331787109375,-0.603271484375,0.488525390625,-199.0,270.0,4.0,102285.0,-7.966000556945801,0,0
21.264996,0.838623046875,-0.4244384765625,-0.27679443359375,-0.19970703125,-0.06103515625,-0.06103515625,-0.30517578125,0.63427734375,-0.6011962890625,0.48681640625,-199.0,270.0,4.0,102285.0,-7.966000556945801,0,0
21.269993,0.83868408203125,-0.42437744140625,-0.27691650390625,-0.199462890625,-0.244140625,-0.3662109375,-0.1220703125,0.6343994140625,-0.6009521484375,0.486572265625,-199.0,270.0,4.0,102285.0,-7.966000556945801,0,0
21.274021,0.83868408203125,-0.42437744140625,-0.27691650390625,-0.199462890625,-0.244140625,-0.3662109375,-0.1220703125,0.6343994140625,-0.6009521484375,0.486572265625,-199.0,270.0,4.0,102285.0,-7.966000556945801,0,0
21.278993,0.83868408203125,-0.42437744140625,-0.276947021484375,-0.199462890625,0.0,0.06103515625,-0.30517578125,0.6351318359375,-0.60009765625,0.48486328125,-199.0,270.0,4.0,102285.0,-7.966000556945801,0,0
21.283993,0.83868408203125,-0.42437744140625,-0.276947021484375,-0.199462890625,0.1220703125,-0.1220703125,-0.06103515625,0.6346435546875,-0.600830078125,0.48583984375,-199.0,270.0,4.0,102285.0,-7.966000556945801,0,0
21.288994,0.83868408203125,-0.42437744140625,-0.276947021484375,-0.199462890625,0.1220703125,0.06103515625,-0.1220703125,0.6346435546875,-0.6014404296875,0.4853515625,-199.0,270.0,4.0,102285.0,-7.966000556945801,0,0
21.293996,0.83868408203125,-0.42437744140625,-0.27691650390625,-0.199462890625,-0.18310546875,-0.18310546875,0.0,0.6328125,-0.602783203125,0.4871826171875,-199.0,270.0,4.0,102285.0,-7.966000556945801,0,0
21.298993,0.83868408203125,-0.42437744140625,-0.27691650390625,-0.199462890625,-0.06103515625,0.0,-0.1220703125,0.6331787109375,-0.6029052734375,0.4884033203125,-199.0,270.0,4.0,102285.0,-7.966000556945801,0,0
21.303993,0.83868408203125,-0.42437744140625,-0.276947021484375,-0.199462890625,0.0,-0.30517578125,-0.18310546875,0.6346435546875,-0.6019287109375,0.486083984375,-199.0,270.0,4.0,102285.0,-7.966000556945801,0,0
21.308994,0.83868408203125,-0.42437744140625,-0.276947021484375,-0.199462890625,-0.06103515625,-0.1220703125,-0.3662109375,0.6361083984375,-0.6011962890625,0.48779296875,-199.0,270.0,4.0,102285.0,-7.966000556945801,0,0
21.313995,0.83868408203125,-0.42437744140625,-0.276947021484375,-0.199462890625,0.18310546875,-0.244140625,-0.244140625,0.6346435546875,-0.6014404296875,0.486083984375,-199.0,270.0,4.0,102285.0,-7.966000556945801,0,0
21.318996,0.83868408203125,-0.424346923828125,-0.276947021484375,-0.199462890625,0.18310546875,-0.18310546875,-0.30517578125,0.6329345703125,-0.6002197265625,0.4847412109375,-199.0,270.0,4.0,102285.0,-7.966000556945801,0,0
21.323993,0.83868408203125,-0.424346923828125,-0.276947021484375,-0.199462890625,0.1220703125,-0.06103515625,0.06103515625,0.6334228515625,-0.5992431640625,0.48828125,-199.0,270.0,4.0,102285.0,-7.966000556945801,0,0
21.328993,0.83868408203125,-0.424346923828125,-0.276947021484375,-0.199462890625,0.06103515625,0.06103515625,0.1220703125,0.635498046875,-0.601318359375,0.4888916015625,-199.0,270.0,4.0,102285.0,-7.966000556945801,0,0
21.333994,0.83868408203125,-0.424346923828125,-0.276947021484375,-0.199462890625,0.244140625,-0.18310546875,0.18310546875,0.6336669921875,-0.6038818359375,0.487548828125,-199.0,270.0,4.0,102285.0,-7.966000556945801,0,0
21.338025,0.83868408203125,-0.424346923828125,-0.276947021484375,-0.199462890625,0.244140625,-0.18310546875,0.18310546875,0.6336669921875,-0.6038818359375,0.487548828125,-199.0,270.0,4.0,102285.0,-7.966000556945801,0,0
21.342994,0.83868408203125,-0.424346923828125,-0.27691650390625,-0.199462890625,0.1220703125,-0.244140625,-0.1220703125,0.6336669921875,-0.6026611328125,0.4892578125,-199.0,270.0,4.0,102285.0,-7.966000556945801,0,0
21.347996,0.83868408203125,-0.424346923828125,-0.276947021484375,-0.199462890625,-0.1220703125,-0.1220703125,-0.30517578125,0.6339111328125,-0.59814453125,0.486083984375,-199.0,270.0,4.0,102285.0,-7.966000556945801,0,0
21.352993,0.83868408203125,-0.424346923828125,-0.27691650390625,-0.199462890625,0.0,-0.1220703125,-0.18310546875,0.6318359375,-0.601806640625,0.4869384765625,-199.0,270.0,4.0,102285.0,-7.966000556945801,0,0
21.357993,0.83868408203125,-0.424346923828125,-0.27691650390625,-0.199462890625,0.06103515625,-0.06103515625,-0.1220703125,0.634033203125,-0.601318359375,0.4857177734375,-199.0,270.0,4.0,102285.0,-7.969000339508057,0,0
21.372993,0.838714599609375,-0.42431640625,-0.2769775390625,-0.1993408203125,0.18310546875,0.0,-0.06103515625,0.6351318359375,-0.603271484375,0.4862060546875,-198.0,269.0,5.0,102285.0,-7.969000339508057,0,0
21.377993,0.838714599609375,-0.42431640625,-0.2769775390625,-0.1993408203125,0.18310546875,0.0,-0.18310546875,0.6343994140625,-0.603271484375,0.4871826171875,-198.0,269.0,5.0,102285.0,-7.969000339508057,0,0
21.382993,0.838714599609375,-0.42431640625,-0.2769775390625,-0.1993408203125,-0.06103515625,-0.06103515625,-0.244140625,0.6343994140625,-0.6024169921875,0.4862060546875,-198.0,269.0,5.0,102285.0,-7.969000339508057,0,0
21.387994,0.838714599609375,-0.42431640625,-0.2769775390625,-0.1993408203125,0.244140625,0.0,-0.30517578125,0.6324462890625,-0.6014404296875,0.486572265625,-198.0,269.0,5.0,102285.0,-7.969000339508057,0,0
21.392996,0.838714599609375,-0.42431640625,-0.2769775390625,-0.1993408203125,-0.06103515625,-0.06103515625,-0.30517578125,0.6341552734375,-0.6007080078125,0.4853515625,-198.0,269.0,5.0,102285.0,-7.969000339508057,0,0
21.397994,0.838714599609375,-0.42431640625,-0.2769775390625,-0.1993408203125,-0.06103515625,0.0,-0.1220703125,0.6314697265625,-0.5986328125,0.4866943359375,-198.0,269.0,5.0,102285.0,-7.969000339508057,0,0
21.402024,0.838714599609375,-0.42431640625,-0.2769775390625,-0.1993408203125,-0.06103515625,0.0,-0.1220703125,0.6314697265625,-0.5986328125,0.4866943359375,-198.0,269.0,5.0,102285.0,-7.969000339508057,0,0
21.406998,0.838714599609375,-0.42431640625,-0.2769775390625,-0.1993408203125,0.06103515625,-0.244140625,-0.06103515625,0.634521484375,-0.5999755859375,0.4859619140625,-198.0,269.0,5.0,102285.0,-7.969000339508057,0,0
21.411994,0.838714599609375,-0.42431640625,-0.2769775390625,-0.1993408203125,0.06103515625,0.0,-0.30517578125,0.635009765625,-0.601318359375,0.4874267578125,-198.0,269.0,5.0,102285.0,-7.969000339508057,0,0
21.416995,0.838714599609375,-0.42431640625,-0.2769775390625,-0.1993408203125,-0.1220703125,-0.18310546875,-0.1220703125,0.633544921875,-0.604736328125,0.486572265625,-198.0,269.0,5.0,102285.0,-7.969000339508057,0,0
21.421997,0.838714599609375,-0.42431640625,-0.2769775390625,-0.1993408203125,0.1220703125,-0.1220703125,-0.18310546875,0.6339111328125,-0.6025390625,0.4862060546875,-198.0,269.0,5.0,102285.0,-7.969000339508057,0,0
21.436994,0.838714599609375,-0.42431640625,-0.2769775390625,-0.1993408203125,0.3662109375,-0.18310546875,-0.18310546875,0.631103515625,-0.5997314453125,0.48681640625,-198.0,269.0,5.0,102285.0,-7.969000339508057,0,0
21.441994,0.838714599609375,-0.42431640625,-0.2769775390625,-0.1993408203125,0.42724609375,-0.1220703125,-0.06103515625,0.633544921875,-0.6014404296875,0.4864501953125,-198.0,269.0,5.0,102285.0,-7.969000339508057,0,0
21.446997,0.838714599609375,-0.42431640625,-0.2769775390625,-0.1993408203125,0.244140625,-0.30517578125,0.1220703125,0.635498046875,-0.600341796875,0.4849853515625,-198.0,269.0,5.0,102285.0,-7.969000339508057,0,0
21.451994,0.838714599609375,-0.42431640625,-0.2769775390625,-0.1993408203125,0.06103515625,-0.06103515625,-0.18310546875,0.6324462890625,-0.5999755859375,0.487060546875,-198.0,269.0,5.0,102285.0,-7.969000339508057,0,0
21.456994,0.838714599609375,-0.42431640625,-0.2769775390625,-0.1993408203125,-0.244140625,-0.18310546875,-0.06103515625,0.6328125,-0.6024169921875,0.487060546875,-198.0,269.0,5.0,102285.0,-7.969000339508057,0,0
21.461994,0.838714599609375,-0.42431640625,-0.2769775390625,-0.1993408203125,-0.244140625,-0.18310546875,-0.06103515625,0.6328125,-0.6024169921875,0.487060546875,-198.0,270.0,5.0,102285.0,-7.967000484466553,0,0
21.466995,0.8387451171875,-0.424285888671875,-0.27703857421875,-0.19921875,0.1220703125,0.0,-0.3662109375,0.6339111328125,-0.601318359375,0.486572265625,-198.0,270.0,5.0,102285.0,-7.967000484466553,0,0
21.47102,0.8387451171875,-0.424285888671875,-0.27703857421875,-0.19921875,0.1220703125,0.0,-0.3662109375,0.6339111328125,-0.601318359375,0.486572265625,-198.0,270.0,5.0,102285.0,-7.967000484466553,0,0
21.475995,0.8387451171875,-0.42425537109375,-0.277008056640625,-0.19921875,0.18310546875,-0.30517578125,-0.18310546875,0.6339111328125,-0.601806640625,0.4881591796875,-198.0,270.0,5.0,102285.0,-7.967000484466553,0,0
21.480996,0.8387451171875,-0.42425537109375,-0.27703857421875,-0.19921875,-0.06103515625,-0.1220703125,-0.3662109375,0.635009765625,-0.6007080078125,0.487548828125,-198.0,270.0,5.0,102285.0,-7.967000484466553,0,0
21.485993,0.8387451171875,-0.42425537109375,-0.27703857421875,-0.19921875,0.18310546875,-0.06103515625,-0.244140625,0.6348876953125,-0.5992431640625,0.486572265625,-198.0,270.0,5.0,102285.0,-7.967000484466553,0,0
21.490993,0.8387451171875,-0.42425537109375,-0.27703857421875,-0.19921875,0.1220703125,0.18310546875,-0.06103515625,0.6351318359375,-0.5994873046875,0.48681640625,-198.0,270.0,5.0,102285.0,-7.967000484466553,0,0
21.495994,0.8387451171875,-0.42425537109375,-0.27703857421875,-0.19921875,-0.06103515625,0.0,-0.244140625,0.6336669921875,-0.601806640625,0.487548828125,-198.0,270.0,5.0,102285.0,-7.967000484466553,0,0
21.500996,0.8387451171875,-0.42425537109375,-0.27703857421875,-0.19921875,0.0,-0.18310546875,0.06103515625,0.6331787109375,-0.6021728515625,0.487548828125,-198.0,270.0,5.0,102285.0,-7.967000484466553,0,0
21.505993,0.8387451171875,-0.42425537109375,-0.27703857421875,-0.19921875,0.06103515625,0.06103515625,-0.06103515625,0.635009765625,-0.602783203125,0.48681640625,-198.0,270.0,5.0,102285.0,-7.967000484466553,0,0
21.510993,0.838775634765625,-0.42425537109375,-0.27703857421875,-0.19921875,0.06103515625,0.06103515625,-0.06103515625,0.635009765625,-0.602783203125,0.48681640625,-198.0,270.0,5.0,102285.0,-7.967000484466553,0,0
21.515994,0.838775634765625,-0.42425537109375,-0.277008056640625,-0.19921875,0.18310546875,-0.18310546875,-0.42724609375,0.631591796875,-0.6011962890625,0.486083984375,-198.0,270.0,5.0,102285.0,-7.967000484466553,0,0
21.520995,0.838775634765625,-0.42425537109375,-0.27703857421875,-0.19921875,0.06103515625,-0.244140625,-0.244140625,0.6351318359375,-0.600341796875,0.48681640625,-198.0,270.0,5.0,102285.0,-7.967000484466553,0,0
21.525992,0.838775634765625,-0.42425537109375,-0.27703857421875,-0.19921875,-0.1220703125,-0.18310546875,-0.244140625,0.6358642578125,-0.6016845703125,0.4866943359375,-198.0,270.0,5.0,102285.0,-7.967000484466553,0,0
21.530993,0.838775634765625,-0.42425537109375,-0.27703857421875,-0.19921875,0.06103515625,-0.42724609375,-0.18310546875,0.6353759765625,-0.600341796875,0.4884033203125,-198.0,270.0,5.0,102285.0,-7.967000484466553,0,0
21.535022,0.838775634765625,-0.42425537109375,-0.27703857421875,-0.19921875,0.06103515625,-0.42724609375,-0.18310546875,0.6353759765625,-0.600341796875,0.4884033203125,-198.0,270.0,5.0,102285.0,-7.967000484466553,0,0
21.539993,0.838775634765625,-0.42425537109375,-0.27703857421875,-0.19921875,-0.30517578125,-0.1220703125,-0.1220703125,0.6370849609375,-0.6031494140625,0.4871826171875,-198.0,270.0,5.0,102285.0,-7.967000484466553,0,0
21.544993,0.8387451171875,-0.42425537109375,-0.27703857421875,-0.19921875,0.244140625,0.0,-0.1220703125,0.6336669921875,-0.6014404296875,0.48779296875,-198.0,270.0,5.0,102285.0,-7.967000484466553,0,0
21.559993,0.8387451171875,-0.42425537109375,-0.27703857421875,-0.19921875,0.0,-0.18310546875,-0.18310546875,0.63427734375,-0.6016845703125,0.48681640625,-196.0,268.0,4.0,102285.0,-7.968000411987305,0,0
21.564993,0.8387451171875,-0.42425537109375,-0.27703857421875,-0.19921875,0.48828125,0.0,-0.06103515625,0.6334228515625,-0.60107421875,0.4847412109375,-196.0,268.0,4.0,102285.0,-7.968000411987305,0,0
21.569994,0.83880615234375,-0.424163818359375,-0.27716064453125,-0.198974609375,0.1220703125,-0.30517578125,0.0,0.634033203125,-0.60107421875,0.4869384765625,-196.0,268.0,4.0,102285.0,-7.968000411987305,0,0
21.574995,0.83880615234375,-0.424163818359375,-0.27716064453125,-0.199005126953125,0.18310546875,-0.06103515625,-0.18310546875,0.634033203125,-0.5997314453125,0.4869384765625,-196.0,268.0,4.0,102285.0,-7.968000411987305,0,0
21.579992,0.83880615234375,-0.424163818359375,-0.277191162109375,-0.199005126953125,0.1220703125,-0.06103515625,-0.06103515625,0.6348876953125,-0.6004638671875,0.4876708984375,-196.0,268.0,4.0,102285.0,-7.968000411987305,0,0
21.584993,0.83880615234375,-0.424163818359375,-0.277191162109375,-0.199005126953125,0.0,-0.18310546875,0.1220703125,0.63525390625,-0.60009765625,0.4859619140625,-196.0,268.0,4.0,102285.0,-7.968000411987305,0,0
21.589993,0.83880615234375,-0.424163818359375,-0.277191162109375,-0.199005126953125,0.06103515625,-0.18310546875,-0.1220703125,0.635498046875,-0.6005859375,0.486572265625,-196.0,268.0,4.0,102285.0,-7.968000411987305,0,0
21.594994,0.83880615234375,-0.424163818359375,-0.27716064453125,-0.199005126953125,0.0,-0.06103515625,0.06103515625,0.6341552734375,-0.60205078125,0.488037109375,-196.0,268.0,4.0,102285.0,-7.968000411987305,0,0
21.599996,0.83880615234375,-0.424163818359375,-0.277191162109375,-0.199005126953125,-0.1220703125,-0.244140625,0.06103515625,0.6328125,-0.6016845703125,0.4852294921875,-196.0,268.0,4.0,102285.0,-7.968000411987305,0,0
21.604027,0.83880615234375,-0.424163818359375,-0.277191162109375,-0.199005126953125,-0.1220703125,-0.244140625,0.06103515625,0.6328125,-0.6016845703125,0.4852294921875,-196.0,268.0,4.0,102285.0,-7.968000411987305,0,0
21.608998,0.83880615234375,-0.424163818359375,-0.277191162109375,-0.199005126953125,0.06103515625,-0.1220703125,-0.244140625,0.6328125,-0.6002197265625,0.486083984375,-196.0,268.0,4.0,102285.0,-7.968000411987305,0,0
21.623995,0.83880615234375,-0.424163818359375,-0.27716064453125,-0.199005126953125,-0.1220703125,0.0,-0.30517578125,0.6328125,-0.60107421875,0.4874267578125,-196.0,268.0,4.0,102285.0,-7.968000411987305,0,0
21.628997,0.83880615234375,-0.424163818359375,-0.27716064453125,-0.199005126953125,0.06103515625,-0.1220703125,-0.18310546875,0.63427734375,-0.6015625,0.4881591796875,-196.0,268.0,4.0,102285.0,-7.968000411987305,0,0
21.633997,0.83880615234375,-0.424163818359375,-0.277191162109375,-0.199005126953125,0.3662109375,-0.1220703125,0.0,0.63525390625,-0.6025390625,0.4862060546875,-196.0,268.0,4.0,102285.0,-7.968000411987305,0,0
21.638994,0.83880615234375,-0.424163818359375,-0.27716064453125,-0.199005126953125,-0.06103515625,-0.06103515625,-0.1220703125,0.6329345703125,-0.60205078125,0.4862060546875,-196.0,268.0,4.0,102285.0,-7.968000411987305,0,0
21.643994,0.83880615234375,-0.424163818359375,-0.27716064453125,-0.199005126953125,0.1220703125,-0.06103515625,-0.18310546875,0.6334228515625,-0.6019287109375,0.486083984375,-196.0,268.0,4.0,102285.0,-7.968000411987305,0,0
21.648994,0.83880615234375,-0.424163818359375,-0.27716064453125,-0.199005126953125,0.3662109375,-0.1220703125,-0.06103515625,0.6353759765625,-0.6026611328125,0.4859619140625,-196.0,268.0,4.0,102285.0,-7.968000411987305,0,0
21.653997,0.83880615234375,-0.424163818359375,-0.27716064453125,-0.199005126953125,-0.06103515625,-0.1220703125,-0.06103515625,0.6343994140625,-0.6026611328125,0.486572265625,-196.0,268.0,4.0,102285.0,-7.968000411987305,0,0
21.658994,0.83880615234375,-0.424163818359375,-0.27716064453125,-0.199005126953125,0.244140625,-0.1220703125,-0.18310546875,0.634521484375,-0.6014404296875,0.48779296875,-196.0,268.0,4.0,102285.0,-7.965000152587891,0,0
21.663994,0.83880615234375,-0.424163818359375,-0.277191162109375,-0.199005126953125,-0.18310546875,-0.42724609375,0.0,0.6361083984375,-0.6007080078125,0.487060546875,-195.0,268.0,6.0,102285.0,-7.965000152587891,0,0
21.668024,0.83880615234375,-0.424163818359375,-0.277191162109375,-0.199005126953125,-0.18310546875,-0.42724609375,0.0,0.6361083984375,-0.6007080078125,0.487060546875,-195.0,268.0,6.0,102285.0,-7.965000152587891,0,0
21.672994,0.838897705078125,-0.424041748046875,-0.27734375,-0.198638916015625,0.06103515625,-0.244140625,-0.18310546875,0.630859375,-0.6007080078125,0.4876708984375,-195.0,268.0,6.0,102285.0,-7.965000152587891,0,0
21.677994,0.838897705078125,-0.424041748046875,-0.27734375,-0.198638916015625,0.0,-0.18310546875,-0.244140625,0.634033203125,-0.6036376953125,0.4852294921875,-195.0,268.0,6.0,102285.0,-7.965000152587891,0,0
21.682995,0.838897705078125,-0.424041748046875,-0.27734375,-0.198638916015625,-0.18310546875,-0.1220703125,-0.18310546875,0.6317138671875,-0.6007080078125,0.486083984375,-195.0,268.0,6.0,102285.0,-7.965000152587891,0,0
21.687992,0.838897705078125,-0.424041748046875,-0.27734375,-0.198638916015625,0.18310546875,-0.18310546875,-0.244140625,0.6346435546875,-0.600830078125,0.4866943359375,-195.0,268.0,6.0,102285.0,-7.965000152587891,0,0
21.692993,0.838897705078125,-0.424041748046875,-0.27734375,-0.198638916015625,0.0,-0.244140625,0.0,0.6343994140625,-0.6016845703125,0.4864501953125,-195.0,268.0,6.0,102285.0,-7.965000152587891,0,0
21.697993,0.838897705078125,-0.424041748046875,-0.27734375,-0.1986083984375,-0.06103515625,-0.18310546875,-0.18310546875,0.6331787109375,-0.6025390625,0.486328125,-195.0,268.0,6.0,102285.0,-7.965000152587891,0,0
21.702994,0.838897705078125,-0.424041748046875,-0.27734375,-0.1986083984375,0.18310546875,-0.1220703125,-0.30517578125,0.6361083984375,-0.6025390625,0.4881591796875,-195.0,268.0,6.0,102285.0,-7.965000152587891,0,0
21.707996,0.838897705078125,-0.424041748046875,-0.27734375,-0.1986083984375,0.06103515625,-0.18310546875,-0.3662109375,0.633544921875,-0.6021728515625,0.4853515625,-195.0,268.0,6.0,102285.0,-7.965000152587891,0,0
21.712993,0.838897705078125,-0.424041748046875,-0.27734375,-0.1986083984375,0.3662109375,-0.244140625,-0.18310546875,0.6329345703125,-0.6029052734375,0.4876708984375,-195.0,268.0,6.0,102285.0,-7.965000152587891,0,0
21.717993,0.838897705078125,-0.424041748046875,-0.27734375,-0.1986083984375,0.30517578125,0.1220703125,-0.06103515625,0.63330078125,-0.6019287109375,0.48828125,-195.0,268.0,6.0,102285.0,-7.965000152587891,0,0
21.722994,0.838897705078125,-0.424041748046875,-0.27734375,-0.1986083984375,0.30517578125,-0.18310546875,0.06103515625,0.632568359375,-0.6021728515625,0.4864501953125,-195.0,268.0,6.0,102285.0,-7.965000152587891,0,0
21.727995,0.838897705078125,-0.424041748046875,-0.277313232421875,-0.1986083984375,0.06103515625,-0.1220703125,-0.244140625,0.633056640625,-0.603515625,0.4876708984375,-195.0,268.0,6.0,102285.0,-7.965000152587891,0,0
21.732996,0.838897705078125,-0.424041748046875,-0.277313232421875,-0.1986083984375,0.0,-0.1220703125,-0.244140625,0.634521484375,-0.6014404296875,0.4857177734375,-195.0,268.0,6.0,102285.0,-7.965000152587891,0,0
21.746993,0.838897705078125,-0.424041748046875,-0.27734375,-0.1986083984375,-0.3662109375,-0.244140625,-0.30517578125,0.635009765625,-0.6002197265625,0.4873046875,-195.0,268.0,6.0,102285.0,-7.965000152587891,0,0
21.751993,0.838897705078125,-0.424041748046875,-0.27734375,-0.1986083984375,0.244140625,0.06103515625,-0.18310546875,0.632568359375,-0.601318359375,0.48779296875,-195.0,268.0,6.0,102285.0,-7.965000152587891,0,0
21.756994,0.838897705078125,-0.424041748046875,-0.27734375,-0.1986083984375,0.18310546875,-0.18310546875,-0.1220703125,0.636474609375,-0.6011962890625,0.4871826171875,-195.0,268.0,6.0,102285.0,-7.965000152587891,0,0
21.761996,0.838958740234375,-0.4239501953125,-0.2774658203125,-0.198394775390625,0.18310546875,-0.18310546875,-0.1220703125,0.636474609375,-0.6011962890625,0.4871826171875,-195.0,268.0,5.0,102285.0,-7.968000411987305,0,0
21.766993,0.838958740234375,-0.4239501953125,-0.2774658203125,-0.198394775390625,0.18310546875,-0.244140625,-0.244140625,0.6336669921875,-0.5999755859375,0.4869384765625,-195.0,268.0,5.0,102285.0,-7.968000411987305,0,0
21.771993,0.838958740234375,-0.4239501953125,-0.2774658203125,-0.198394775390625,-0.06103515625,-0.3662109375,0.06103515625,0.6328125,-0.5994873046875,0.487060546875,-195.0,268.0,5.0,102285.0,-7.968000411987305,0,0
21.776994,0.838958740234375,-0.4239501953125,-0.2774658203125,-0.198394775390625,0.244140625,-0.18310546875,-0.1220703125,0.634765625,-0.6007080078125,0.489013671875,-195.0,268.0,5.0,102285.0,-7.968000411987305,0,0
21.781995,0.8389892578125,-0.4239501953125,-0.2774658203125,-0.198394775390625,0.30517578125,0.0,-0.06103515625,0.6319580078125,-0.5992431640625,0.486572265625,-195.0,268.0,5.0,102285.0,-7.968000411987305,0,0
21.786993,0.838958740234375,-0.4239501953125,-0.2774658203125,-0.198394775390625,0.244140625,-0.244140625,-0.18310546875,0.635498046875,-0.6025390625,0.487060546875,-195.0,268.0,5.0,102285.0,-7.968000411987305,0,0
21.791993,0.838958740234375,-0.4239501953125,-0.2774658203125,-0.198394775390625,0.0,0.06103515625,-0.06103515625,0.63427734375,-0.6025390625,0.485595703125,-195.0,268.0,5.0,102285.0,-7.968000411987305,0,0
21.796993,0.8389892578125,-0.4239501953125,-0.277435302734375,-0.1983642578125,0.1220703125,-0.1220703125,-0.1220703125,0.6314697265625,-0.60205078125,0.486083984375,-195.0,268.0,5.0,102285.0,-7.968000411987305,0,0
21.810994,0.8389892578125,-0.4239501953125,-0.277435302734375,-0.1983642578125,-0.1220703125,0.06103515625,-0.1220703125,0.634033203125,-0.6016845703125,0.4857177734375,-195.0,268.0,5.0,102285.0,-7.968000411987305,0,0
21.815996,0.8389892578125,-0.4239501953125,-0.277435302734375,-0.1983642578125,-0.1220703125,-0.06103515625,-0.18310546875,0.6341552734375,-0.601318359375,0.4866943359375,-195.0,268.0,5.0,102285.0,-7.968000411987305,0,0
21.820994,0.8389892578125,-0.4239501953125,-0.277435302734375,-0.1983642578125,0.06103515625,-0.06103515625,-0.244140625,0.6329345703125,-0.6016845703125,0.48681640625,-195.0,268.0,5.0,102285.0,-7.968000411987305,0,0
21.825994,0.8389892578125,-0.4239501953125,-0.277435302734375,-0.1983642578125,0.30517578125,-0.06103515625,-0.1220703125,0.6326904296875,-0.5999755859375,0.4871826171875,-195.0,268.0,5.0,102285.0,-7.968000411987305,0,0
21.830995,0.8389892578125,-0.4239501953125,-0.277435302734375,-0.1983642578125,-0.06103515625,-0.1220703125,-0.1220703125,0.6343994140625,-0.6005859375,0.4876708984375,-195.0,268.0,5.0,102285.0,-7.968000411987305,0,0
21.835997,0.8389892578125,-0.4239501953125,-0.277435302734375,-0.198394775390625,0.06103515625,-0.1220703125,-0.244140625,0.633056640625,-0.600341796875,0.4886474609375,-195.0,268.0,5.0,102285.0,-7.968000411987305,0,0
21.840997,0.8389892578125,-0.4239501953125,-0.277435302734375,-0.198394775390625,0.06103515625,-0.18310546875,-0.18310546875,0.6336669921875,-0.600830078125,0.48779296875,-195.0,268.0,5.0,102285.0,-7.968000411987305,0,0
21.845994,0.8389892578125,-0.4239501953125,-0.277435302734375,-0.1983642578125,0.06103515625,-0.42724609375,-0.06103515625,0.6329345703125,-0.6004638671875,0.4866943359375,-195.0,268.0,5.0,102285.0,-7.968000411987305,0,0
21.850994,0.8389892578125,-0.4239501953125,-0.277435302734375,-0.1983642578125,0.30517578125,0.0,-0.244140625,0.633544921875,-0.60302734375,0.4879150390625,-195.0,268.0,5.0,102285.0,-7.968000411987305,0,0
21.855994,0.8389892578125,-0.4239501953125,-0.277435302734375,-0.198394775390625,0.18310546875,-0.1220703125,0.0,0.635009765625,-0.6011962890625,0.4864501953125,-195.0,268.0,5.0,102285.0,-7.968000411987305,0,0
21.860996,0.8389892578125,-0.4239501953125,-0.277435302734375,-0.198394775390625,-0.06103515625,0.0,-0.18310546875,0.636962890625,-0.6019287109375,0.4873046875,-194.0,269.0,5.0,102285.0,-7.968000411987305,0,0
21.865994,0.839080810546875,-0.423828125,-0.277618408203125,-0.198028564453125,0.42724609375,-0.06103515625,-0.244140625,0.6328125,-0.601806640625,0.48779296875,-194.0,269.0,5.0,102285.0,-7.968000411987305,0,0
21.870024,0.839080810546875,-0.423828125,-0.277618408203125,-0.198028564453125,0.42724609375,-0.06103515625,-0.244140625,0.6328125,-0.601806640625,0.48779296875,-194.0,269.0,5.0,102285.0,-7.968000411987305,0,0
21.874995,0.839080810546875,-0.423828125,-0.277618408203125,-0.198028564453125,-0.06103515625,0.0,-0.18310546875,0.6341552734375,-0.6016845703125,0.4874267578125,-194.0,269.0,5.0,102285.0,-7.968000411987305,0,0
21.879994,0.839080810546875,-0.423828125,-0.277618408203125,-0.198028564453125,0.06103515625,-0.1220703125,-0.1220703125,0.631103515625,-0.60302734375,0.4854736328125,-194.0,269.0,5.0,102285.0,-7.968000411987305,0,0
21.884995,0.839080810546875,-0.423828125,-0.277618408203125,-0.198028564453125,-0.1220703125,-0.06103515625,-0.244140625,0.63427734375,-0.6009521484375,0.4866943359375,-194.0,269.0,5.0,102285.0,-7.968000411987305,0,0
21.889995,0.839080810546875,-0.423828125,-0.277618408203125,-0.198028564453125,0.18310546875,-0.1220703125,-0.06103515625,0.63623046875,-0.600830078125,0.4879150390625,-194.0,269.0,5.0,102285.0,-7.968000411987305,0,0
21.894996,0.839080810546875,-0.423797607421875,-0.277618408203125,-0.198028564453125,0.1220703125,-0.1220703125,-0.1220703125,0.6322021484375,-0.59912109375,0.4888916015625,-194.0,269.0,5.0,102285.0,-7.968000411987305,0,0
21.899993,0.839080810546875,-0.423797607421875,-0.277618408203125,-0.198028564453125,0.18310546875,0.0,-0.18310546875,0.6353759765625,-0.6029052734375,0.48681640625,-194.0,269.0,5.0,102285.0,-7.968000411987305,0,0
21.904993,0.839080810546875,-0.423797607421875,-0.277618408203125,-0.198028564453125,0.18310546875,-0.18310546875,-0.42724609375,0.6328125,-0.6007080078125,0.4842529296875,-194.0,269.0,5.0,102285.0,-7.968000411987305,0,0
21.909994,0.839080810546875,-0.423797607421875,-0.277618408203125,-0.198028564453125,0.0,0.0,-0.30517578125,0.6337890625,-0.60205078125,0.4873046875,-194.0,269.0,5.0,102285.0,-7.968000411987305,0,0
21.914996,0.839080810546875,-0.423797607421875,-0.277618408203125,-0.198028564453125,-0.244140625,-0.1220703125,-0.1220703125,0.6328125,-0.599609375,0.4864501953125,-194.0,269.0,5.0,102285.0,-7.968000411987305,0,0
21.919993,0.839080810546875,-0.423797607421875,-0.277618408203125,-0.198028564453125,0.1220703125,0.0,-0.1220703125,0.63330078125,-0.60107421875,0.4866943359375,-194.0,269.0,5.0,102285.0,-7.968000411987305,0,0
21.934022,0.839080810546875,-0.423797607421875,-0.277587890625,-0.198028564453125,0.1220703125,0.06103515625,-0.06103515625,0.63232421875,-0.60205078125,0.487548828125,-194.0,269.0,5.0,102285.0,-7.968000411987305,0,0
21.938994,0.839080810546875,-0.423797607421875,-0.277587890625,-0.197998046875,0.1220703125,-0.30517578125,-0.244140625,0.6361083984375,-0.6025390625,0.487060546875,-194.0,269.0,5.0,102285.0,-7.968000411987305,0,0
21.943995,0.839080810546875,-0.423797607421875,-0.277587890625,-0.197998046875,-0.06103515625,-0.18310546875,0.1220703125,0.6337890625,-0.602783203125,0.48681640625,-194.0,269.0,5.0,102285.0,-7.968000411987305,0,0
21.948996,0.839080810546875,-0.423797607421875,-0.277587890625,-0.197998046875,0.18310546875,-0.06103515625,0.0,0.6329345703125,-0.60205078125,0.4874267578125,-194.0,269.0,5.0,102285.0,-7.968000411987305,0,0
21.953993,0.839080810546875,-0.423797607421875,-0.277587890625,-0.197998046875,-0.18310546875,-0.18310546875,0.0,0.6326904296875,-0.6007080078125,0.4866943359375,-194.0,269.0,5.0,102285.0,-7.968000411987305,0,0
21.958993,0.839080810546875,-0.423797607421875,-0.277587890625,-0.197998046875,0.06103515625,-0.244140625,0.06103515625,0.6334228515625,-0.600341796875,0.4871826171875,-194.0,269.0,5.0,102285.0,-7.969000339508057,0,0
21.963994,0.83917236328125,-0.423675537109375,-0.27777099609375,-0.197662353515625,0.06103515625,-0.244140625,0.06103515625,0.6334228515625,-0.600341796875,0.4871826171875,-194.0,269.0,5.0,102285.0,-7.969000339508057,0,0
21.968996,0.83917236328125,-0.423675537109375,-0.27777099609375,-0.197662353515625,-0.1220703125,-0.1220703125,0.06103515625,0.634521484375,-0.60009765625,0.4874267578125,-194.0,269.0,5.0,102285.0,-7.969000339508057,0,0
21.973993,0.83917236328125,-0.423675537109375,-0.27777099609375,-0.197662353515625,0.30517578125,-0.18310546875,-0.244140625,0.6322021484375,-0.6004638671875,0.4873046875,-194.0,269.0,5.0,102285.0,-7.969000339508057,0,0
21.978993,0.83917236328125,-0.423675537109375,-0.27777099609375,-0.197662353515625,0.0,-0.18310546875,-0.244140625,0.63330078125,-0.5997314453125,0.4881591796875,-194.0,269.0,5.0,102285.0,-7.969000339508057,0,0
21.983994,0.83917236328125,-0.423675537109375,-0.27777099609375,-0.197662353515625,0.06103515625,-0.244140625,-0.06103515625,0.6337890625,-0.600830078125,0.4871826171875,-194.0,269.0,5.0,102285.0,-7.969000339508057,0,0
21.998993,0.83917236328125,-0.423675537109375,-0.27777099609375,-0.197662353515625,0.0,0.0,-0.06103515625,0.6346435546875,-0.6015625,0.4866943359375,-194.0,269.0,5.0,102285.0,-7.969000339508057,0,0
22.003021,0.83917236328125,-0.423675537109375,-0.27777099609375,-0.197662353515625,0.0,0.0,-0.06103515625,0.6346435546875,-0.6015625,0.4866943359375,-194.0,269.0,5.0,102285.0,-7.969000339508057,0,0
22.007993,0.839202880859375,-0.423675537109375,-0.27777099609375,-0.197662353515625,0.1220703125,-0.1220703125,-0.1220703125,0.6329345703125,-0.5999755859375,0.48779296875,-194.0,269.0,5.0,102285.0,-7.969000339508057,0,0
22.012993,0.839202880859375,-0.423675537109375,-0.27777099609375,-0.197662353515625,0.1220703125,0.0,-0.06103515625,0.6334228515625,-0.603759765625,0.4862060546875,-194.0,269.0,5.0,102285.0,-7.969000339508057,0,0
22.017994,0.839202880859375,-0.423675537109375,-0.27777099609375,-0.197662353515625,-0.3662109375,-0.3662109375,-0.1220703125,0.63623046875,-0.6026611328125,0.4866943359375,-194.0,269.0,5.0,102285.0,-7.969000339508057,0,0
22.022996,0.839202880859375,-0.423675537109375,-0.27777099609375,-0.197662353515625,0.18310546875,0.0,-0.30517578125,0.634521484375,-0.604248046875,0.4866943359375,-194.0,269.0,5.0,102285.0,-7.969000339508057,0,0
22.027993,0.83917236328125,-0.423675537109375,-0.27777099609375,-0.1976318359375,0.1220703125,-0.18310546875,-0.06103515625,0.6324462890625,-0.6011962890625,0.485107421875,-194.0,269.0,5.0,102285.0,-7.969000339508057,0,0
22.032994,0.839202880859375,-0.423675537109375,-0.277740478515625,-0.1976318359375,0.0,-0.06103515625,-0.18310546875,0.632080078125,-0.6015625,0.4871826171875,-194.0,269.0,5.0,102285.0,-7.969000339508057,0,0
22.037995,0.839202880859375,-0.423675537109375,-0.27777099609375,-0.197662353515625,0.30517578125,0.0,-0.06103515625,0.633544921875,-0.60107421875,0.486328125,-194.0,269.0,5.0,102285.0,-7.969000339508057,0,0
22.042997,0.839202880859375,-0.423675537109375,-0.277740478515625,-0.1976318359375,0.244140625,-0.18310546875,-0.1220703125,0.631103515625,-0.6038818359375,0.4866943359375,-194.0,269.0,5.0,102285.0,-7.969000339508057,0,0
22.047997,0.839202880859375,-0.423675537109375,-0.277740478515625,-0.1976318359375,-0.1220703125,-0.18310546875,-0.18310546875,0.633056640625,-0.6031494140625,0.4874267578125,-194.0,269.0,5.0,102285.0,-7.969000339508057,0,0
22.052994,0.839202880859375,-0.423675537109375,-0.277740478515625,-0.1976318359375,-0.48828125,-0.1220703125,-0.3662109375,0.6334228515625,-0.60302734375,0.4871826171875,-194.0,269.0,5.0,102285.0,-7.969000339508057,0,0
22.057994,0.839202880859375,-0.423675537109375,-0.277740478515625,-0.1976318359375,-0.48828125,-0.1220703125,-0.3662109375,0.6334228515625,-0.60302734375,0.4871826171875,-194.0,269.0,5.0,102285.0,-7.966000556945801,0,0
22.062994,0.839202880859375,-0.423675537109375,-0.277740478515625,-0.1976318359375,0.1220703125,0.1220703125,-0.244140625,0.6324462890625,-0.6031494140625,0.4871826171875,-194.0,269.0,5.0,102285.0,-7.966000556945801,0,0
22.067026,0.839202880859375,-0.423675537109375,-0.277740478515625,-0.1976318359375,0.1220703125,0.1220703125,-0.244140625,0.6324462890625,-0.6031494140625,0.4871826171875,-194.0,269.0,5.0,102285.0,-7.966000556945801,0,0
22.071994,0.83929443359375,-0.423553466796875,-0.277923583984375,-0.197265625,0.1220703125,-0.244140625,-0.1220703125,0.6324462890625,-0.6007080078125,0.4874267578125,-194.0,269.0,5.0,102285.0,-7.966000556945801,0,0
22.076996,0.83929443359375,-0.423553466796875,-0.277923583984375,-0.197265625,0.0,-0.244140625,-0.18310546875,0.6343994140625,-0.6021728515625,0.4871826171875,-194.0,269.0,5.0,102285.0,-7.966000556945801,0,0
22.081994,0.83929443359375,-0.423553466796875,-0.277923583984375,-0.197265625,0.06103515625,-0.1220703125,-0.1220703125,0.632568359375,-0.60107421875,0.4881591796875,-194.0,269.0,5.0,102285.0,-7.966000556945801,0,0
22.086994,0.83929443359375,-0.423553466796875,-0.277923583984375,-0.197265625,0.18310546875,-0.1220703125,-0.18310546875,0.635986328125,-0.6025390625,0.4884033203125,-194.0,269.0,5.0,102285.0,-7.966000556945801,0,0
22.091995,0.83929443359375,-0.423553466796875,-0.277923583984375,-0.197265625,-0.06103515625,-0.18310546875,0.0,0.63330078125,-0.6011962890625,0.4869384765625,-194.0,269.0,5.0,102285.0,-7.966000556945801,0,0
22.096997,0.83929443359375,-0.423553466796875,-0.277923583984375,-0.197265625,-0.06103515625,-0.06103515625,-0.1220703125,0.6341552734375,-0.600830078125,0.48681640625,-194.0,269.0,5.0,102285.0,-7.966000556945801,0,0
22.101992,0.83929443359375,-0.423553466796875,-0.277923583984375,-0.197265625,0.30517578125,0.06103515625,-0.06103515625,0.634521484375,-0.6015625,0.488525390625,-194.0,269.0,5.0,102285.0,-7.966000556945801,0,0
22.106993,0.83929443359375,-0.423553466796875,-0.277923583984375,-0.197265625,-0.06103515625,-0.06103515625,0.1220703125,0.6339111328125,-0.600830078125,0.4871826171875,-194.0,269.0,5.0,102285.0,-7.966000556945801,0,0
22.121996,0.83929443359375,-0.423553466796875,-0.277923583984375,-0.197265625,0.06103515625,0.06103515625,-0.30517578125,0.63330078125,-0.6005859375,0.4864501953125,-194.0,269.0,5.0,102285.0,-7.966000556945801,0,0
22.126993,0.83929443359375,-0.423553466796875,-0.277923583984375,-0.197296142578125,0.0,-0.06103515625,0.0,0.63427734375,-0.6015625,0.4876708984375,-194.0,269.0,5.0,102285.0,-7.966000556945801,0,0
22.131993,0.83929443359375,-0.423553466796875,-0.277923583984375,-0.197296142578125,0.18310546875,-0.244140625,-0.30517578125,0.6351318359375,-0.601806640625,0.4874267578125,-194.0,269.0,5.0,102285.0,-7.966000556945801,0,0
22.136021,0.83929443359375,-0.423553466796875,-0.277923583984375,-0.197296142578125,0.18310546875,-0.244140625,-0.30517578125,0.6351318359375,-0.601806640625,0.4874267578125,-194.0,269.0,5.0,102285.0,-7.966000556945801,0,0
22.140993,0.83929443359375,-0.423553466796875,-0.277923583984375,-0.197296142578125,0.244140625,-0.1220703125,-0.3662109375,0.6343994140625,-0.6019287109375,0.4862060546875,-194.0,269.0,5.0,102285.0,-7.966000556945801,0,0
22.145994,0.83929443359375,-0.423553466796875,-0.277923583984375,-0.197296142578125,0.0,-0.06103515625,-0.244140625,0.6356201171875,-0.6016845703125,0.4879150390625,-194.0,269.0,5.0,102285.0,-7.966000556945801,0,0
22.150995,0.83929443359375,-0.423553466796875,-0.277923583984375,-0.197296142578125,0.1220703125,0.06103515625,-0.3662109375,0.6326904296875,-0.60205078125,0.4884033203125,-194.0,269.0,5.0,102285.0,-7.966000556945801,0,0
22.155992,0.83929443359375,-0.423553466796875,-0.277923583984375,-0.197296142578125,0.0,0.0,-0.18310546875,0.6357421875,-0.600830078125,0.486083984375,-194.0,269.0,5.0,102285.0,-7.966000556945801,0,0
22.160993,0.839263916015625,-0.423553466796875,-0.2779541015625,-0.197296142578125,0.1220703125,-0.244140625,-0.18310546875,0.6353759765625,-0.6014404296875,0.4866943359375,-194.0,269.0,5.0,102285.0,-7.966000556945801,0,0
22.165993,0.839385986328125,-0.423370361328125,-0.278167724609375,-0.196807861328125,0.1220703125,-0.1220703125,0.1220703125,0.6329345703125,-0.601318359375,0.4873046875,-194.0,269.0,6.0,102285.0,-7.966000556945801,0,0
22.180993,0.839385986328125,-0.423370361328125,-0.2781982421875,-0.196807861328125,0.30517578125,-0.18310546875,-0.1220703125,0.6365966796875,-0.6002197265625,0.486328125,-194.0,269.0,6.0,102285.0,-7.966000556945801,0,0
22.185993,0.839385986328125,-0.423370361328125,-0.2781982421875,-0.196807861328125,-0.18310546875,-0.1220703125,-0.42724609375,0.6334228515625,-0.6025390625,0.486572265625,-194.0,269.0,6.0,102285.0,-7.966000556945801,0,0
22.190994,0.839385986328125,-0.423370361328125,-0.2781982421875,-0.196807861328125,-0.18310546875,-0.1220703125,-0.42724609375,0.6334228515625,-0.6025390625,0.486572265625,-194.0,269.0,6.0,102285.0,-7.966000556945801,0,0
22.195995,0.839385986328125,-0.423370361328125,-0.2781982421875,-0.196807861328125,0.0,0.0,0.1220703125,0.6328125,-0.6016845703125,0.48583984375,-194.0,269.0,6.0,102285.0,-7.966000556945801,0,0
22.20002,0.839385986328125,-0.423370361328125,-0.2781982421875,-0.196807861328125,0.0,0.0,0.1220703125,0.6328125,-0.6016845703125,0.48583984375,-194.0,269.0,6.0,102285.0,-7.966000556945801,0,0
22.204996,0.839385986328125,-0.423370361328125,-0.278167724609375,-0.196807861328125,0.1220703125,-0.30517578125,-0.42724609375,0.6334228515625,-0.6014404296875,0.48828125,-194.0,269.0,6.0,102285.0,-7.966000556945801,0,0
22.209992,0.839385986328125,-0.423370361328125,-0.278167724609375,-0.196807861328125,0.06103515625,0.0,-0.244140625,0.63134765625,-0.60205078125,0.4866943359375,-194.0,269.0,6.0,102285.0,-7.968000411987305,0,0
22.214993,0.839385986328125,-0.423370361328125,-0.278167724609375,-0.196807861328125,-0.1220703125,-0.18310546875,-0.244140625,0.6337890625,-0.6016845703125,0.485107421875,-194.0,269.0,6.0,102285.0,-7.968000411987305,0,0
22.219993,0.839385986328125,-0.423370361328125,-0.278167724609375,-0.196807861328125,0.0,-0.18310546875,-0.1220703125,0.6324462890625,-0.601318359375,0.487060546875,-194.0,269.0,6.0,102285.0,-7.968000411987305,0,0
22.224994,0.839385986328125,-0.423370361328125,-0.278167724609375,-0.196807861328125,0.18310546875,-0.3662109375,0.0,0.633056640625,-0.6029052734375,0.4873046875,-194.0,269.0,6.0,102285.0,-7.968000411987305,0,0
22.229996,0.839385986328125,-0.423370361328125,-0.278167724609375,-0.196807861328125,-0.06103515625,0.1220703125,-0.1220703125,0.6348876953125,-0.60205078125,0.4857177734375,-194.0,269.0,6.0,102285.0,-7.968000411987305,0,0
22.234993,0.839385986328125,-0.423370361328125,-0.278167724609375,-0.196807861328125,0.1220703125,-0.18310546875,-0.1220703125,0.6361083984375,-0.6016845703125,0.486572265625,-194.0,269.0,6.0,102285.0,-7.968000411987305,0,0
22.239993,0.839385986328125,-0.423370361328125,-0.278167724609375,-0.196807861328125,-0.244140625,-0.3662109375,-0.18310546875,0.63525390625,-0.6031494140625,0.488525390625,-194.0,269.0,6.0,102285.0,-7.968000411987305,0,0
22.244995,0.839385986328125,-0.423370361328125,-0.278167724609375,-0.196807861328125,-0.06103515625,0.0,-0.1220703125,0.6334228515625,-0.6016845703125,0.487548828125,-194.0,269.0,6.0,102285.0,-7.968000411987305,0,0
22.249997,0.839385986328125,-0.423370361328125,-0.278167724609375,-0.196807861328125,0.30517578125,-0.18310546875,-0.1220703125,0.6331787109375,-0.601318359375,0.4859619140625,-194.0,269.0,6.0,102285.0,-7.968000411987305,0,0
22.254996,0.839385986328125,-0.423370361328125,-0.278167724609375,-0.196807861328125,0.06103515625,0.06103515625,-0.30517578125,0.634033203125,-0.6014404296875,0.48828125,-194.0,269.0,6.0,102285.0,-7.968000411987305,0,0
22.259994,0.839385986328125,-0.423370361328125,-0.278167724609375,-0.196807861328125,0.06103515625,0.06103515625,-0.30517578125,0.634033203125,-0.6014404296875,0.48828125,-195.0,270.0,6.0,102285.0,-7.968000411987305,0,0
22.264994,0.8394775390625,-0.42327880859375,-0.278350830078125,-0.196441650390625,0.1220703125,-0.06103515625,-0.244140625,0.634033203125,-0.6016845703125,0.486572265625,-195.0,270.0,6.0,102285.0,-7.968000411987305,0,0
22.269024,0.8394775390625,-0.42327880859375,-0.278350830078125,-0.196441650390625,0.1220703125,-0.06103515625,-0.244140625,0.634033203125,-0.6016845703125,0.486572265625,-195.0,270.0,6.0,102285.0,-7.968000411987305,0,0
22.273994,0.8394775390625,-0.42327880859375,-0.278350830078125,-0.196441650390625,-0.06103515625,-0.30517578125,-0.1220703125,0.633544921875,-0.6009521484375,0.4859619140625,-195.0,270.0,6.0,102285.0,-7.968000411987305,0,0
22.278994,0.8394775390625,-0.42327880859375,-0.278350830078125,-0.196441650390625,0.244140625,-0.06103515625,-0.244140625,0.6337890625,-0.60205078125,0.4857177734375,-195.0,270.0,6.0,102285.0,-7.968000411987305,0,0
22.283997,0.8394775390625,-0.42327880859375,-0.278350830078125,-0.196441650390625,0.18310546875,-0.06103515625,0.06103515625,0.6334228515625,-0.603271484375,0.4862060546875,-195.0,270.0,6.0,102285.0,-7.968000411987305,0,0
22.288994,0.8394775390625,-0.42327880859375,-0.278350830078125,-0.196441650390625,0.0,-0.30517578125,0.06103515625,0.63330078125,-0.60107421875,0.4866943359375,-195.0,270.0,6.0,102285.0,-7.968000411987305,0,0
22.303997,0.8394775390625,-0.423248291015625,-0.278350830078125,-0.196441650390625,0.1220703125,-0.06103515625,0.0,0.63623046875,-0.6007080078125,0.4869384765625,-195.0,270.0,6.0,102285.0,-7.968000411987305,0,0
22.308997,0.8394775390625,-0.423248291015625,-0.278350830078125,-0.196441650390625,0.06103515625,-0.18310546875,-0.244140625,0.6328125,-0.6002197265625,0.4869384765625,-195.0,270.0,6.0,102285.0,-7.964000225067139,0,0
22.313993,0.8394775390625,-0.42327880859375,-0.278350830078125,-0.196441650390625,-0.06103515625,0.0,-0.18310546875,0.633056640625,-0.601806640625,0.486572265625,-195.0,270.0,6.0,102285.0,-7.964000225067139,0,0
22.318993,0.8394775390625,-0.42327880859375,-0.278350830078125,-0.196441650390625,0.18310546875,-0.06103515625,-0.244140625,0.63330078125,-0.604248046875,0.486083984375,-195.0,270.0,6.0,102285.0,-7.964000225067139,0,0
22.323994,0.8394775390625,-0.42327880859375,-0.278350830078125,-0.196441650390625,0.244140625,-0.18310546875,-0.30517578125,0.634033203125,-0.602294921875,0.4871826171875,-195.0,270.0,6.0,102285.0,-7.964000225067139,0,0
22.328996,0.8394775390625,-0.423248291015625,-0.278350830078125,-0.196441650390625,0.1220703125,-0.18310546875,-0.18310546875,0.633544921875,-0.6019287109375,0.4886474609375,-195.0,270.0,6.0,102285.0,-7.964000225067139,0,0
22.333027,0.8394775390625,-0.423248291015625,-0.278350830078125,-0.196441650390625,0.1220703125,-0.18310546875,-0.18310546875,0.633544921875,-0.6019287109375,0.4886474609375,-195.0,270.0,6.0,102285.0,-7.964000225067139,0,0
22.337996,0.8394775390625,-0.423248291015625,-0.278350830078125,-0.196441650390625,0.06103515625,-0.1220703125,-0.244140625,0.6329345703125,-0.6033935546875,0.48583984375,-195.0,270.0,6.0,102285.0,-7.964000225067139,0,0
22.342993,0.8394775390625,-0.423248291015625,-0.278350830078125,-0.196441650390625,0.0,-0.1220703125,0.06103515625,0.6336669921875,-0.6002197265625,0.48779296875,-195.0,270.0,6.0,102285.0,-7.964000225067139,0,0
22.347993,0.8394775390625,-0.42327880859375,-0.278350830078125,-0.196441650390625,0.1220703125,-0.06103515625,-0.244140625,0.6357421875,-0.6019287109375,0.48779296875,-195.0,270.0,6.0,102285.0,-7.964000225067139,0,0
22.352994,0.8394775390625,-0.42327880859375,-0.278350830078125,-0.196441650390625,0.0,0.0,-0.18310546875,0.635986328125,-0.603759765625,0.486328125,-195.0,270.0,6.0,102285.0,-7.964000225067139,0,0
22.367993,0.839569091796875,-0.423126220703125,-0.278533935546875,-0.196075439453125,0.06103515625,-0.1220703125,-0.06103515625,0.634521484375,-0.6016845703125,0.4893798828125,-195.0,270.0,5.0,102285.0,-7.964000225067139,0,0
22.372993,0.839569091796875,-0.423126220703125,-0.278533935546875,-0.196075439453125,0.1220703125,-0.244140625,-0.48828125,0.6328125,-0.6007080078125,0.488037109375,-195.0,270.0,5.0,102285.0,-7.964000225067139,0,0
22.377994,0.839569091796875,-0.423126220703125,-0.278533935546875,-0.196075439453125,-0.30517578125,-0.3662109375,-0.18310546875,0.635009765625,-0.60302734375,0.4869384765625,-195.0,270.0,5.0,102285.0,-7.964000225067139,0,0
22.382996,0.839569091796875,-0.423126220703125,-0.278533935546875,-0.196075439453125,0.0,-0.42724609375,-0.30517578125,0.634033203125,-0.602294921875,0.4884033203125,-195.0,270.0,5.0,102285.0,-7.964000225067139,0,0
22.387993,0.839569091796875,-0.423126220703125,-0.278533935546875,-0.196075439453125,0.0,-0.06103515625,0.0,0.6348876953125,-0.6033935546875,0.486328125,-195.0,270.0,5.0,102285.0,-7.964000225067139,0,0
22.392993,0.839569091796875,-0.423126220703125,-0.278533935546875,-0.196075439453125,-0.1220703125,0.06103515625,-0.1220703125,0.6324462890625,-0.600341796875,0.4866943359375,-195.0,270.0,5.0,102285.0,-7.964000225067139,0,0
22.397994,0.839569091796875,-0.423126220703125,-0.278533935546875,-0.196075439453125,0.1220703125,-0.18310546875,-0.18310546875,0.633544921875,-0.600830078125,0.489013671875,-195.0,270.0,5.0,102285.0,-7.964000225067139,0,0
22.402022,0.839569091796875,-0.423126220703125,-0.278533935546875,-0.196075439453125,0.1220703125,-0.18310546875,-0.18310546875,0.633544921875,-0.600830078125,0.489013671875,-195.0,270.0,5.0,102285.0,-7.964000225067139,0,0
22.406994,0.839569091796875,-0.423126220703125,-0.27850341796875,-0.196075439453125,-0.1220703125,-0.244140625,0.0,0.632568359375,-0.6016845703125,0.487548828125,-195.0,270.0,5.0,102285.0,-7.967000484466553,0,0
22.411995,0.839569091796875,-0.423126220703125,-0.27850341796875,-0.196075439453125,0.3662109375,-0.30517578125,-0.42724609375,0.634033203125,-0.6033935546875,0.48876953125,-195.0,270.0,5.0,102285.0,-7.967000484466553,0,0
22.416996,0.839569091796875,-0.423126220703125,-0.27850341796875,-0.196075439453125,0.18310546875,-0.1220703125,-0.244140625,0.631591796875,-0.599609375,0.48779296875,-195.0,270.0,5.0,102285.0,-7.967000484466553,0,0
22.421993,0.839569091796875,-0.423126220703125,-0.27850341796875,-0.196075439453125,-0.18310546875,-0.244140625,-0.1220703125,0.6318359375,-0.599853515625,0.486083984375,-195.0,270.0,5.0,102285.0,-7.967000484466553,0,0
22.426993,0.839569091796875,-0.423126220703125,-0.27850341796875,-0.196075439453125,0.244140625,0.0,-0.06103515625,0.633056640625,-0.6029052734375,0.487060546875,-195.0,270.0,5.0,102285.0,-7.967000484466553,0,0
22.431994,0.839569091796875,-0.423126220703125,-0.27850341796875,-0.196075439453125,0.18310546875,-0.1220703125,-0.244140625,0.6339111328125,-0.601318359375,0.4866943359375,-195.0,270.0,5.0,102285.0,-7.967000484466553,0,0
22.436996,0.839599609375,-0.423126220703125,-0.27850341796875,-0.196075439453125,0.06103515625,-0.1220703125,-0.244140625,0.6337890625,-0.6026611328125,0.487060546875,-195.0,270.0,5.0,102285.0,-7.967000484466553,0,0
22.441993,0.839569091796875,-0.423126220703125,-0.27850341796875,-0.196075439453125,0.1220703125,-0.18310546875,-0.244140625,0.6331787109375,-0.601806640625,0.486083984375,-195.0,270.0,5.0,102285.0,-7.967000484466553,0,0
22.446993,0.839569091796875,-0.423126220703125,-0.27850341796875,-0.196075439453125,0.0,-0.48828125,-0.18310546875,0.6337890625,-0.601806640625,0.4859619140625,-195.0,270.0,5.0,102285.0,-7.967000484466553,0,0
22.451994,0.839569091796875,-0.423126220703125,-0.27850341796875,-0.196075439453125,0.18310546875,-0.1220703125,-0.30517578125,0.6339111328125,-0.6007080078125,0.4871826171875,-195.0,270.0,5.0,102285.0,-7.967000484466553,0,0
22.456996,0.839599609375,-0.423126220703125,-0.27850341796875,-0.196075439453125,-0.06103515625,-0.06103515625,0.06103515625,0.632568359375,-0.6011962890625,0.487060546875,-195.0,270.0,5.0,102285.0,-7.967000484466553,0,0
22.461997,0.839569091796875,-0.423126220703125,-0.27850341796875,-0.196075439453125,0.1220703125,-0.244140625,0.0,0.6351318359375,-0.6014404296875,0.48583984375,-195.0,269.0,6.0,102285.0,-7.967000484466553,0,0
22.466024,0.839569091796875,-0.423126220703125,-0.27850341796875,-0.196075439453125,0.1220703125,-0.244140625,0.0,0.6351318359375,-0.6014404296875,0.48583984375,-195.0,269.0,6.0,102285.0,-7.967000484466553,0,0
22.470996,0.839630126953125,-0.42303466796875,-0.27862548828125,-0.195831298828125,0.06103515625,0.06103515625,-0.30517578125,0.6348876953125,-0.6009521484375,0.4876708984375,-195.0,269.0,6.0,102285.0,-7.967000484466553,0,0
22.475994,0.839630126953125,-0.42303466796875,-0.27862548828125,-0.195831298828125,0.06103515625,0.0,0.1220703125,0.6348876953125,-0.601318359375,0.4876708984375,-195.0,269.0,6.0,102285.0,-7.967000484466553,0,0
22.480994,-8.381505151311154e+23,-7.5804305672094405e+31,7.470589625323243e-31,3.183958175741967e-36,-1.3969266978267388e+34,1.009747640176231e-27,3.7722339218306854e-34,-184315233173504.0,-1.3969265740327349e+34,-1.1735348470075152e+34,-4.683719112883343e+24,3.875754609567708e-36,5.169915806311355e-26,5.98982509038902e-28,-17808504.0,40762,20386
22.490997,0.839630126953125,-0.423065185546875,-0.27862548828125,-0.195831298828125,-0.06103515625,-0.244140625,-0.244140625,0.6361083984375,-0.6009521484375,0.48583984375,-195.0,269.0,6.0,102285.0,-7.967000484466553,0,0
22.495994,0.839630126953125,-0.423065185546875,-0.27862548828125,-0.195831298828125,0.06103515625,-0.244140625,-0.30517578125,0.6328125,-0.601806640625,0.487060546875,-195.0,269.0,6.0,102285.0,-7.967000484466553,0,0
22.500994,0.839630126953125,-0.423065185546875,-0.27862548828125,-0.195831298828125,0.06103515625,-0.06103515625,-0.30517578125,0.6331787109375,-0.6033935546875,0.4862060546875,-195.0,269.0,6.0,102285.0,-7.967000484466553,0,0
22.505995,0.839630126953125,-0.423065185546875,-0.27862548828125,-0.195831298828125,0.0,-0.18310546875,0.0,0.6348876953125,-0.602294921875,0.4864501953125,-195.0,269.0,6.0,102285.0,-7.967000484466553,0,0
22.510997,0.839630126953125,-0.423065185546875,-0.27862548828125,-0.195831298828125,0.30517578125,-0.1220703125,-0.18310546875,0.6361083984375,-0.60107421875,0.4893798828125,-195.0,269.0,6.0,102285.0,-7.965000152587891,0,0
22.515997,0.839630126953125,-0.423065185546875,-0.27862548828125,-0.195831298828125,0.18310546875,0.0,-0.18310546875,0.6353759765625,-0.6026611328125,0.4874267578125,-195.0,269.0,6.0,102285.0,-7.965000152587891,0,0
22.520994,0.839630126953125,-0.423065185546875,-0.27862548828125,-0.195831298828125,0.0,-0.06103515625,-0.1220703125,0.6334228515625,-0.6011962890625,0.4869384765625,-195.0,269.0,6.0,102285.0,-7.965000152587891,0,0
22.525993,0.839630126953125,-0.423065185546875,-0.27862548828125,-0.195831298828125,0.1220703125,-0.18310546875,-0.244140625,0.6334228515625,-0.60107421875,0.48779296875,-195.0,269.0,6.0,102285.0,-7.965000152587891,0,0
22.530994,0.839630126953125,-0.423065185546875,-0.27862548828125,-0.195831298828125,-0.1220703125,-0.18310546875,-0.18310546875,0.6329345703125,-0.602294921875,0.4873046875,-195.0,269.0,6.0,102285.0,-7.965000152587891,0,0
22.535024,0.839630126953125,-0.423065185546875,-0.27862548828125,-0.195831298828125,-0.1220703125,-0.18310546875,-0.18310546875,0.6329345703125,-0.602294921875,0.4873046875,-195.0,269.0,6.0,102285.0,-7.965000152587891,0,0
22.539994,0.839630126953125,-0.423065185546875,-0.27862548828125,-0.195831298828125,-0.18310546875,-0.06103515625,-0.18310546875,0.634033203125,-0.599853515625,0.484619140625,-195.0,269.0,6.0,102285.0,-7.965000152587891,0,0
22.554993,0.839630126953125,-0.423065185546875,-0.27862548828125,-0.195831298828125,-0.18310546875,0.0,-0.30517578125,0.635009765625,-0.6031494140625,0.4876708984375,-195.0,269.0,6.0,102285.0,-7.965000152587891,0,0
22.559994,0.839630126953125,-0.423065185546875,-0.27862548828125,-0.195831298828125,-0.18310546875,0.0,-0.30517578125,0.635009765625,-0.6031494140625,0.4876708984375,-196.0,270.0,6.0,102285.0,-7.965000152587891,0,0
22.564995,0.839630126953125,-0.423065185546875,-0.27862548828125,-0.195831298828125,0.244140625,-0.06103515625,0.0,0.63525390625,-0.60302734375,0.4881591796875,-196.0,270.0,6.0,102285.0,-7.965000152587891,0,0
22.569992,0.83966064453125,-0.423004150390625,-0.2786865234375,-0.195709228515625,-0.06103515625,0.0,0.1220703125,0.634033203125,-0.6021728515625,0.487548828125,-196.0,270.0,6.0,102285.0,-7.965000152587891,0,0
22.574993,0.83966064453125,-0.423004150390625,-0.2786865234375,-0.195709228515625,0.0,-0.3662109375,-0.18310546875,0.634765625,-0.6025390625,0.4869384765625,-196.0,270.0,6.0,102285.0,-7.965000152587891,0,0
22.579993,0.83966064453125,-0.42303466796875,-0.2786865234375,-0.195709228515625,0.244140625,0.0,-0.18310546875,0.63525390625,-0.6016845703125,0.4869384765625,-196.0,270.0,6.0,102285.0,-7.965000152587891,0,0
22.584994,0.83966064453125,-0.423004150390625,-0.2786865234375,-0.195709228515625,-0.06103515625,-0.06103515625,-0.3662109375,0.634765625,-0.6011962890625,0.4857177734375,-196.0,270.0,6.0,102285.0,-7.965000152587891,0,0
22.589996,0.83966064453125,-0.42303466796875,-0.2786865234375,-0.195709228515625,0.54931640625,-0.18310546875,-0.244140625,0.6336669921875,-0.60302734375,0.486572265625,-196.0,270.0,6.0,102285.0,-7.965000152587891,0,0
22.594993,0.83966064453125,-0.42303466796875,-0.2786865234375,-0.195709228515625,-0.1220703125,-0.06103515625,-0.1220703125,0.6339111328125,-0.603271484375,0.48681640625,-196.0,270.0,6.0,102285.0,-7.965000152587891,0,0
22.599021,0.83966064453125,-0.42303466796875,-0.2786865234375,-0.195709228515625,-0.1220703125,-0.06103515625,-0.1220703125,0.6339111328125,-0.603271484375,0.48681640625,-196.0,270.0,6.0,102285.0,-7.965000152587891,0,0
22.603993,0.83966064453125,-0.42303466796875,-0.2786865234375,-0.195709228515625,0.18310546875,-0.30517578125,-0.18310546875,0.634521484375,-0.6025390625,0.4871826171875,-196.0,270.0,6.0,102285.0,-7.965000152587891,0,0
22.608993,0.83966064453125,-0.42303466796875,-0.2786865234375,-0.195709228515625,0.3662109375,-0.30517578125,-0.18310546875,0.6346435546875,-0.6016845703125,0.48779296875,-196.0,270.0,6.0,102285.0,-7.968000411987305,0,0
22.613994,0.83966064453125,-0.42303466796875,-0.2786865234375,-0.195709228515625,-0.18310546875,-0.244140625,-0.06103515625,0.6336669921875,-0.602783203125,0.4857177734375,-196.0,270.0,6.0,102285.0,-7.968000411987305,0,0
22.618995,0.83966064453125,-0.42303466796875,-0.2786865234375,-0.195709228515625,0.0,0.0,-0.06103515625,0.63330078125,-0.6029052734375,0.48779296875,-196.0,270.0,6.0,102285.0,-7.968000411987305,0,0
22.623992,0.83966064453125,-0.42303466796875,-0.2786865234375,-0.195709228515625,0.06103515625,-0.1220703125,-0.18310546875,0.633544921875,-0.6009521484375,0.488037109375,-196.0,270.0,6.0,102285.0,-7.968000411987305,0,0
22.628993,0.83966064453125,-0.42303466796875,-0.2786865234375,-0.195709228515625,-0.06103515625,0.06103515625,-0.18310546875,0.6363525390625,-0.6029052734375,0.4874267578125,-196.0,270.0,6.0,102285.0,-7.968000411987305,0,0
22.633993,0.83966064453125,-0.42303466796875,-0.2786865234375,-0.195709228515625,0.30517578125,-0.06103515625,-0.1220703125,0.6334228515625,-0.6021728515625,0.484130859375,-196.0,270.0,6.0,102285.0,-7.968000411987305,0,0
22.638994,0.83966064453125,-0.42303466796875,-0.2786865234375,-0.195709228515625,0.244140625,0.06103515625,-0.18310546875,0.6329345703125,-0.6029052734375,0.487548828125,-196.0,270.0,6.0,102285.0,-7.968000411987305,0,0
22.643996,0.83966064453125,-0.42303466796875,-0.2786865234375,-0.195709228515625,-0.06103515625,-0.48828125,-0.1220703125,0.6322021484375,-0.6024169921875,0.4864501953125,-196.0,270.0,6.0,102285.0,-7.968000411987305,0,0
22.648993,0.83966064453125,-0.42303466796875,-0.2786865234375,-0.195709228515625,0.48828125,-0.06103515625,0.06103515625,0.6322021484375,-0.600830078125,0.486083984375,-196.0,270.0,6.0,102285.0,-7.968000411987305,0,0
22.653993,0.83966064453125,-0.42303466796875,-0.2786865234375,-0.195709228515625,0.06103515625,-0.30517578125,-0.06103515625,0.635009765625,-0.603759765625,0.4857177734375,-196.0,270.0,6.0,102285.0,-7.968000411987305,0,0
22.658994,0.83966064453125,-0.42303466796875,-0.2786865234375,-0.195709228515625,0.06103515625,-0.244140625,-0.18310546875,0.63525390625,-0.6014404296875,0.48681640625,-197.0,269.0,6.0,102285.0,-7.968000411987305,0,0
