Time stamp(sec),quaternion_0,quaternion_1,quaternion_2,quaternion_3,roll_angular_rate,pitch_angular_rate,yaw_angular_rate,acc_X,acc_Y,acc_Z,mag_X,mag_Y,mag_Z,pressure,altitude
2188.861,0.034088134765625,-0.99810791015625,-0.047882080078125,-0.0172119140625,0.0,0.3662109375,-0.30517578125,0.0369873046875,-0.0662841796875,-0.9747314453125,13.0,-199.0,316.0,101940.0,-5.111000061035156,0,0
2188.867999,0.034088134765625,-0.99810791015625,-0.047882080078125,-0.0172119140625,-0.1220703125,0.30517578125,0.06103515625,0.0355224609375,-0.0645751953125,-0.97265625,13.0,-199.0,316.0,101940.0,-5.111000061035156,0,0
2188.87502,0.034088134765625,-0.99810791015625,-0.048095703125,-0.0172119140625,-0.244140625,0.0,-0.18310546875,0.03564453125,-0.062744140625,-0.971923828125,12.0,-198.0,317.0,101940.0,-5.111000061035156,0,0
2188.881053,0.034088134765625,-0.99810791015625,-0.048095703125,-0.0172119140625,-0.244140625,0.0,-0.18310546875,0.03564453125,-0.062744140625,-0.971923828125,12.0,-198.0,317.0,101940.0,-5.111000061035156,0,0
2188.888,0.034088134765625,-0.99810791015625,-0.048095703125,-0.0172119140625,-0.06103515625,0.0,-0.06103515625,0.0364990234375,-0.064453125,-0.973876953125,12.0,-198.0,317.0,101940.0,-5.111000061035156,0,0
2188.89502,0.034088134765625,-0.99810791015625,-0.048095703125,-0.0172119140625,0.06103515625,0.06103515625,0.0,0.0374755859375,-0.06494140625,-0.97412109375,12.0,-198.0,317.0,101940.0,-5.111000061035156,0,0
2188.901999,0.034088134765625,-0.99810791015625,-0.048095703125,-0.0172119140625,0.06103515625,0.244140625,0.18310546875,0.0361328125,-0.0653076171875,-0.9735107421875,12.0,-198.0,317.0,101940.0,-5.111000061035156,0,0
2188.909016,0.034088134765625,-0.99810791015625,-0.048095703125,-0.0172119140625,-0.1220703125,0.06103515625,0.1220703125,0.0372314453125,-0.0660400390625,-0.9755859375,12.0,-198.0,317.0,101940.0,-5.111000061035156,0,0
2188.915998,0.034088134765625,-0.99810791015625,-0.048095703125,-0.0172119140625,0.1220703125,0.1220703125,-0.1220703125,0.0352783203125,-0.0665283203125,-0.9744873046875,12.0,-198.0,317.0,101940.0,-5.111000061035156,0,0
2188.922997,0.034088134765625,-0.99810791015625,-0.048095703125,-0.017181396484375,-0.06103515625,0.1220703125,0.1220703125,0.03759765625,-0.064453125,-0.9752197265625,12.0,-198.0,317.0,101940.0,-5.11400032043457,0,0
2188.944015,0.034088134765625,-0.99810791015625,-0.048095703125,-0.017181396484375,0.0,-0.06103515625,-0.244140625,0.037353515625,-0.0631103515625,-0.974365234375,12.0,-198.0,317.0,101940.0,-5.11400032043457,0,0
2188.950995,0.034088134765625,-0.99810791015625,-0.048095703125,-0.017181396484375,-0.06103515625,0.18310546875,-0.06103515625,0.0352783203125,-0.064453125,-0.97412109375,12.0,-198.0,317.0,101940.0,-5.11400032043457,0,0
2188.957995,0.034088134765625,-0.99810791015625,-0.048095703125,-0.017181396484375,0.0,0.18310546875,-0.06103515625,0.0364990234375,-0.0618896484375,-0.97509765625,12.0,-198.0,317.0,101940.0,-5.11400032043457,0,0
2188.965019,0.034088134765625,-0.99810791015625,-0.048095703125,-0.017181396484375,-0.18310546875,0.30517578125,-0.18310546875,0.0352783203125,-0.0660400390625,-0.975830078125,12.0,-198.0,317.0,101940.0,-5.11400032043457,0,0
2188.971052,0.034088134765625,-0.99810791015625,-0.048095703125,-0.017181396484375,-0.18310546875,0.30517578125,-0.18310546875,0.0352783203125,-0.0660400390625,-0.975830078125,12.0,-198.0,317.0,101940.0,-5.11400032043457,0,0
2188.977996,0.034088134765625,-0.998077392578125,-0.048553466796875,-0.01715087890625,-0.1220703125,0.18310546875,0.0,0.03564453125,-0.064697265625,-0.9752197265625,14.0,-198.0,317.0,101940.0,-5.11400032043457,0,0
2188.98502,0.034088134765625,-0.998077392578125,-0.048553466796875,-0.01715087890625,0.0,-0.06103515625,-0.18310546875,0.03662109375,-0.0635986328125,-0.9755859375,14.0,-198.0,317.0,101940.0,-5.11400032043457,0,0
2188.991999,0.034088134765625,-0.998077392578125,-0.048553466796875,-0.01715087890625,0.06103515625,0.1220703125,0.0,0.0350341796875,-0.06640625,-0.9739990234375,14.0,-198.0,317.0,101940.0,-5.11400032043457,0,0
2188.999016,0.034088134765625,-0.998077392578125,-0.048553466796875,-0.017181396484375,0.0,0.06103515625,0.0,0.038818359375,-0.06591796875,-0.9735107421875,14.0,-198.0,317.0,101940.0,-5.11400032043457,0,0
2189.005998,0.034088134765625,-0.998077392578125,-0.048553466796875,-0.01715087890625,-0.06103515625,0.244140625,-0.06103515625,0.0360107421875,-0.0657958984375,-0.9737548828125,14.0,-198.0,317.0,101940.0,-5.11400032043457,0,0
2189.012997,0.034088134765625,-0.998077392578125,-0.048553466796875,-0.017181396484375,0.0,0.244140625,-0.1220703125,0.0369873046875,-0.0614013671875,-0.9736328125,14.0,-198.0,317.0,101940.0,-5.11400032043457,0,0
2189.020022,0.034088134765625,-0.998077392578125,-0.048553466796875,-0.017181396484375,0.30517578125,0.06103515625,0.244140625,0.03857421875,-0.0687255859375,-0.974365234375,14.0,-198.0,317.0,101940.0,-5.11400032043457,0,0
2189.027001,0.03411865234375,-0.998077392578125,-0.048553466796875,-0.017181396484375,0.06103515625,0.3662109375,-0.30517578125,0.0367431640625,-0.06591796875,-0.9755859375,14.0,-198.0,317.0,101940.0,-5.113000392913818,0,0
2189.034015,0.03411865234375,-0.998077392578125,-0.048553466796875,-0.017181396484375,0.06103515625,0.1220703125,-0.30517578125,0.03759765625,-0.0655517578125,-0.974609375,14.0,-198.0,317.0,101940.0,-5.113000392913818,0,0
2189.040995,0.03411865234375,-0.998077392578125,-0.048553466796875,-0.017181396484375,0.06103515625,0.1220703125,0.1220703125,0.0396728515625,-0.0635986328125,-0.97509765625,14.0,-198.0,317.0,101940.0,-5.113000392913818,0,0
2189.047995,0.034088134765625,-0.998077392578125,-0.048553466796875,-0.017181396484375,-0.18310546875,0.18310546875,0.06103515625,0.0350341796875,-0.063720703125,-0.9739990234375,14.0,-198.0,317.0,101940.0,-5.113000392913818,0,0
2189.055019,0.034088134765625,-0.998077392578125,-0.048553466796875,-0.017181396484375,0.244140625,0.18310546875,-0.244140625,0.036865234375,-0.064208984375,-0.973876953125,14.0,-198.0,317.0,101940.0,-5.113000392913818,0,0
2189.062003,0.034088134765625,-0.998077392578125,-0.048553466796875,-0.017181396484375,0.0,0.244140625,-0.18310546875,0.03662109375,-0.0657958984375,-0.9739990234375,14.0,-198.0,317.0,101940.0,-5.113000392913818,0,0
2189.068036,0.034088134765625,-0.998077392578125,-0.048553466796875,-0.017181396484375,0.0,0.244140625,-0.18310546875,0.03662109375,-0.0657958984375,-0.9739990234375,14.0,-198.0,317.0,101940.0,-5.113000392913818,0,0
2189.07502,0.03411865234375,-0.998046875,-0.049102783203125,-0.01715087890625,0.1220703125,0.244140625,0.06103515625,0.035888671875,-0.0648193359375,-0.972900390625,15.0,-198.0,316.0,101940.0,-5.113000392913818,0,0
2189.081999,0.034088134765625,-0.998046875,-0.049102783203125,-0.01715087890625,-0.06103515625,0.0,-0.1220703125,0.037109375,-0.064453125,-0.9730224609375,15.0,-198.0,316.0,101940.0,-5.113000392913818,0,0
2189.089016,0.034088134765625,-0.998046875,-0.049102783203125,-0.01715087890625,0.06103515625,0.30517578125,-0.30517578125,0.0391845703125,-0.06396484375,-0.973388671875,15.0,-198.0,316.0,101940.0,-5.113000392913818,0,0
2189.095998,0.034088134765625,-0.998046875,-0.049102783203125,-0.01715087890625,-0.06103515625,0.1220703125,0.18310546875,0.0362548828125,-0.0650634765625,-0.9742431640625,15.0,-198.0,316.0,101940.0,-5.113000392913818,0,0
2189.117001,0.034088134765625,-0.998046875,-0.049102783203125,-0.01715087890625,0.06103515625,0.30517578125,-0.06103515625,0.036376953125,-0.06201171875,-0.97509765625,15.0,-198.0,316.0,101940.0,-5.113000392913818,0,0
2189.124015,0.034088134765625,-0.998046875,-0.049102783203125,-0.01715087890625,0.06103515625,0.1220703125,-0.18310546875,0.0367431640625,-0.06640625,-0.9749755859375,15.0,-198.0,316.0,101940.0,-5.113000392913818,0,0
2189.131,0.034088134765625,-0.998046875,-0.049102783203125,-0.01715087890625,0.1220703125,0.1220703125,0.06103515625,0.03662109375,-0.0635986328125,-0.974365234375,15.0,-198.0,316.0,101940.0,-5.113000392913818,0,0
2189.137999,0.034088134765625,-0.998046875,-0.049102783203125,-0.01715087890625,0.18310546875,0.244140625,-0.18310546875,0.03564453125,-0.0657958984375,-0.9759521484375,15.0,-198.0,316.0,101940.0,-5.113000392913818,0,0
2189.14502,0.034088134765625,-0.998046875,-0.049102783203125,-0.01715087890625,0.0,0.244140625,-0.18310546875,0.035400390625,-0.0645751953125,-0.9735107421875,15.0,-198.0,316.0,101940.0,-5.113000392913818,0,0
2189.152003,0.034088134765625,-0.998046875,-0.049102783203125,-0.01715087890625,-0.1220703125,0.06103515625,0.0,0.0355224609375,-0.0648193359375,-0.9735107421875,15.0,-198.0,316.0,101940.0,-5.113000392913818,0,0
2189.158036,0.034088134765625,-0.998046875,-0.049102783203125,-0.01715087890625,-0.1220703125,0.06103515625,0.0,0.0355224609375,-0.0648193359375,-0.9735107421875,15.0,-198.0,316.0,101940.0,-5.113000392913818,0,0
2189.16502,0.034088134765625,-0.998046875,-0.049102783203125,-0.01715087890625,0.1220703125,0.1220703125,0.0,0.03759765625,-0.0650634765625,-0.9737548828125,15.0,-198.0,316.0,101940.0,-5.113000392913818,0,0
2189.171999,0.03411865234375,-0.998046875,-0.049102783203125,-0.01715087890625,0.06103515625,0.30517578125,-0.06103515625,0.036865234375,-0.067138671875,-0.9744873046875,15.0,-198.0,316.0,101940.0,-5.113000392913818,0,0
2189.179016,0.03411865234375,-0.998016357421875,-0.0496826171875,-0.017120361328125,-0.06103515625,0.0,-0.3662109375,0.0347900390625,-0.06396484375,-0.974365234375,15.0,-199.0,316.0,101940.0,-5.113000392913818,0,0
2189.185998,0.034088134765625,-0.998016357421875,-0.0496826171875,-0.017120361328125,0.06103515625,0.06103515625,-0.06103515625,0.035400390625,-0.063720703125,-0.974609375,15.0,-199.0,316.0,101940.0,-5.113000392913818,0,0
2189.207001,0.034088134765625,-0.998016357421875,-0.0496826171875,-0.017120361328125,0.0,0.3662109375,0.18310546875,0.0360107421875,-0.06298828125,-0.972900390625,15.0,-199.0,316.0,101940.0,-5.113000392913818,0,0
2189.214015,0.034088134765625,-0.998016357421875,-0.0496826171875,-0.017120361328125,0.06103515625,0.06103515625,0.0,0.037109375,-0.0655517578125,-0.9725341796875,15.0,-199.0,316.0,101940.0,-5.113000392913818,0,0
2189.220995,0.034088134765625,-0.998016357421875,-0.0496826171875,-0.017120361328125,-0.18310546875,0.30517578125,0.0,0.0345458984375,-0.0657958984375,-0.9735107421875,15.0,-199.0,316.0,101940.0,-5.112000465393066,0,0
2189.227995,0.034088134765625,-0.998016357421875,-0.0496826171875,-0.017120361328125,0.0,0.06103515625,-0.18310546875,0.03759765625,-0.0645751953125,-0.9754638671875,15.0,-199.0,316.0,101940.0,-5.112000465393066,0,0
2189.235019,0.034088134765625,-0.998016357421875,-0.0496826171875,-0.017120361328125,0.06103515625,0.18310546875,0.0,0.037353515625,-0.066162109375,-0.9749755859375,15.0,-199.0,316.0,101940.0,-5.112000465393066,0,0
2189.242003,0.034088134765625,-0.998016357421875,-0.0496826171875,-0.017120361328125,0.1220703125,0.06103515625,0.1220703125,0.03759765625,-0.0654296875,-0.975830078125,15.0,-199.0,316.0,101940.0,-5.112000465393066,0,0
2189.249018,0.034088134765625,-0.998016357421875,-0.0496826171875,-0.017120361328125,0.1220703125,-0.06103515625,0.0,0.0380859375,-0.06591796875,-0.975341796875,15.0,-199.0,316.0,101940.0,-5.112000465393066,0,0
2189.255047,0.034088134765625,-0.998016357421875,-0.0496826171875,-0.017120361328125,0.1220703125,-0.06103515625,0.0,0.0380859375,-0.06591796875,-0.975341796875,15.0,-199.0,316.0,101940.0,-5.112000465393066,0,0
2189.261999,0.034088134765625,-0.998016357421875,-0.0496826171875,-0.017120361328125,0.0,0.18310546875,-0.06103515625,0.0364990234375,-0.064697265625,-0.9752197265625,15.0,-199.0,316.0,101940.0,-5.112000465393066,0,0
2189.269016,0.0340576171875,-0.998016357421875,-0.0496826171875,-0.017120361328125,0.06103515625,0.1220703125,-0.06103515625,0.0361328125,-0.063232421875,-0.974365234375,15.0,-199.0,316.0,101940.0,-5.112000465393066,0,0
2189.275997,0.034088134765625,-0.99798583984375,-0.05035400390625,-0.017120361328125,0.0,0.1220703125,-0.06103515625,0.0355224609375,-0.065673828125,-0.9742431640625,16.0,-198.0,316.0,101940.0,-5.112000465393066,0,0
2189.282997,0.034088134765625,-0.99798583984375,-0.05035400390625,-0.017120361328125,-0.1220703125,0.30517578125,-0.18310546875,0.0369873046875,-0.0626220703125,-0.971435546875,16.0,-198.0,316.0,101940.0,-5.112000465393066,0,0
2189.290022,0.034088134765625,-0.99798583984375,-0.05035400390625,-0.017120361328125,0.18310546875,0.18310546875,0.06103515625,0.0362548828125,-0.0653076171875,-0.974365234375,16.0,-198.0,316.0,101940.0,-5.112000465393066,0,0
2189.297001,0.034088134765625,-0.99798583984375,-0.05035400390625,-0.017120361328125,0.06103515625,0.3662109375,0.18310546875,0.036865234375,-0.0667724609375,-0.9735107421875,16.0,-198.0,316.0,101940.0,-5.112000465393066,0,0
2189.304015,0.034088134765625,-0.99798583984375,-0.05035400390625,-0.017120361328125,0.1220703125,0.1220703125,-0.1220703125,0.0369873046875,-0.0655517578125,-0.974853515625,16.0,-198.0,316.0,101940.0,-5.112000465393066,0,0
2189.310995,0.034088134765625,-0.99798583984375,-0.05035400390625,-0.017120361328125,0.0,0.06103515625,0.06103515625,0.0362548828125,-0.0626220703125,-0.97412109375,16.0,-198.0,316.0,101940.0,-5.112000465393066,0,0
2189.317995,0.034088134765625,-0.99798583984375,-0.05035400390625,-0.017120361328125,0.1220703125,0.1220703125,0.06103515625,0.0372314453125,-0.0648193359375,-0.9725341796875,16.0,-198.0,316.0,101940.0,-5.11400032043457,0,0
2189.325019,0.034088134765625,-0.99798583984375,-0.05035400390625,-0.017120361328125,0.06103515625,0.1220703125,-0.18310546875,0.0367431640625,-0.0653076171875,-0.9736328125,16.0,-198.0,316.0,101940.0,-5.11400032043457,0,0
2189.332003,0.034088134765625,-0.99798583984375,-0.05035400390625,-0.017120361328125,0.1220703125,0.1220703125,0.1220703125,0.0362548828125,-0.065673828125,-0.974365234375,16.0,-198.0,316.0,101940.0,-5.11400032043457,0,0
2189.339018,0.034088134765625,-0.99798583984375,-0.05035400390625,-0.017120361328125,0.42724609375,0.06103515625,-0.1220703125,0.0367431640625,-0.0645751953125,-0.9744873046875,16.0,-198.0,316.0,101940.0,-5.11400032043457,0,0
2189.345046,0.034088134765625,-0.99798583984375,-0.05035400390625,-0.017120361328125,0.42724609375,0.06103515625,-0.1220703125,0.0367431640625,-0.0645751953125,-0.9744873046875,16.0,-198.0,316.0,101940.0,-5.11400032043457,0,0
2189.351999,0.03411865234375,-0.99798583984375,-0.05035400390625,-0.017120361328125,0.1220703125,0.18310546875,0.0,0.03515625,-0.0673828125,-0.9730224609375,16.0,-198.0,316.0,101940.0,-5.11400032043457,0,0
2189.359016,0.03411865234375,-0.99798583984375,-0.05035400390625,-0.01708984375,0.0,0.06103515625,0.06103515625,0.0357666015625,-0.065673828125,-0.974609375,16.0,-198.0,316.0,101940.0,-5.11400032043457,0,0
2189.380022,0.034149169921875,-0.997955322265625,-0.0509033203125,-0.017059326171875,0.1220703125,0.3662109375,-0.06103515625,0.0364990234375,-0.0638427734375,-0.973876953125,16.0,-197.0,317.0,101940.0,-5.11400032043457,0,0
2189.387001,0.034149169921875,-0.997955322265625,-0.0509033203125,-0.017059326171875,-0.1220703125,0.30517578125,0.1220703125,0.034912109375,-0.064453125,-0.9739990234375,16.0,-197.0,317.0,101940.0,-5.11400032043457,0,0
2189.394015,0.03411865234375,-0.997955322265625,-0.0509033203125,-0.017059326171875,0.06103515625,0.18310546875,-0.18310546875,0.0347900390625,-0.062744140625,-0.97509765625,16.0,-197.0,317.0,101940.0,-5.11400032043457,0,0
2189.400995,0.03411865234375,-0.997955322265625,-0.0509033203125,-0.017059326171875,0.3662109375,0.1220703125,-0.244140625,0.0364990234375,-0.06396484375,-0.9742431640625,16.0,-197.0,317.0,101940.0,-5.11400032043457,0,0
2189.407999,0.03411865234375,-0.997955322265625,-0.0509033203125,-0.017059326171875,-0.06103515625,0.244140625,0.06103515625,0.037841796875,-0.0640869140625,-0.9732666015625,16.0,-197.0,317.0,101940.0,-5.11400032043457,0,0
2189.41502,0.03411865234375,-0.997955322265625,-0.0509033203125,-0.017059326171875,-0.06103515625,0.18310546875,0.1220703125,0.0360107421875,-0.066162109375,-0.97607421875,16.0,-197.0,317.0,101940.0,-5.11400032043457,0,0
2189.422003,0.03411865234375,-0.997955322265625,-0.0509033203125,-0.017059326171875,0.0,0.244140625,-0.06103515625,0.0372314453125,-0.0650634765625,-0.9735107421875,16.0,-197.0,317.0,101940.0,-5.113000392913818,0,0
2189.429018,0.03411865234375,-0.997955322265625,-0.0509033203125,-0.017059326171875,-0.06103515625,0.1220703125,-0.244140625,0.036376953125,-0.0660400390625,-0.972412109375,16.0,-197.0,317.0,101940.0,-5.113000392913818,0,0
2189.435997,0.03411865234375,-0.997955322265625,-0.0509033203125,-0.01702880859375,0.0,0.244140625,0.18310546875,0.037109375,-0.062255859375,-0.974365234375,16.0,-197.0,317.0,101940.0,-5.113000392913818,0,0
2189.44203,0.03411865234375,-0.997955322265625,-0.0509033203125,-0.01702880859375,0.0,0.244140625,0.18310546875,0.037109375,-0.062255859375,-0.974365234375,16.0,-197.0,317.0,101940.0,-5.113000392913818,0,0
2189.449016,0.03411865234375,-0.997955322265625,-0.0509033203125,-0.017059326171875,-0.18310546875,0.0,0.0,0.0355224609375,-0.0653076171875,-0.9742431640625,16.0,-197.0,317.0,101940.0,-5.113000392913818,0,0
2189.470022,0.034088134765625,-0.997955322265625,-0.0509033203125,-0.017059326171875,-0.06103515625,0.1220703125,-0.48828125,0.036376953125,-0.064453125,-0.9736328125,17.0,-197.0,317.0,101940.0,-5.113000392913818,0,0
2189.477001,0.03411865234375,-0.9979248046875,-0.051483154296875,-0.01702880859375,0.0,0.18310546875,0.0,0.0369873046875,-0.067138671875,-0.9737548828125,17.0,-197.0,317.0,101940.0,-5.113000392913818,0,0
2189.484015,0.034088134765625,-0.9979248046875,-0.051483154296875,-0.01702880859375,-0.06103515625,0.0,0.0,0.037353515625,-0.0633544921875,-0.97509765625,17.0,-197.0,317.0,101940.0,-5.113000392913818,0,0
2189.491,0.034088134765625,-0.9979248046875,-0.051483154296875,-0.01702880859375,-0.244140625,0.18310546875,-0.1220703125,0.0360107421875,-0.063720703125,-0.9735107421875,17.0,-197.0,317.0,101940.0,-5.113000392913818,0,0
2189.497999,0.034088134765625,-0.9979248046875,-0.051483154296875,-0.01702880859375,0.0,0.1220703125,0.1220703125,0.034912109375,-0.0633544921875,-0.973388671875,17.0,-197.0,317.0,101940.0,-5.113000392913818,0,0
2189.50502,0.034088134765625,-0.9979248046875,-0.051483154296875,-0.016998291015625,-0.06103515625,0.1220703125,0.18310546875,0.0367431640625,-0.066162109375,-0.9749755859375,17.0,-197.0,317.0,101940.0,-5.113000392913818,0,0
2189.512003,0.034088134765625,-0.9979248046875,-0.051483154296875,-0.016998291015625,0.18310546875,0.1220703125,0.0,0.035888671875,-0.06396484375,-0.97705078125,17.0,-197.0,317.0,101940.0,-5.113000392913818,0,0
2189.519018,0.034088134765625,-0.9979248046875,-0.051483154296875,-0.016998291015625,0.244140625,0.1220703125,0.18310546875,0.0361328125,-0.0657958984375,-0.975341796875,17.0,-197.0,317.0,101940.0,-5.11400032043457,0,0
2189.525997,0.034088134765625,-0.9979248046875,-0.051483154296875,-0.016998291015625,0.0,0.0,-0.1220703125,0.03662109375,-0.0655517578125,-0.974853515625,17.0,-197.0,317.0,101940.0,-5.11400032043457,0,0
2189.532025,0.034088134765625,-0.9979248046875,-0.051483154296875,-0.016998291015625,0.0,0.0,-0.1220703125,0.03662109375,-0.0655517578125,-0.974853515625,17.0,-197.0,317.0,101940.0,-5.11400032043457,0,0
2189.539016,0.034088134765625,-0.9979248046875,-0.051483154296875,-0.016998291015625,-0.06103515625,0.06103515625,0.06103515625,0.0360107421875,-0.0654296875,-0.9737548828125,17.0,-197.0,317.0,101940.0,-5.11400032043457,0,0
2189.545997,0.034088134765625,-0.9979248046875,-0.051483154296875,-0.016998291015625,0.0,0.3662109375,0.18310546875,0.037109375,-0.0648193359375,-0.972900390625,17.0,-197.0,317.0,101940.0,-5.11400032043457,0,0
2189.552997,0.034088134765625,-0.9979248046875,-0.051483154296875,-0.016998291015625,0.06103515625,0.06103515625,0.0,0.0372314453125,-0.0650634765625,-0.9739990234375,17.0,-197.0,317.0,101940.0,-5.11400032043457,0,0
2189.560022,0.034088134765625,-0.9979248046875,-0.051483154296875,-0.016998291015625,-0.1220703125,0.244140625,-0.06103515625,0.0364990234375,-0.06591796875,-0.974365234375,17.0,-197.0,317.0,101940.0,-5.11400032043457,0,0
2189.567001,0.034088134765625,-0.9979248046875,-0.051483154296875,-0.016998291015625,0.0,0.3662109375,-0.06103515625,0.0364990234375,-0.06396484375,-0.9713134765625,17.0,-197.0,317.0,101940.0,-5.11400032043457,0,0
2189.574015,0.034088134765625,-0.997894287109375,-0.052032470703125,-0.0169677734375,0.06103515625,0.30517578125,-0.06103515625,0.0361328125,-0.06396484375,-0.9732666015625,17.0,-198.0,317.0,101940.0,-5.11400032043457,0,0
2189.580995,0.034088134765625,-0.997894287109375,-0.052032470703125,-0.0169677734375,-0.1220703125,0.1220703125,-0.1220703125,0.037353515625,-0.066162109375,-0.9744873046875,17.0,-198.0,317.0,101940.0,-5.11400032043457,0,0
2189.587995,0.034088134765625,-0.997894287109375,-0.052032470703125,-0.0169677734375,-0.06103515625,0.3662109375,0.18310546875,0.03564453125,-0.065673828125,-0.9730224609375,17.0,-198.0,317.0,101940.0,-5.11400032043457,0,0
2189.595019,0.034088134765625,-0.997894287109375,-0.052032470703125,-0.0169677734375,0.244140625,0.3662109375,-0.1220703125,0.0350341796875,-0.0634765625,-0.976806640625,17.0,-198.0,317.0,101940.0,-5.11400032043457,0,0
2189.602003,0.034088134765625,-0.997894287109375,-0.052032470703125,-0.0169677734375,0.1220703125,0.1220703125,0.06103515625,0.0361328125,-0.0673828125,-0.9736328125,17.0,-198.0,317.0,101940.0,-5.11400032043457,0,0
2189.609019,0.034088134765625,-0.997894287109375,-0.052032470703125,-0.0169677734375,0.0,0.0,-0.06103515625,0.03759765625,-0.06396484375,-0.973876953125,17.0,-198.0,317.0,101940.0,-5.11400032043457,0,0
2189.615997,0.034088134765625,-0.997894287109375,-0.052032470703125,-0.0169677734375,0.1220703125,0.1220703125,0.06103515625,0.0360107421875,-0.066162109375,-0.9736328125,17.0,-198.0,317.0,101940.0,-5.11400032043457,0,0
2189.622025,0.034088134765625,-0.997894287109375,-0.052032470703125,-0.0169677734375,0.1220703125,0.1220703125,0.06103515625,0.0360107421875,-0.066162109375,-0.9736328125,17.0,-198.0,317.0,101940.0,-5.11400032043457,0,0
2189.642997,0.03411865234375,-0.997894287109375,-0.052032470703125,-0.0169677734375,0.1220703125,0.0,-0.06103515625,0.0361328125,-0.064208984375,-0.972900390625,17.0,-198.0,317.0,101940.0,-5.11400032043457,0,0
2189.650022,0.03411865234375,-0.997894287109375,-0.052032470703125,-0.0169677734375,0.18310546875,0.3662109375,-0.06103515625,0.0377197265625,-0.06591796875,-0.9742431640625,17.0,-198.0,317.0,101940.0,-5.11400032043457,0,0
2189.657001,0.03411865234375,-0.997894287109375,-0.052032470703125,-0.0169677734375,0.06103515625,0.18310546875,0.0,0.0360107421875,-0.067626953125,-0.9744873046875,17.0,-198.0,317.0,101940.0,-5.11400032043457,0,0
2189.664015,0.03411865234375,-0.997894287109375,-0.052032470703125,-0.0169677734375,0.18310546875,0.06103515625,0.1220703125,0.0345458984375,-0.06494140625,-0.9752197265625,17.0,-198.0,317.0,101940.0,-5.11400032043457,0,0
2189.705997,0.034149169921875,-0.99786376953125,-0.052581787109375,-0.016937255859375,-0.06103515625,0.244140625,-0.18310546875,0.0345458984375,-0.0653076171875,-0.9725341796875,17.0,-198.0,317.0,101940.0,-5.11400032043457,0,0
2189.712996,0.034149169921875,-0.99786376953125,-0.052581787109375,-0.016937255859375,0.1220703125,0.1220703125,0.1220703125,0.036376953125,-0.065185546875,-0.973876953125,17.0,-198.0,317.0,101940.0,-5.11400032043457,0,0
2189.732997,0.034149169921875,-0.99786376953125,-0.052581787109375,-0.016937255859375,0.06103515625,0.06103515625,-0.18310546875,0.0369873046875,-0.063720703125,-0.973388671875,17.0,-198.0,317.0,101940.0,-5.11400032043457,0,0
2189.740022,0.034149169921875,-0.99786376953125,-0.052581787109375,-0.016937255859375,0.0,0.18310546875,0.0,0.036376953125,-0.062744140625,-0.9737548828125,17.0,-198.0,317.0,101940.0,-5.11400032043457,0,0
2189.747001,0.03411865234375,-0.99786376953125,-0.052581787109375,-0.016937255859375,-0.06103515625,0.244140625,-0.1220703125,0.0374755859375,-0.062255859375,-0.9736328125,17.0,-198.0,317.0,101940.0,-5.11400032043457,0,0
2189.754015,0.03411865234375,-0.99786376953125,-0.052581787109375,-0.016937255859375,-0.06103515625,0.1220703125,-0.18310546875,0.0361328125,-0.0655517578125,-0.9749755859375,17.0,-198.0,317.0,101940.0,-5.11400032043457,0,0
2189.761,0.03411865234375,-0.99786376953125,-0.052581787109375,-0.016937255859375,0.06103515625,0.1220703125,-0.30517578125,0.0361328125,-0.0655517578125,-0.9754638671875,17.0,-198.0,317.0,101940.0,-5.11400032043457,0,0
2189.767999,0.034149169921875,-0.99786376953125,-0.052581787109375,-0.016937255859375,0.244140625,0.0,0.0,0.037353515625,-0.0653076171875,-0.9742431640625,17.0,-198.0,317.0,101940.0,-5.11400032043457,0,0
2189.77502,0.034149169921875,-0.997833251953125,-0.05328369140625,-0.01690673828125,0.1220703125,0.30517578125,0.1220703125,0.03662109375,-0.06640625,-0.974365234375,18.0,-198.0,317.0,101940.0,-5.113000392913818,0,0
2189.782003,0.034149169921875,-0.997833251953125,-0.05328369140625,-0.01690673828125,-0.06103515625,0.0,0.06103515625,0.0350341796875,-0.0633544921875,-0.973876953125,18.0,-198.0,317.0,101940.0,-5.113000392913818,0,0
2189.789018,0.034149169921875,-0.997833251953125,-0.05328369140625,-0.01690673828125,0.0,0.1220703125,0.18310546875,0.0357666015625,-0.0643310546875,-0.97314453125,18.0,-198.0,317.0,101940.0,-5.113000392913818,0,0
2189.795997,0.034149169921875,-0.997833251953125,-0.05328369140625,-0.01690673828125,0.18310546875,0.30517578125,0.0,0.0350341796875,-0.0660400390625,-0.974609375,18.0,-198.0,317.0,101940.0,-5.113000392913818,0,0
2189.802996,0.034149169921875,-0.997833251953125,-0.05328369140625,-0.01690673828125,-0.18310546875,0.06103515625,0.0,0.035400390625,-0.0657958984375,-0.9732666015625,18.0,-198.0,317.0,101940.0,-5.113000392913818,0,0
2189.809029,0.034149169921875,-0.997833251953125,-0.05328369140625,-0.01690673828125,-0.18310546875,0.06103515625,0.0,0.035400390625,-0.0657958984375,-0.9732666015625,18.0,-198.0,317.0,101940.0,-5.113000392913818,0,0
2189.815997,0.034149169921875,-0.997833251953125,-0.05328369140625,-0.01690673828125,-0.06103515625,0.30517578125,-0.1220703125,0.0372314453125,-0.065673828125,-0.97412109375,18.0,-198.0,317.0,101940.0,-5.113000392913818,0,0
2189.822997,0.034149169921875,-0.997833251953125,-0.05328369140625,-0.01690673828125,-0.244140625,-0.06103515625,0.0,0.036865234375,-0.06591796875,-0.97314453125,18.0,-198.0,317.0,101940.0,-5.113000392913818,0,0
2189.830022,0.0341796875,-0.997833251953125,-0.053253173828125,-0.01690673828125,0.18310546875,0.1220703125,-0.1220703125,0.0355224609375,-0.0667724609375,-0.9752197265625,18.0,-198.0,317.0,101940.0,-5.113000392913818,0,0
2189.837001,0.0341796875,-0.997833251953125,-0.053253173828125,-0.01690673828125,0.0,0.1220703125,0.0,0.0367431640625,-0.065673828125,-0.974609375,18.0,-198.0,317.0,101940.0,-5.113000392913818,0,0
2189.844015,0.0341796875,-0.997833251953125,-0.053253173828125,-0.016876220703125,-0.3662109375,0.244140625,0.06103515625,0.034912109375,-0.0657958984375,-0.97314453125,18.0,-198.0,317.0,101940.0,-5.113000392913818,0,0
2189.850995,0.0341796875,-0.997833251953125,-0.053253173828125,-0.016876220703125,0.06103515625,0.1220703125,-0.06103515625,0.03564453125,-0.0650634765625,-0.976318359375,18.0,-198.0,317.0,101940.0,-5.113000392913818,0,0
2189.857995,0.0341796875,-0.997833251953125,-0.053253173828125,-0.016876220703125,0.18310546875,0.48828125,-0.1220703125,0.0357666015625,-0.0675048828125,-0.973388671875,18.0,-198.0,317.0,101940.0,-5.113000392913818,0,0
2189.865019,0.034210205078125,-0.997833251953125,-0.053253173828125,-0.016876220703125,0.1220703125,0.18310546875,0.06103515625,0.0374755859375,-0.067138671875,-0.971435546875,18.0,-198.0,317.0,101940.0,-5.113000392913818,0,0
2189.872003,0.0341796875,-0.997833251953125,-0.053253173828125,-0.016876220703125,0.244140625,0.30517578125,-0.18310546875,0.0369873046875,-0.065185546875,-0.9725341796875,18.0,-198.0,317.0,101940.0,-5.113000392913818,0,0
2189.879018,0.034210205078125,-0.997802734375,-0.053955078125,-0.016845703125,0.244140625,0.06103515625,-0.244140625,0.035400390625,-0.0654296875,-0.9744873046875,18.0,-198.0,317.0,101940.0,-5.113000392913818,0,0
2189.885997,0.034210205078125,-0.997802734375,-0.053955078125,-0.016845703125,0.06103515625,0.18310546875,0.244140625,0.0361328125,-0.0634765625,-0.97509765625,18.0,-198.0,317.0,101940.0,-5.113000392913818,0,0
2189.906049,0.0341796875,-0.997802734375,-0.053955078125,-0.016845703125,0.18310546875,0.3662109375,-0.1220703125,0.0345458984375,-0.0640869140625,-0.9739990234375,18.0,-198.0,317.0,101940.0,-5.113000392913818,0,0
2189.912997,0.034210205078125,-0.997802734375,-0.053955078125,-0.016845703125,0.18310546875,0.18310546875,0.18310546875,0.0367431640625,-0.0662841796875,-0.973388671875,18.0,-198.0,317.0,101940.0,-5.113000392913818,0,0
2189.920022,0.034210205078125,-0.997802734375,-0.053955078125,-0.016845703125,-0.244140625,0.244140625,0.0,0.0347900390625,-0.0653076171875,-0.9739990234375,18.0,-198.0,317.0,101940.0,-5.113000392913818,0,0
2189.927001,0.034210205078125,-0.997802734375,-0.053955078125,-0.016845703125,0.06103515625,0.1220703125,0.18310546875,0.03515625,-0.06494140625,-0.9736328125,18.0,-198.0,317.0,101940.0,-5.113000392913818,0,0
2189.934015,0.034210205078125,-0.997802734375,-0.053955078125,-0.016845703125,0.244140625,0.30517578125,0.06103515625,0.0372314453125,-0.0655517578125,-0.9742431640625,18.0,-198.0,317.0,101940.0,-5.113000392913818,0,0
2189.940995,0.034210205078125,-0.997802734375,-0.053955078125,-0.016845703125,0.06103515625,0.30517578125,-0.244140625,0.0355224609375,-0.064208984375,-0.9752197265625,18.0,-198.0,317.0,101940.0,-5.113000392913818,0,0
2189.947995,0.0341796875,-0.997802734375,-0.053955078125,-0.016845703125,0.06103515625,0.18310546875,0.244140625,0.037353515625,-0.0640869140625,-0.97509765625,18.0,-198.0,317.0,101940.0,-5.113000392913818,0,0
2189.955019,0.0341796875,-0.997802734375,-0.053955078125,-0.016845703125,0.18310546875,0.1220703125,0.18310546875,0.03759765625,-0.064208984375,-0.9720458984375,18.0,-198.0,317.0,101940.0,-5.113000392913818,0,0
2189.962003,0.034210205078125,-0.997802734375,-0.053955078125,-0.016845703125,0.18310546875,0.18310546875,0.0,0.03759765625,-0.0657958984375,-0.97509765625,18.0,-198.0,317.0,101940.0,-5.113000392913818,0,0
2189.969018,0.034210205078125,-0.997802734375,-0.053955078125,-0.016845703125,-0.06103515625,0.244140625,-0.1220703125,0.0345458984375,-0.0657958984375,-0.9735107421875,18.0,-198.0,317.0,101940.0,-5.113000392913818,0,0
2189.975997,0.034210205078125,-0.997772216796875,-0.05450439453125,-0.016815185546875,-0.1220703125,0.6103515625,-0.244140625,0.0364990234375,-0.063720703125,-0.972900390625,17.0,-198.0,317.0,101940.0,-5.113000392913818,0,0
2189.996049,0.03424072265625,-0.997772216796875,-0.05450439453125,-0.016815185546875,0.06103515625,0.3662109375,0.18310546875,0.0364990234375,-0.06884765625,-0.9764404296875,17.0,-198.0,317.0,101940.0,-5.113000392913818,0,0
2190.002997,0.03424072265625,-0.997772216796875,-0.05450439453125,-0.016815185546875,0.18310546875,0.30517578125,0.0,0.0362548828125,-0.067138671875,-0.97509765625,17.0,-198.0,317.0,101940.0,-5.113000392913818,0,0
2190.010022,0.03424072265625,-0.997772216796875,-0.05450439453125,-0.016815185546875,0.06103515625,0.1220703125,-0.1220703125,0.0362548828125,-0.06640625,-0.97509765625,17.0,-198.0,317.0,101940.0,-5.113000392913818,0,0
2190.017001,0.03424072265625,-0.997772216796875,-0.05450439453125,-0.016815185546875,0.244140625,0.244140625,-0.06103515625,0.0338134765625,-0.0650634765625,-0.97314453125,17.0,-198.0,317.0,101940.0,-5.113000392913818,0,0
2190.024015,0.03424072265625,-0.997772216796875,-0.05450439453125,-0.016815185546875,0.0,0.06103515625,-0.18310546875,0.0374755859375,-0.0672607421875,-0.97412109375,17.0,-198.0,317.0,101940.0,-5.113000392913818,0,0
2190.031,0.03424072265625,-0.997772216796875,-0.05450439453125,-0.016815185546875,0.0,0.30517578125,0.1220703125,0.0357666015625,-0.064453125,-0.9749755859375,17.0,-198.0,317.0,101940.0,-5.113000392913818,0,0
2190.037999,0.034271240234375,-0.997772216796875,-0.05450439453125,-0.016815185546875,0.18310546875,0.1220703125,-0.06103515625,0.0379638671875,-0.0655517578125,-0.9730224609375,17.0,-198.0,317.0,101940.0,-5.113000392913818,0,0
2190.04502,0.034271240234375,-0.997772216796875,-0.05450439453125,-0.016815185546875,-0.18310546875,0.244140625,0.0,0.0372314453125,-0.0662841796875,-0.974853515625,17.0,-198.0,317.0,101940.0,-5.113000392913818,0,0
2190.052003,0.034271240234375,-0.997772216796875,-0.05450439453125,-0.016815185546875,0.06103515625,0.0,-0.1220703125,0.036865234375,-0.0655517578125,-0.9742431640625,17.0,-198.0,317.0,101940.0,-5.113000392913818,0,0
2190.059018,0.034271240234375,-0.997772216796875,-0.05450439453125,-0.016815185546875,0.1220703125,0.244140625,0.06103515625,0.0377197265625,-0.068115234375,-0.9735107421875,17.0,-198.0,317.0,101940.0,-5.113000392913818,0,0
2190.065997,0.034271240234375,-0.997772216796875,-0.05450439453125,-0.016815185546875,0.1220703125,0.18310546875,-0.1220703125,0.0361328125,-0.0677490234375,-0.9720458984375,17.0,-198.0,317.0,101940.0,-5.113000392913818,0,0
2190.072996,0.034271240234375,-0.997772216796875,-0.05450439453125,-0.016815185546875,0.244140625,0.244140625,0.244140625,0.0352783203125,-0.0648193359375,-0.97412109375,16.0,-197.0,317.0,101940.0,-5.113000392913818,0,0
2190.080017,0.034271240234375,-0.99774169921875,-0.054840087890625,-0.016815185546875,0.18310546875,0.1220703125,-0.244140625,0.0364990234375,-0.062255859375,-0.9725341796875,16.0,-197.0,317.0,101940.0,-5.113000392913818,0,0
2190.087001,0.034271240234375,-0.99774169921875,-0.054840087890625,-0.016815185546875,-0.244140625,0.1220703125,-0.30517578125,0.035400390625,-0.0673828125,-0.9730224609375,16.0,-197.0,317.0,101940.0,-5.113000392913818,0,0
2190.093034,0.034271240234375,-0.99774169921875,-0.054840087890625,-0.016815185546875,-0.244140625,0.1220703125,-0.30517578125,0.035400390625,-0.0673828125,-0.9730224609375,16.0,-197.0,317.0,101940.0,-5.113000392913818,0,0
2190.100022,0.034271240234375,-0.99774169921875,-0.054840087890625,-0.016815185546875,-0.18310546875,0.3662109375,-0.06103515625,0.0374755859375,-0.065673828125,-0.9732666015625,16.0,-197.0,317.0,101940.0,-5.113000392913818,0,0
2190.107001,0.034271240234375,-0.99774169921875,-0.054840087890625,-0.01678466796875,-0.1220703125,0.3662109375,-0.244140625,0.0352783203125,-0.0634765625,-0.9737548828125,16.0,-197.0,317.0,101940.0,-5.113000392913818,0,0
2190.114015,0.034271240234375,-0.99774169921875,-0.054840087890625,-0.01678466796875,0.0,0.18310546875,0.1220703125,0.03515625,-0.065185546875,-0.974365234375,16.0,-197.0,317.0,101940.0,-5.113000392913818,0,0
2190.120995,0.034271240234375,-0.99774169921875,-0.054840087890625,-0.01678466796875,0.3662109375,0.30517578125,0.06103515625,0.0380859375,-0.0645751953125,-0.9730224609375,16.0,-197.0,317.0,101940.0,-5.113000392913818,0,0
2190.127995,0.034271240234375,-0.99774169921875,-0.054840087890625,-0.016815185546875,-0.18310546875,0.06103515625,-0.244140625,0.0386962890625,-0.0655517578125,-0.9739990234375,16.0,-197.0,317.0,101940.0,-5.113000392913818,0,0
2190.135019,0.034271240234375,-0.99774169921875,-0.054840087890625,-0.016815185546875,0.1220703125,0.1220703125,0.18310546875,0.0361328125,-0.0626220703125,-0.9737548828125,16.0,-197.0,317.0,101940.0,-5.113000392913818,0,0
2190.142003,0.034271240234375,-0.99774169921875,-0.054840087890625,-0.016815185546875,-0.1220703125,0.3662109375,-0.18310546875,0.038818359375,-0.065185546875,-0.973388671875,16.0,-197.0,317.0,101940.0,-5.113000392913818,0,0
2190.149018,0.034271240234375,-0.99774169921875,-0.054840087890625,-0.016815185546875,0.18310546875,0.1220703125,-0.18310546875,0.03564453125,-0.0645751953125,-0.97216796875,16.0,-197.0,317.0,101940.0,-5.113000392913818,0,0
2190.170016,0.034271240234375,-0.99774169921875,-0.054840087890625,-0.016815185546875,0.0,0.244140625,-0.18310546875,0.037841796875,-0.0654296875,-0.9732666015625,16.0,-196.0,317.0,101940.0,-5.112000465393066,0,0
2190.177001,0.0343017578125,-0.99774169921875,-0.05517578125,-0.01678466796875,-0.1220703125,0.1220703125,-0.1220703125,0.0352783203125,-0.0648193359375,-0.97265625,16.0,-196.0,317.0,101940.0,-5.112000465393066,0,0
2190.183033,0.0343017578125,-0.99774169921875,-0.05517578125,-0.01678466796875,-0.1220703125,0.1220703125,-0.1220703125,0.0352783203125,-0.0648193359375,-0.97265625,16.0,-196.0,317.0,101940.0,-5.112000465393066,0,0
2190.190022,0.0343017578125,-0.99774169921875,-0.05517578125,-0.01678466796875,-0.18310546875,0.30517578125,0.06103515625,0.0377197265625,-0.064453125,-0.9730224609375,16.0,-196.0,317.0,101940.0,-5.112000465393066,0,0
2190.197001,0.0343017578125,-0.99774169921875,-0.05517578125,-0.01678466796875,0.06103515625,0.1220703125,-0.06103515625,0.035888671875,-0.0635986328125,-0.97265625,16.0,-196.0,317.0,101940.0,-5.112000465393066,0,0
2190.204015,0.0343017578125,-0.99774169921875,-0.05517578125,-0.01678466796875,0.18310546875,0.06103515625,0.18310546875,0.0355224609375,-0.0631103515625,-0.9744873046875,16.0,-196.0,317.0,101940.0,-5.112000465393066,0,0
2190.210995,0.0343017578125,-0.99774169921875,-0.05517578125,-0.01678466796875,-0.06103515625,0.0,0.0,0.0360107421875,-0.0660400390625,-0.9736328125,16.0,-196.0,317.0,101940.0,-5.112000465393066,0,0
2190.217995,0.0343017578125,-0.99774169921875,-0.05517578125,-0.01678466796875,0.0,0.30517578125,-0.3662109375,0.0364990234375,-0.0655517578125,-0.973876953125,16.0,-196.0,317.0,101940.0,-5.112000465393066,0,0
2190.225019,0.0343017578125,-0.99774169921875,-0.05517578125,-0.01678466796875,-0.18310546875,0.244140625,-0.1220703125,0.037109375,-0.067626953125,-0.9716796875,16.0,-196.0,317.0,101940.0,-5.112000465393066,0,0
2190.232003,0.0343017578125,-0.99774169921875,-0.05517578125,-0.01678466796875,0.0,0.3662109375,0.0,0.03759765625,-0.0634765625,-0.97314453125,16.0,-196.0,317.0,101940.0,-5.112000465393066,0,0
2190.252996,0.0343017578125,-0.99774169921875,-0.05517578125,-0.01678466796875,0.0,0.18310546875,0.1220703125,0.03662109375,-0.06396484375,-0.9732666015625,16.0,-196.0,317.0,101940.0,-5.112000465393066,0,0
2190.260016,0.0343017578125,-0.99774169921875,-0.05517578125,-0.01678466796875,0.1220703125,-0.06103515625,0.06103515625,0.037109375,-0.065185546875,-0.97216796875,16.0,-196.0,317.0,101940.0,-5.112000465393066,0,0
2190.267001,0.0343017578125,-0.99774169921875,-0.05517578125,-0.01678466796875,0.0,0.0,0.244140625,0.0361328125,-0.06201171875,-0.9725341796875,16.0,-196.0,317.0,101940.0,-5.112000465393066,0,0
2190.274018,0.0343017578125,-0.997711181640625,-0.055419921875,-0.01678466796875,0.06103515625,0.06103515625,0.06103515625,0.03759765625,-0.06689453125,-0.9732666015625,16.0,-197.0,318.0,101940.0,-5.112000465393066,0,0
2190.280053,0.0343017578125,-0.997711181640625,-0.055419921875,-0.01678466796875,0.06103515625,0.06103515625,0.06103515625,0.03759765625,-0.06689453125,-0.9732666015625,16.0,-197.0,318.0,101940.0,-5.112000465393066,0,0
2190.287001,0.034271240234375,-0.997711181640625,-0.055419921875,-0.01678466796875,-0.244140625,0.1220703125,0.0,0.037109375,-0.0633544921875,-0.973876953125,16.0,-197.0,318.0,101940.0,-5.112000465393066,0,0
2190.294015,0.0343017578125,-0.997711181640625,-0.055419921875,-0.016815185546875,0.0,0.06103515625,0.0,0.0377197265625,-0.0654296875,-0.973876953125,16.0,-197.0,318.0,101940.0,-5.112000465393066,0,0
2190.300996,0.0343017578125,-0.997711181640625,-0.055419921875,-0.016815185546875,0.18310546875,0.18310546875,0.06103515625,0.0384521484375,-0.0645751953125,-0.9725341796875,16.0,-197.0,318.0,101940.0,-5.112000465393066,0,0
2190.307999,0.034271240234375,-0.997711181640625,-0.055419921875,-0.016815185546875,0.0,0.18310546875,-0.06103515625,0.03759765625,-0.063720703125,-0.9744873046875,16.0,-197.0,318.0,101940.0,-5.112000465393066,0,0
2190.31502,0.0343017578125,-0.997711181640625,-0.055419921875,-0.016815185546875,-0.06103515625,0.06103515625,0.06103515625,0.0369873046875,-0.06591796875,-0.9742431640625,16.0,-197.0,318.0,101940.0,-5.112000465393066,0,0
2190.322003,0.0343017578125,-0.997711181640625,-0.055419921875,-0.016815185546875,-0.06103515625,0.0,-0.1220703125,0.0352783203125,-0.0650634765625,-0.97119140625,16.0,-197.0,318.0,101940.0,-5.112000465393066,0,0
2190.329018,0.0343017578125,-0.997711181640625,-0.055419921875,-0.016815185546875,-0.1220703125,0.18310546875,0.0,0.0362548828125,-0.06640625,-0.9736328125,16.0,-197.0,318.0,101940.0,-5.112000465393066,0,0
2190.335997,0.0343017578125,-0.997711181640625,-0.055419921875,-0.016815185546875,-0.18310546875,0.0,-0.244140625,0.03759765625,-0.0633544921875,-0.974609375,16.0,-197.0,318.0,101940.0,-5.112000465393066,0,0
2190.342996,0.0343017578125,-0.997711181640625,-0.055419921875,-0.01678466796875,-0.18310546875,0.244140625,-0.30517578125,0.033935546875,-0.0648193359375,-0.9732666015625,16.0,-197.0,318.0,101940.0,-5.112000465393066,0,0
2190.350017,0.034271240234375,-0.997711181640625,-0.055419921875,-0.01678466796875,-0.1220703125,0.0,0.0,0.036865234375,-0.063720703125,-0.9732666015625,16.0,-197.0,318.0,101940.0,-5.112000465393066,0,0
2190.357001,0.034271240234375,-0.997711181640625,-0.055419921875,-0.01678466796875,0.0,0.18310546875,-0.1220703125,0.0347900390625,-0.064697265625,-0.9722900390625,16.0,-197.0,318.0,101940.0,-5.112000465393066,0,0
2190.364018,0.034271240234375,-0.997711181640625,-0.055419921875,-0.01678466796875,-0.1220703125,0.244140625,0.18310546875,0.035400390625,-0.0655517578125,-0.9736328125,16.0,-197.0,318.0,101940.0,-5.112000465393066,0,0
2190.370053,0.034271240234375,-0.997711181640625,-0.055419921875,-0.01678466796875,-0.1220703125,0.244140625,0.18310546875,0.035400390625,-0.0655517578125,-0.9736328125,16.0,-197.0,318.0,101940.0,-5.112000465393066,0,0
2190.377001,0.034271240234375,-0.997711181640625,-0.055419921875,-0.01678466796875,-0.30517578125,0.1220703125,0.1220703125,0.0352783203125,-0.0660400390625,-0.973388671875,14.0,-198.0,318.0,101940.0,-5.112000465393066,0,0
2190.384015,0.034271240234375,-0.997711181640625,-0.055419921875,-0.01678466796875,-0.1220703125,0.1220703125,-0.244140625,0.0347900390625,-0.0648193359375,-0.9730224609375,14.0,-198.0,318.0,101940.0,-5.112000465393066,0,0
2190.391,0.034271240234375,-0.997711181640625,-0.055419921875,-0.01678466796875,0.0,0.06103515625,0.0,0.037841796875,-0.0662841796875,-0.9722900390625,14.0,-198.0,318.0,101940.0,-5.112000465393066,0,0
2190.397999,0.0343017578125,-0.997711181640625,-0.055419921875,-0.01678466796875,0.06103515625,0.30517578125,-0.1220703125,0.036376953125,-0.0677490234375,-0.974365234375,14.0,-198.0,318.0,101940.0,-5.112000465393066,0,0
2190.405019,0.0343017578125,-0.997711181640625,-0.055419921875,-0.016754150390625,-0.1220703125,0.1220703125,0.0,0.035400390625,-0.064208984375,-0.9730224609375,14.0,-198.0,318.0,101940.0,-5.112000465393066,0,0
2190.425997,0.034271240234375,-0.997711181640625,-0.055419921875,-0.016754150390625,0.0,0.30517578125,-0.06103515625,0.037353515625,-0.0650634765625,-0.9732666015625,14.0,-198.0,318.0,101940.0,-5.112000465393066,0,0
2190.432996,0.034271240234375,-0.997711181640625,-0.055419921875,-0.016754150390625,0.1220703125,0.30517578125,0.06103515625,0.03564453125,-0.0640869140625,-0.974853515625,14.0,-198.0,318.0,101940.0,-5.112000465393066,0,0
2190.440016,0.0343017578125,-0.997711181640625,-0.055419921875,-0.016754150390625,0.06103515625,0.30517578125,-0.18310546875,0.0372314453125,-0.065185546875,-0.9730224609375,14.0,-198.0,318.0,101940.0,-5.112000465393066,0,0
2190.447001,0.0343017578125,-0.997711181640625,-0.055419921875,-0.016754150390625,-0.06103515625,0.18310546875,0.0,0.0379638671875,-0.064697265625,-0.9725341796875,14.0,-198.0,318.0,101940.0,-5.112000465393066,0,0
2190.454018,0.034271240234375,-0.997711181640625,-0.055419921875,-0.016754150390625,0.1220703125,0.0,-0.06103515625,0.03759765625,-0.0648193359375,-0.9736328125,14.0,-198.0,318.0,101940.0,-5.112000465393066,0,0
2190.460995,0.034271240234375,-0.997711181640625,-0.055419921875,-0.01678466796875,-0.06103515625,0.18310546875,0.06103515625,0.03759765625,-0.0645751953125,-0.974853515625,14.0,-198.0,318.0,101940.0,-5.112000465393066,0,0
2190.467023,0.034271240234375,-0.997711181640625,-0.055419921875,-0.01678466796875,-0.06103515625,0.18310546875,0.06103515625,0.03759765625,-0.0645751953125,-0.974853515625,14.0,-198.0,318.0,101940.0,-5.112000465393066,0,0
2190.474015,0.034271240234375,-0.997711181640625,-0.0552978515625,-0.01678466796875,0.42724609375,0.244140625,-0.06103515625,0.0372314453125,-0.06396484375,-0.973388671875,13.0,-198.0,319.0,101940.0,-5.112000465393066,0,0
2190.480996,0.034271240234375,-0.997711181640625,-0.0552978515625,-0.01678466796875,0.0,0.1220703125,-0.1220703125,0.0361328125,-0.0640869140625,-0.9744873046875,13.0,-198.0,319.0,101940.0,-5.112000465393066,0,0
2190.487995,0.034271240234375,-0.997711181640625,-0.0552978515625,-0.016754150390625,0.1220703125,0.3662109375,0.0,0.0335693359375,-0.06591796875,-0.9737548828125,13.0,-198.0,319.0,101940.0,-5.112000465393066,0,0
2190.495019,0.034271240234375,-0.997711181640625,-0.0552978515625,-0.016754150390625,0.18310546875,0.18310546875,0.06103515625,0.0352783203125,-0.064453125,-0.9730224609375,13.0,-198.0,319.0,101940.0,-5.112000465393066,0,0
2190.515997,0.034271240234375,-0.997711181640625,-0.0552978515625,-0.016754150390625,0.1220703125,0.42724609375,-0.1220703125,0.0377197265625,-0.0653076171875,-0.9730224609375,13.0,-198.0,319.0,101940.0,-5.112000465393066,0,0
2190.522996,0.034271240234375,-0.997711181640625,-0.0552978515625,-0.016754150390625,0.06103515625,0.1220703125,0.06103515625,0.03662109375,-0.065673828125,-0.9739990234375,13.0,-198.0,319.0,101940.0,-5.112000465393066,0,0
2190.530016,0.034271240234375,-0.997711181640625,-0.0552978515625,-0.016754150390625,-0.06103515625,0.1220703125,-0.1220703125,0.0380859375,-0.0643310546875,-0.972412109375,13.0,-198.0,319.0,101940.0,-5.112000465393066,0,0
2190.537001,0.034271240234375,-0.997711181640625,-0.0552978515625,-0.01678466796875,-0.18310546875,0.1220703125,0.0,0.03759765625,-0.0655517578125,-0.974365234375,13.0,-198.0,319.0,101940.0,-5.112000465393066,0,0
2190.544018,0.034271240234375,-0.997711181640625,-0.0552978515625,-0.01678466796875,-0.1220703125,-0.06103515625,0.0,0.0343017578125,-0.0635986328125,-0.9739990234375,13.0,-198.0,319.0,101940.0,-5.112000465393066,0,0
2190.550995,0.034271240234375,-0.997711181640625,-0.0552978515625,-0.01678466796875,0.18310546875,0.1220703125,0.18310546875,0.0367431640625,-0.064697265625,-0.97412109375,13.0,-198.0,319.0,101940.0,-5.112000465393066,0,0
2190.557023,0.034271240234375,-0.997711181640625,-0.0552978515625,-0.01678466796875,0.18310546875,0.1220703125,0.18310546875,0.0367431640625,-0.064697265625,-0.97412109375,13.0,-198.0,319.0,101940.0,-5.112000465393066,0,0
2190.564015,0.03424072265625,-0.997711181640625,-0.0552978515625,-0.016754150390625,0.0,0.244140625,0.18310546875,0.037109375,-0.0638427734375,-0.9735107421875,13.0,-198.0,319.0,101940.0,-5.112000465393066,0,0
2190.570995,0.03424072265625,-0.99774169921875,-0.0550537109375,-0.01678466796875,0.06103515625,0.18310546875,0.0,0.0352783203125,-0.0625,-0.972900390625,12.0,-197.0,320.0,101940.0,-5.113000392913818,0,0
2190.577995,0.03424072265625,-0.99774169921875,-0.0550537109375,-0.01678466796875,-0.1220703125,0.06103515625,0.0,0.036376953125,-0.0640869140625,-0.9736328125,12.0,-197.0,320.0,101940.0,-5.113000392913818,0,0
2190.585019,0.03424072265625,-0.99774169921875,-0.0550537109375,-0.016754150390625,0.0,0.0,-0.06103515625,0.0367431640625,-0.064208984375,-0.9716796875,12.0,-197.0,320.0,101940.0,-5.113000392913818,0,0
2190.592003,0.03424072265625,-0.99774169921875,-0.0550537109375,-0.016754150390625,-0.1220703125,0.1220703125,-0.06103515625,0.0364990234375,-0.0643310546875,-0.974365234375,12.0,-197.0,320.0,101940.0,-5.113000392913818,0,0
2190.599018,0.03424072265625,-0.99774169921875,-0.0550537109375,-0.01678466796875,0.0,0.30517578125,0.244140625,0.036865234375,-0.0650634765625,-0.9718017578125,12.0,-197.0,320.0,101940.0,-5.113000392913818,0,0
2190.605997,0.03424072265625,-0.99774169921875,-0.0550537109375,-0.01678466796875,0.06103515625,0.30517578125,0.0,0.03662109375,-0.0650634765625,-0.97314453125,12.0,-197.0,320.0,101940.0,-5.113000392913818,0,0
2190.612996,0.03424072265625,-0.99774169921875,-0.0550537109375,-0.01678466796875,-0.1220703125,0.3662109375,0.06103515625,0.037353515625,-0.0648193359375,-0.9739990234375,12.0,-197.0,320.0,101940.0,-5.113000392913818,0,0
2190.620017,0.03424072265625,-0.99774169921875,-0.0550537109375,-0.01678466796875,-0.1220703125,0.1220703125,0.0,0.0374755859375,-0.0634765625,-0.974365234375,12.0,-197.0,320.0,101940.0,-5.113000392913818,0,0
2190.627001,0.03424072265625,-0.99774169921875,-0.0550537109375,-0.01678466796875,0.1220703125,0.18310546875,-0.18310546875,0.0367431640625,-0.0643310546875,-0.9722900390625,12.0,-197.0,320.0,101940.0,-5.113000392913818,0,0
2190.634018,0.03424072265625,-0.99774169921875,-0.0550537109375,-0.01678466796875,-0.1220703125,0.1220703125,-0.06103515625,0.0362548828125,-0.0657958984375,-0.9716796875,12.0,-197.0,320.0,101940.0,-5.113000392913818,0,0
2190.640999,0.03424072265625,-0.99774169921875,-0.0550537109375,-0.01678466796875,0.0,-0.244140625,0.0,0.0361328125,-0.06298828125,-0.9715576171875,12.0,-197.0,320.0,101940.0,-5.113000392913818,0,0
2190.647999,0.03424072265625,-0.99774169921875,-0.0550537109375,-0.01678466796875,0.0,0.244140625,0.244140625,0.0391845703125,-0.0654296875,-0.9720458984375,12.0,-197.0,320.0,101940.0,-5.113000392913818,0,0
2190.654032,0.03424072265625,-0.99774169921875,-0.0550537109375,-0.01678466796875,0.0,0.244140625,0.244140625,0.0391845703125,-0.0654296875,-0.9720458984375,12.0,-197.0,320.0,101940.0,-5.113000392913818,0,0
2190.661,0.03424072265625,-0.99774169921875,-0.0550537109375,-0.01678466796875,-0.244140625,0.1220703125,-0.30517578125,0.0369873046875,-0.066162109375,-0.9722900390625,12.0,-197.0,320.0,101940.0,-5.113000392913818,0,0
2190.667999,0.03424072265625,-0.99774169921875,-0.0550537109375,-0.016815185546875,-0.06103515625,0.06103515625,-0.3662109375,0.0389404296875,-0.064453125,-0.9727783203125,12.0,-197.0,320.0,101940.0,-5.113000392913818,0,0
2190.689018,0.03424072265625,-0.99774169921875,-0.054718017578125,-0.016815185546875,-0.244140625,0.3662109375,0.0,0.0357666015625,-0.063232421875,-0.9749755859375,11.0,-197.0,318.0,101940.0,-5.113000392913818,0,0
2190.695997,0.03424072265625,-0.99774169921875,-0.054718017578125,-0.01678466796875,0.06103515625,0.1220703125,-0.06103515625,0.0341796875,-0.065185546875,-0.9749755859375,11.0,-197.0,318.0,101940.0,-5.113000392913818,0,0
2190.702996,0.03424072265625,-0.99774169921875,-0.054718017578125,-0.01678466796875,0.0,0.42724609375,0.0,0.0374755859375,-0.0628662109375,-0.9737548828125,11.0,-197.0,318.0,101940.0,-5.113000392913818,0,0
2190.710016,0.03424072265625,-0.99774169921875,-0.054718017578125,-0.01678466796875,0.54931640625,0.06103515625,-0.1220703125,0.0355224609375,-0.0670166015625,-0.9754638671875,11.0,-197.0,318.0,101940.0,-5.113000392913818,0,0
2190.717001,0.03424072265625,-0.99774169921875,-0.054718017578125,-0.01678466796875,-0.06103515625,0.1220703125,-0.06103515625,0.0364990234375,-0.064208984375,-0.974365234375,11.0,-197.0,318.0,101940.0,-5.113000392913818,0,0
2190.724018,0.03424072265625,-0.99774169921875,-0.054718017578125,-0.016815185546875,-0.18310546875,0.3662109375,-0.1220703125,0.0396728515625,-0.0665283203125,-0.9722900390625,11.0,-197.0,318.0,101940.0,-5.113000392913818,0,0
2190.730995,0.03424072265625,-0.99774169921875,-0.054718017578125,-0.016815185546875,-0.18310546875,0.06103515625,-0.06103515625,0.0369873046875,-0.0650634765625,-0.9725341796875,11.0,-197.0,318.0,101940.0,-5.113000392913818,0,0
2190.737994,0.03424072265625,-0.99774169921875,-0.054718017578125,-0.016815185546875,-0.18310546875,0.18310546875,0.0,0.038818359375,-0.0654296875,-0.9755859375,11.0,-197.0,318.0,101940.0,-5.113000392913818,0,0
2190.744026,0.03424072265625,-0.99774169921875,-0.054718017578125,-0.016815185546875,-0.18310546875,0.18310546875,0.0,0.038818359375,-0.0654296875,-0.9755859375,11.0,-197.0,318.0,101940.0,-5.113000392913818,0,0
2190.750995,0.03424072265625,-0.99774169921875,-0.054718017578125,-0.016815185546875,0.06103515625,-0.1220703125,0.1220703125,0.037841796875,-0.0660400390625,-0.9742431640625,11.0,-197.0,318.0,101940.0,-5.113000392913818,0,0
2190.757995,0.03424072265625,-0.99774169921875,-0.054718017578125,-0.016815185546875,-0.3662109375,-0.06103515625,0.0,0.036376953125,-0.0640869140625,-0.9736328125,11.0,-197.0,318.0,101940.0,-5.113000392913818,0,0
2190.779018,0.03424072265625,-0.997772216796875,-0.05438232421875,-0.016845703125,0.06103515625,0.30517578125,0.30517578125,0.035888671875,-0.0648193359375,-0.9739990234375,10.0,-197.0,318.0,101940.0,-5.110000133514404,0,0
2190.785997,0.03424072265625,-0.997772216796875,-0.05438232421875,-0.016845703125,0.0,0.244140625,-0.06103515625,0.0357666015625,-0.0665283203125,-0.9725341796875,10.0,-197.0,318.0,101940.0,-5.110000133514404,0,0
2190.792996,0.03424072265625,-0.997772216796875,-0.05438232421875,-0.016845703125,0.06103515625,0.30517578125,-0.06103515625,0.037353515625,-0.065185546875,-0.97412109375,10.0,-197.0,318.0,101940.0,-5.110000133514404,0,0
2190.800016,0.03424072265625,-0.997772216796875,-0.05438232421875,-0.016845703125,-0.244140625,-0.1220703125,-0.1220703125,0.036865234375,-0.06591796875,-0.971923828125,10.0,-197.0,318.0,101940.0,-5.110000133514404,0,0
2190.807001,0.03424072265625,-0.997772216796875,-0.05438232421875,-0.016845703125,-0.1220703125,0.18310546875,0.06103515625,0.037109375,-0.0635986328125,-0.9747314453125,10.0,-197.0,318.0,101940.0,-5.110000133514404,0,0
2190.814018,0.03424072265625,-0.997772216796875,-0.05438232421875,-0.016845703125,0.06103515625,0.30517578125,0.0,0.037841796875,-0.06494140625,-0.9737548828125,10.0,-197.0,318.0,101940.0,-5.110000133514404,0,0
2190.820995,0.03424072265625,-0.997772216796875,-0.05438232421875,-0.016876220703125,-0.18310546875,0.1220703125,0.1220703125,0.038330078125,-0.065673828125,-0.972900390625,10.0,-197.0,318.0,101940.0,-5.110000133514404,0,0
2190.827994,0.03424072265625,-0.997772216796875,-0.05438232421875,-0.016845703125,0.0,0.06103515625,-0.1220703125,0.0343017578125,-0.0635986328125,-0.974609375,10.0,-197.0,318.0,101940.0,-5.110000133514404,0,0
2190.835019,0.03424072265625,-0.997772216796875,-0.05438232421875,-0.016845703125,0.0,0.18310546875,0.06103515625,0.03759765625,-0.0650634765625,-0.9736328125,10.0,-197.0,318.0,101940.0,-5.110000133514404,0,0
2190.841051,0.03424072265625,-0.997772216796875,-0.05438232421875,-0.016845703125,0.0,0.18310546875,0.06103515625,0.03759765625,-0.0650634765625,-0.9736328125,10.0,-197.0,318.0,101940.0,-5.110000133514404,0,0
2190.847995,0.034271240234375,-0.997772216796875,-0.05438232421875,-0.016845703125,0.06103515625,0.244140625,-0.244140625,0.0364990234375,-0.0653076171875,-0.9747314453125,10.0,-197.0,318.0,101940.0,-5.110000133514404,0,0
2190.855019,0.034271240234375,-0.997772216796875,-0.05438232421875,-0.016845703125,0.1220703125,0.244140625,-0.06103515625,0.036376953125,-0.06591796875,-0.973876953125,10.0,-197.0,318.0,101940.0,-5.110000133514404,0,0
2190.862003,0.034271240234375,-0.997772216796875,-0.05438232421875,-0.016876220703125,0.18310546875,0.1220703125,0.0,0.03759765625,-0.0665283203125,-0.9737548828125,10.0,-197.0,318.0,101940.0,-5.110000133514404,0,0
2190.869018,0.034271240234375,-0.997772216796875,-0.05438232421875,-0.016876220703125,0.18310546875,0.1220703125,0.1220703125,0.03759765625,-0.0643310546875,-0.97314453125,11.0,-198.0,319.0,101940.0,-5.111000061035156,0,0
2190.875997,0.03424072265625,-0.997772216796875,-0.054168701171875,-0.016876220703125,0.18310546875,0.0,-0.18310546875,0.033935546875,-0.063720703125,-0.9722900390625,11.0,-198.0,319.0,101940.0,-5.111000061035156,0,0
2190.882996,0.03424072265625,-0.997772216796875,-0.054168701171875,-0.016876220703125,0.1220703125,0.18310546875,0.244140625,0.0362548828125,-0.06591796875,-0.9736328125,11.0,-198.0,319.0,101940.0,-5.111000061035156,0,0
2190.890016,0.03424072265625,-0.997772216796875,-0.054168701171875,-0.016876220703125,0.0,0.244140625,-0.30517578125,0.037841796875,-0.0643310546875,-0.9720458984375,11.0,-198.0,319.0,101940.0,-5.111000061035156,0,0
2190.897001,0.03424072265625,-0.997772216796875,-0.054168701171875,-0.016876220703125,0.1220703125,0.3662109375,0.0,0.0367431640625,-0.063232421875,-0.9720458984375,11.0,-198.0,319.0,101940.0,-5.111000061035156,0,0
2190.904018,0.03424072265625,-0.997772216796875,-0.054168701171875,-0.016876220703125,0.06103515625,0.30517578125,0.06103515625,0.0361328125,-0.0655517578125,-0.9727783203125,11.0,-198.0,319.0,101940.0,-5.111000061035156,0,0
2190.910999,0.03424072265625,-0.997772216796875,-0.054168701171875,-0.016845703125,0.06103515625,0.06103515625,-0.1220703125,0.034912109375,-0.064208984375,-0.9735107421875,11.0,-198.0,319.0,101940.0,-5.111000061035156,0,0
2190.917999,0.03424072265625,-0.997772216796875,-0.054168701171875,-0.016876220703125,0.0,0.0,0.06103515625,0.0350341796875,-0.064208984375,-0.9716796875,11.0,-198.0,319.0,101940.0,-5.111000061035156,0,0
2190.92502,0.03424072265625,-0.997772216796875,-0.054168701171875,-0.016876220703125,0.1220703125,0.18310546875,0.18310546875,0.0377197265625,-0.0631103515625,-0.97412109375,11.0,-198.0,319.0,101940.0,-5.111000061035156,0,0
2190.931056,0.03424072265625,-0.997772216796875,-0.054168701171875,-0.016876220703125,0.1220703125,0.18310546875,0.18310546875,0.0377197265625,-0.0631103515625,-0.97412109375,11.0,-198.0,319.0,101940.0,-5.111000061035156,0,0
2190.952003,0.03424072265625,-0.997772216796875,-0.054168701171875,-0.016876220703125,0.0,0.1220703125,-0.244140625,0.035400390625,-0.06640625,-0.9737548828125,11.0,-198.0,319.0,101940.0,-5.111000061035156,0,0
2190.959018,0.03424072265625,-0.997772216796875,-0.054168701171875,-0.016876220703125,0.1220703125,0.18310546875,0.1220703125,0.0374755859375,-0.0653076171875,-0.9730224609375,11.0,-198.0,319.0,101940.0,-5.111000061035156,0,0
2190.965997,0.03424072265625,-0.997772216796875,-0.054168701171875,-0.016876220703125,-0.06103515625,0.06103515625,0.06103515625,0.038330078125,-0.0645751953125,-0.972900390625,11.0,-198.0,318.0,101940.0,-5.111000061035156,0,0
2190.972996,0.03424072265625,-0.997802734375,-0.053955078125,-0.016876220703125,0.0,0.18310546875,-0.18310546875,0.0380859375,-0.0640869140625,-0.97509765625,11.0,-198.0,318.0,101940.0,-5.111000061035156,0,0
2190.980017,0.03424072265625,-0.997802734375,-0.053955078125,-0.016876220703125,0.18310546875,0.30517578125,0.06103515625,0.0340576171875,-0.0653076171875,-0.9736328125,11.0,-198.0,318.0,101940.0,-5.111000061035156,0,0
2190.987001,0.03424072265625,-0.997802734375,-0.053955078125,-0.01690673828125,-0.1220703125,-0.06103515625,0.06103515625,0.037353515625,-0.06494140625,-0.9747314453125,11.0,-198.0,318.0,101940.0,-5.111000061035156,0,0
2190.994018,0.03424072265625,-0.997802734375,-0.053955078125,-0.01690673828125,0.18310546875,0.1220703125,-0.06103515625,0.0379638671875,-0.064697265625,-0.97412109375,11.0,-198.0,318.0,101940.0,-5.111000061035156,0,0
2191.000999,0.03424072265625,-0.997802734375,-0.053955078125,-0.01690673828125,-0.06103515625,0.18310546875,0.0,0.0362548828125,-0.0618896484375,-0.9749755859375,11.0,-198.0,318.0,101940.0,-5.111000061035156,0,0
2191.007994,0.03424072265625,-0.997802734375,-0.053955078125,-0.01690673828125,0.0,0.18310546875,0.06103515625,0.0374755859375,-0.0633544921875,-0.973388671875,11.0,-198.0,318.0,101940.0,-5.111000061035156,0,0
2191.015019,0.03424072265625,-0.997802734375,-0.053955078125,-0.01690673828125,-0.06103515625,0.1220703125,0.244140625,0.0367431640625,-0.0672607421875,-0.974609375,11.0,-198.0,318.0,101940.0,-5.111000061035156,0,0
2191.021998,0.03424072265625,-0.997802734375,-0.053955078125,-0.01690673828125,0.18310546875,0.06103515625,-0.244140625,0.0367431640625,-0.0643310546875,-0.9735107421875,11.0,-198.0,318.0,101940.0,-5.111000061035156,0,0
2191.042003,0.03424072265625,-0.997802734375,-0.053955078125,-0.01690673828125,0.06103515625,0.1220703125,0.0,0.0364990234375,-0.06201171875,-0.9727783203125,11.0,-198.0,318.0,101940.0,-5.111000061035156,0,0
2191.049018,0.03424072265625,-0.997802734375,-0.053955078125,-0.016876220703125,-0.18310546875,0.244140625,-0.06103515625,0.0362548828125,-0.06591796875,-0.9722900390625,11.0,-198.0,318.0,101940.0,-5.111000061035156,0,0
2191.055997,0.03424072265625,-0.997802734375,-0.053955078125,-0.01690673828125,0.18310546875,-0.1220703125,-0.06103515625,0.0380859375,-0.0654296875,-0.9730224609375,11.0,-198.0,318.0,101940.0,-5.111000061035156,0,0
2191.062996,0.03424072265625,-0.997802734375,-0.053955078125,-0.01690673828125,0.1220703125,0.244140625,0.06103515625,0.0379638671875,-0.0643310546875,-0.97314453125,11.0,-198.0,318.0,101940.0,-5.111000061035156,0,0
2191.070016,0.03424072265625,-0.997802734375,-0.053955078125,-0.01690673828125,-0.06103515625,0.244140625,0.1220703125,0.0360107421875,-0.0660400390625,-0.9737548828125,12.0,-198.0,318.0,101940.0,-5.111000061035156,0,0
2191.077001,0.03424072265625,-0.997802734375,-0.053955078125,-0.01690673828125,-0.18310546875,0.18310546875,0.244140625,0.0367431640625,-0.0653076171875,-0.974365234375,12.0,-198.0,318.0,101940.0,-5.111000061035156,0,0
2191.084018,0.03424072265625,-0.997802734375,-0.053955078125,-0.01690673828125,0.0,0.18310546875,-0.1220703125,0.0350341796875,-0.06494140625,-0.9735107421875,12.0,-198.0,318.0,101940.0,-5.111000061035156,0,0
2191.090995,0.03424072265625,-0.997802734375,-0.053955078125,-0.01690673828125,0.06103515625,-0.1220703125,-0.06103515625,0.03759765625,-0.064697265625,-0.9757080078125,12.0,-198.0,318.0,101940.0,-5.111000061035156,0,0
2191.097994,0.03424072265625,-0.997802734375,-0.053955078125,-0.016876220703125,0.0,0.244140625,-0.06103515625,0.032470703125,-0.06591796875,-0.97412109375,12.0,-198.0,318.0,101940.0,-5.111000061035156,0,0
2191.105019,0.03424072265625,-0.997802734375,-0.053955078125,-0.016876220703125,0.244140625,0.1220703125,0.244140625,0.0360107421875,-0.0640869140625,-0.970947265625,12.0,-198.0,318.0,101940.0,-5.111000061035156,0,0
2191.111998,0.03424072265625,-0.997802734375,-0.053955078125,-0.016876220703125,0.06103515625,0.0,0.1220703125,0.037109375,-0.0645751953125,-0.9730224609375,12.0,-198.0,318.0,101940.0,-5.111000061035156,0,0
2191.11803,0.03424072265625,-0.997802734375,-0.053955078125,-0.016876220703125,0.06103515625,0.0,0.1220703125,0.037109375,-0.0645751953125,-0.9730224609375,12.0,-198.0,318.0,101940.0,-5.111000061035156,0,0
2191.125019,0.03424072265625,-0.997802734375,-0.053955078125,-0.01690673828125,0.1220703125,0.244140625,0.06103515625,0.0364990234375,-0.064697265625,-0.971923828125,12.0,-198.0,318.0,101940.0,-5.111000061035156,0,0
2191.132003,0.03424072265625,-0.997802734375,-0.053955078125,-0.01690673828125,0.1220703125,0.30517578125,-0.06103515625,0.0382080078125,-0.0653076171875,-0.973388671875,12.0,-198.0,318.0,101940.0,-5.111000061035156,0,0
2191.139018,0.03424072265625,-0.997802734375,-0.053955078125,-0.01690673828125,-0.1220703125,0.244140625,-0.30517578125,0.036376953125,-0.0653076171875,-0.97314453125,12.0,-198.0,318.0,101940.0,-5.111000061035156,0,0
2191.145997,0.03424072265625,-0.997802734375,-0.053955078125,-0.01690673828125,0.18310546875,0.18310546875,-0.244140625,0.03662109375,-0.06494140625,-0.972412109375,12.0,-198.0,318.0,101940.0,-5.111000061035156,0,0
2191.152996,0.03424072265625,-0.997802734375,-0.053955078125,-0.01690673828125,0.1220703125,0.06103515625,0.1220703125,0.034912109375,-0.065185546875,-0.97314453125,12.0,-198.0,318.0,101940.0,-5.111000061035156,0,0
2191.160016,0.03424072265625,-0.997802734375,-0.053955078125,-0.01690673828125,-0.244140625,0.18310546875,0.1220703125,0.0350341796875,-0.06689453125,-0.97412109375,12.0,-198.0,318.0,101940.0,-5.111000061035156,0,0
2191.167001,0.03424072265625,-0.997802734375,-0.053955078125,-0.016876220703125,-0.06103515625,0.0,-0.1220703125,0.035400390625,-0.067626953125,-0.97314453125,12.0,-198.0,318.0,101940.0,-5.111000061035156,0,0
2191.174018,0.034271240234375,-0.997802734375,-0.053955078125,-0.016876220703125,0.0,-0.06103515625,0.06103515625,0.037109375,-0.066162109375,-0.972900390625,12.0,-198.0,318.0,101940.0,-5.111000061035156,0,0
2191.180995,0.034271240234375,-0.997802734375,-0.053955078125,-0.016876220703125,0.0,0.18310546875,-0.18310546875,0.037109375,-0.0660400390625,-0.97314453125,12.0,-198.0,318.0,101940.0,-5.111000061035156,0,0
2191.187994,0.034271240234375,-0.997802734375,-0.053955078125,-0.016876220703125,-0.1220703125,0.30517578125,0.1220703125,0.036865234375,-0.0638427734375,-0.9752197265625,12.0,-198.0,318.0,101940.0,-5.111000061035156,0,0
2191.195019,0.034271240234375,-0.997802734375,-0.053955078125,-0.016876220703125,-0.1220703125,0.1220703125,0.18310546875,0.03662109375,-0.0657958984375,-0.9725341796875,12.0,-198.0,318.0,101940.0,-5.111000061035156,0,0
2191.215051,0.034271240234375,-0.997802734375,-0.053955078125,-0.016876220703125,0.06103515625,0.244140625,0.06103515625,0.03515625,-0.0643310546875,-0.9737548828125,12.0,-198.0,318.0,101940.0,-5.111000061035156,0,0
2191.222003,0.03424072265625,-0.997802734375,-0.053955078125,-0.01690673828125,0.06103515625,0.244140625,-0.3662109375,0.0379638671875,-0.0640869140625,-0.975341796875,12.0,-198.0,318.0,101940.0,-5.110000133514404,0,0
2191.229018,0.03424072265625,-0.997802734375,-0.053955078125,-0.016876220703125,-0.18310546875,0.244140625,0.0,0.0357666015625,-0.064453125,-0.9735107421875,12.0,-198.0,318.0,101940.0,-5.110000133514404,0,0
2191.235997,0.03424072265625,-0.997802734375,-0.053955078125,-0.016876220703125,-0.06103515625,0.06103515625,0.06103515625,0.0372314453125,-0.0635986328125,-0.9722900390625,12.0,-198.0,318.0,101940.0,-5.110000133514404,0,0
2191.242996,0.03424072265625,-0.997802734375,-0.053955078125,-0.016876220703125,0.0,0.244140625,0.0,0.0360107421875,-0.0648193359375,-0.9725341796875,12.0,-198.0,318.0,101940.0,-5.110000133514404,0,0
2191.250017,0.03424072265625,-0.997802734375,-0.053955078125,-0.016876220703125,0.0,0.244140625,0.1220703125,0.0374755859375,-0.0645751953125,-0.9722900390625,12.0,-198.0,318.0,101940.0,-5.110000133514404,0,0
2191.257001,0.03424072265625,-0.997802734375,-0.053955078125,-0.01690673828125,0.06103515625,0.1220703125,0.06103515625,0.0389404296875,-0.0650634765625,-0.974365234375,12.0,-198.0,318.0,101940.0,-5.110000133514404,0,0
2191.264018,0.03424072265625,-0.997802734375,-0.053955078125,-0.016876220703125,-0.06103515625,0.06103515625,-0.1220703125,0.0355224609375,-0.0638427734375,-0.9736328125,12.0,-198.0,318.0,101940.0,-5.110000133514404,0,0
2191.270999,0.03424072265625,-0.997802734375,-0.053955078125,-0.016876220703125,0.54931640625,-0.54931640625,-0.244140625,0.03662109375,-0.0654296875,-0.9732666015625,12.0,-198.0,318.0,101940.0,-5.110000133514404,0,0
2191.277999,0.034271240234375,-0.997802734375,-0.053955078125,-0.01690673828125,0.06103515625,0.30517578125,0.1220703125,0.03857421875,-0.0675048828125,-0.9742431640625,12.0,-198.0,318.0,101940.0,-5.110000133514404,0,0
2191.28502,0.034271240234375,-0.997802734375,-0.053955078125,-0.01690673828125,0.06103515625,0.3662109375,0.06103515625,0.0374755859375,-0.06591796875,-0.97265625,12.0,-198.0,318.0,101940.0,-5.110000133514404,0,0
2191.30505,0.034271240234375,-0.997802734375,-0.053955078125,-0.01690673828125,0.0,0.1220703125,0.0,0.035888671875,-0.064697265625,-0.9720458984375,12.0,-198.0,318.0,101940.0,-5.110000133514404,0,0
2191.312003,0.034271240234375,-0.997802734375,-0.053955078125,-0.016876220703125,0.1220703125,-0.1220703125,-0.06103515625,0.0360107421875,-0.064453125,-0.9742431640625,12.0,-198.0,318.0,101940.0,-5.110000133514404,0,0
2191.319018,0.034271240234375,-0.997802734375,-0.053955078125,-0.016876220703125,-0.06103515625,-0.1220703125,0.1220703125,0.0357666015625,-0.066162109375,-0.9722900390625,12.0,-198.0,318.0,101940.0,-5.110000133514404,0,0
2191.325997,0.034271240234375,-0.997802734375,-0.053955078125,-0.016876220703125,-0.06103515625,0.18310546875,-0.06103515625,0.036865234375,-0.0650634765625,-0.973388671875,12.0,-198.0,318.0,101940.0,-5.110000133514404,0,0
2191.332996,0.034271240234375,-0.997802734375,-0.053955078125,-0.016876220703125,-0.06103515625,0.06103515625,0.18310546875,0.036376953125,-0.0653076171875,-0.9735107421875,12.0,-198.0,318.0,101940.0,-5.110000133514404,0,0
2191.340016,0.034271240234375,-0.997802734375,-0.053955078125,-0.016876220703125,-0.30517578125,0.18310546875,-0.1220703125,0.0386962890625,-0.0634765625,-0.9727783203125,12.0,-198.0,318.0,101940.0,-5.110000133514404,0,0
2191.347001,0.03424072265625,-0.997802734375,-0.053955078125,-0.016876220703125,-0.18310546875,0.06103515625,0.0,0.034423828125,-0.0645751953125,-0.9739990234375,12.0,-198.0,318.0,101940.0,-5.110000133514404,0,0
2191.354018,0.034271240234375,-0.997802734375,-0.053955078125,-0.016876220703125,0.06103515625,0.30517578125,-0.18310546875,0.037109375,-0.06494140625,-0.9730224609375,12.0,-198.0,318.0,101940.0,-5.110000133514404,0,0
2191.360995,0.034271240234375,-0.997802734375,-0.053955078125,-0.016876220703125,0.06103515625,0.06103515625,-0.1220703125,0.0364990234375,-0.06591796875,-0.9725341796875,12.0,-198.0,318.0,101940.0,-5.110000133514404,0,0
2191.367994,0.034271240234375,-0.997802734375,-0.053955078125,-0.016876220703125,0.06103515625,0.18310546875,-0.06103515625,0.0372314453125,-0.0648193359375,-0.97412109375,13.0,-199.0,318.0,101940.0,-5.110000133514404,0,0
2191.375019,0.034271240234375,-0.997802734375,-0.053955078125,-0.016876220703125,0.30517578125,0.3662109375,-0.3662109375,0.03662109375,-0.0650634765625,-0.9737548828125,13.0,-199.0,318.0,101940.0,-5.110000133514404,0,0
2191.381998,0.03424072265625,-0.997802734375,-0.053955078125,-0.016876220703125,0.18310546875,0.1220703125,-0.18310546875,0.035400390625,-0.0640869140625,-0.9708251953125,13.0,-199.0,318.0,101940.0,-5.110000133514404,0,0
2191.389018,0.03424072265625,-0.997802734375,-0.053955078125,-0.016876220703125,0.06103515625,0.30517578125,-0.06103515625,0.03662109375,-0.064697265625,-0.97412109375,13.0,-199.0,318.0,101940.0,-5.110000133514404,0,0
2191.39505,0.03424072265625,-0.997802734375,-0.053955078125,-0.016876220703125,0.06103515625,0.30517578125,-0.06103515625,0.03662109375,-0.064697265625,-0.97412109375,13.0,-199.0,318.0,101940.0,-5.110000133514404,0,0
2191.402003,0.03424072265625,-0.997802734375,-0.053955078125,-0.016876220703125,-0.06103515625,0.244140625,0.1220703125,0.0347900390625,-0.06298828125,-0.9737548828125,13.0,-199.0,318.0,101940.0,-5.110000133514404,0,0
2191.409018,0.03424072265625,-0.997802734375,-0.053955078125,-0.016876220703125,0.1220703125,0.1220703125,-0.18310546875,0.0364990234375,-0.063720703125,-0.9730224609375,13.0,-199.0,318.0,101940.0,-5.110000133514404,0,0
2191.415997,0.03424072265625,-0.997802734375,-0.053955078125,-0.016876220703125,0.30517578125,0.30517578125,0.0,0.03564453125,-0.0621337890625,-0.9730224609375,13.0,-199.0,318.0,101940.0,-5.112000465393066,0,0
2191.422996,0.03424072265625,-0.997802734375,-0.053955078125,-0.016876220703125,0.244140625,0.0,-0.18310546875,0.037109375,-0.0655517578125,-0.9730224609375,13.0,-199.0,318.0,101940.0,-5.112000465393066,0,0
2191.430016,0.03424072265625,-0.997802734375,-0.053955078125,-0.016876220703125,0.06103515625,0.1220703125,-0.1220703125,0.0357666015625,-0.0643310546875,-0.9735107421875,13.0,-199.0,318.0,101940.0,-5.112000465393066,0,0
2191.437001,0.03424072265625,-0.997802734375,-0.053955078125,-0.016876220703125,-0.30517578125,0.30517578125,-0.244140625,0.039306640625,-0.0660400390625,-0.9744873046875,13.0,-199.0,318.0,101940.0,-5.112000465393066,0,0
2191.444018,0.03424072265625,-0.997802734375,-0.053955078125,-0.016876220703125,-0.06103515625,0.06103515625,0.06103515625,0.0377197265625,-0.064697265625,-0.9736328125,13.0,-199.0,318.0,101940.0,-5.112000465393066,0,0
2191.450995,0.03424072265625,-0.997802734375,-0.053955078125,-0.016876220703125,-0.06103515625,0.30517578125,-0.18310546875,0.0333251953125,-0.063720703125,-0.973388671875,13.0,-199.0,318.0,101940.0,-5.112000465393066,0,0
2191.457994,0.03424072265625,-0.997802734375,-0.053955078125,-0.016876220703125,-0.06103515625,0.244140625,0.0,0.0347900390625,-0.064453125,-0.9739990234375,13.0,-199.0,318.0,101940.0,-5.112000465393066,0,0
2191.479018,0.03424072265625,-0.997802734375,-0.053955078125,-0.016876220703125,0.0,0.0,0.18310546875,0.0379638671875,-0.0648193359375,-0.9732666015625,13.0,-199.0,317.0,101940.0,-5.112000465393066,0,0
2191.485996,0.03424072265625,-0.997802734375,-0.053955078125,-0.016876220703125,0.0,0.30517578125,0.1220703125,0.0369873046875,-0.064697265625,-0.9725341796875,13.0,-199.0,317.0,101940.0,-5.112000465393066,0,0
2191.492029,0.03424072265625,-0.997802734375,-0.053955078125,-0.016876220703125,0.0,0.30517578125,0.1220703125,0.0369873046875,-0.064697265625,-0.9725341796875,13.0,-199.0,317.0,101940.0,-5.112000465393066,0,0
2191.499018,0.03424072265625,-0.997802734375,-0.053955078125,-0.016876220703125,0.06103515625,0.18310546875,0.0,0.0357666015625,-0.0638427734375,-0.970947265625,13.0,-199.0,317.0,101940.0,-5.112000465393066,0,0
2191.505997,0.03424072265625,-0.997802734375,-0.053955078125,-0.016876220703125,-0.1220703125,0.18310546875,0.0,0.03759765625,-0.0638427734375,-0.9727783203125,13.0,-199.0,317.0,101940.0,-5.112000465393066,0,0
2191.512996,0.03424072265625,-0.997802734375,-0.053955078125,-0.016876220703125,0.0,0.1220703125,-0.1220703125,0.037353515625,-0.06298828125,-0.972900390625,13.0,-199.0,317.0,101940.0,-5.112000465393066,0,0
2191.520017,0.03424072265625,-0.997802734375,-0.053955078125,-0.016876220703125,-0.06103515625,0.244140625,0.1220703125,0.0374755859375,-0.0648193359375,-0.9752197265625,13.0,-199.0,317.0,101940.0,-5.112000465393066,0,0
2191.527001,0.03424072265625,-0.997802734375,-0.053955078125,-0.016876220703125,-0.42724609375,0.06103515625,0.0,0.034912109375,-0.065673828125,-0.9736328125,13.0,-199.0,317.0,101940.0,-5.112000465393066,0,0
2191.534018,0.03424072265625,-0.997802734375,-0.053955078125,-0.016876220703125,-0.06103515625,0.0,0.0,0.034423828125,-0.0665283203125,-0.9735107421875,13.0,-199.0,317.0,101940.0,-5.112000465393066,0,0
2191.540999,0.03424072265625,-0.997802734375,-0.053955078125,-0.016876220703125,-0.18310546875,0.0,0.18310546875,0.0369873046875,-0.0655517578125,-0.9713134765625,13.0,-199.0,317.0,101940.0,-5.112000465393066,0,0
2191.561998,0.034271240234375,-0.997802734375,-0.053955078125,-0.016876220703125,-0.06103515625,0.0,0.18310546875,0.0357666015625,-0.06689453125,-0.9727783203125,13.0,-199.0,317.0,101940.0,-5.112000465393066,0,0
2191.569018,0.034271240234375,-0.997802734375,-0.053955078125,-0.016876220703125,0.18310546875,0.18310546875,-0.244140625,0.03564453125,-0.0657958984375,-0.972900390625,13.0,-199.0,316.0,101940.0,-5.112000465393066,0,0
2191.575996,0.034271240234375,-0.997802734375,-0.053955078125,-0.016876220703125,0.06103515625,0.1220703125,0.1220703125,0.0343017578125,-0.06640625,-0.9730224609375,13.0,-199.0,316.0,101940.0,-5.112000465393066,0,0
2191.582029,0.034271240234375,-0.997802734375,-0.053955078125,-0.016876220703125,0.06103515625,0.1220703125,0.1220703125,0.0343017578125,-0.06640625,-0.9730224609375,13.0,-199.0,316.0,101940.0,-5.112000465393066,0,0
2191.589018,0.034271240234375,-0.997802734375,-0.053955078125,-0.016845703125,0.1220703125,0.1220703125,-0.06103515625,0.0360107421875,-0.064453125,-0.9736328125,13.0,-199.0,316.0,101940.0,-5.112000465393066,0,0
2191.595997,0.034271240234375,-0.997802734375,-0.053955078125,-0.016845703125,0.1220703125,0.30517578125,-0.1220703125,0.0377197265625,-0.06494140625,-0.97412109375,13.0,-199.0,316.0,101940.0,-5.112000465393066,0,0
2191.602996,0.034271240234375,-0.997802734375,-0.053955078125,-0.016876220703125,0.06103515625,0.244140625,-0.18310546875,0.0380859375,-0.0654296875,-0.9737548828125,13.0,-199.0,316.0,101940.0,-5.112000465393066,0,0
2191.610016,0.034271240234375,-0.997802734375,-0.053955078125,-0.016845703125,0.0,0.0,-0.06103515625,0.0369873046875,-0.0640869140625,-0.9727783203125,13.0,-199.0,316.0,101940.0,-5.112000465393066,0,0
2191.617001,0.034271240234375,-0.997802734375,-0.053955078125,-0.016845703125,-0.06103515625,0.3662109375,0.18310546875,0.0361328125,-0.0621337890625,-0.9722900390625,13.0,-199.0,316.0,101940.0,-5.110000133514404,0,0
2191.624018,0.034271240234375,-0.997802734375,-0.053955078125,-0.016876220703125,-0.06103515625,0.18310546875,0.0,0.0386962890625,-0.0650634765625,-0.9764404296875,13.0,-199.0,316.0,101940.0,-5.110000133514404,0,0
2191.630995,0.034271240234375,-0.997802734375,-0.053955078125,-0.016876220703125,0.06103515625,0.244140625,0.18310546875,0.0361328125,-0.066162109375,-0.975341796875,13.0,-199.0,316.0,101940.0,-5.110000133514404,0,0
2191.637994,0.034271240234375,-0.997802734375,-0.053955078125,-0.016876220703125,0.06103515625,0.1220703125,0.18310546875,0.037109375,-0.063720703125,-0.9752197265625,13.0,-199.0,316.0,101940.0,-5.110000133514404,0,0
2191.645019,0.034271240234375,-0.997802734375,-0.053955078125,-0.016876220703125,-0.06103515625,0.18310546875,-0.06103515625,0.0380859375,-0.0657958984375,-0.972412109375,13.0,-199.0,316.0,101940.0,-5.110000133514404,0,0
2191.651998,0.034271240234375,-0.997802734375,-0.053955078125,-0.016876220703125,0.06103515625,0.18310546875,0.18310546875,0.0357666015625,-0.066650390625,-0.974853515625,13.0,-199.0,316.0,101940.0,-5.110000133514404,0,0
2191.659018,0.034271240234375,-0.997802734375,-0.053955078125,-0.016876220703125,-0.06103515625,0.18310546875,0.06103515625,0.0362548828125,-0.065673828125,-0.973388671875,13.0,-199.0,316.0,101940.0,-5.110000133514404,0,0
2191.665996,0.034271240234375,-0.997802734375,-0.053955078125,-0.016876220703125,0.0,0.06103515625,-0.244140625,0.0343017578125,-0.063232421875,-0.972900390625,14.0,-199.0,318.0,101940.0,-5.110000133514404,0,0
2191.672996,0.034271240234375,-0.997802734375,-0.054046630859375,-0.016876220703125,-0.06103515625,0.18310546875,0.18310546875,0.0369873046875,-0.062255859375,-0.97412109375,14.0,-199.0,318.0,101940.0,-5.110000133514404,0,0
2191.679028,0.034271240234375,-0.997802734375,-0.054046630859375,-0.016876220703125,-0.06103515625,0.18310546875,0.18310546875,0.0369873046875,-0.062255859375,-0.97412109375,14.0,-199.0,318.0,101940.0,-5.110000133514404,0,0
2191.685997,0.034271240234375,-0.997802734375,-0.054046630859375,-0.016876220703125,0.06103515625,0.18310546875,0.1220703125,0.037841796875,-0.0625,-0.972900390625,14.0,-199.0,318.0,101940.0,-5.110000133514404,0,0
2191.692996,0.034271240234375,-0.997802734375,-0.054046630859375,-0.016876220703125,0.1220703125,0.244140625,-0.18310546875,0.0372314453125,-0.0662841796875,-0.9736328125,14.0,-199.0,318.0,101940.0,-5.110000133514404,0,0
2191.700016,0.03424072265625,-0.997802734375,-0.054046630859375,-0.016876220703125,-0.06103515625,0.42724609375,0.0,0.036865234375,-0.0638427734375,-0.9732666015625,14.0,-199.0,318.0,101940.0,-5.110000133514404,0,0
2191.707001,0.034271240234375,-0.997802734375,-0.054046630859375,-0.016845703125,-0.1220703125,0.18310546875,0.06103515625,0.03466796875,-0.06591796875,-0.972900390625,14.0,-199.0,318.0,101940.0,-5.110000133514404,0,0
2191.714019,0.034271240234375,-0.997802734375,-0.054046630859375,-0.016845703125,0.18310546875,0.30517578125,0.1220703125,0.036376953125,-0.0660400390625,-0.9737548828125,14.0,-199.0,318.0,101940.0,-5.109000205993652,0,0
2191.735019,0.034271240234375,-0.997802734375,-0.054046630859375,-0.016876220703125,0.0,0.18310546875,0.06103515625,0.038818359375,-0.0648193359375,-0.975830078125,14.0,-199.0,318.0,101940.0,-5.109000205993652,0,0
2191.741998,0.034271240234375,-0.997802734375,-0.054046630859375,-0.016876220703125,0.3662109375,0.18310546875,0.0,0.0360107421875,-0.06298828125,-0.97412109375,14.0,-199.0,318.0,101940.0,-5.109000205993652,0,0
2191.749018,0.03424072265625,-0.997802734375,-0.054046630859375,-0.016876220703125,-0.06103515625,0.42724609375,-0.1220703125,0.0379638671875,-0.064453125,-0.9744873046875,14.0,-199.0,318.0,101940.0,-5.109000205993652,0,0
2191.755996,0.03424072265625,-0.997802734375,-0.054046630859375,-0.016876220703125,-0.06103515625,0.244140625,-0.1220703125,0.0362548828125,-0.0634765625,-0.974609375,14.0,-199.0,318.0,101940.0,-5.109000205993652,0,0
2191.762996,0.03424072265625,-0.997802734375,-0.054046630859375,-0.016876220703125,0.1220703125,0.0,0.06103515625,0.0357666015625,-0.0634765625,-0.975830078125,14.0,-199.0,318.0,101940.0,-5.109000205993652,0,0
2191.769028,0.03424072265625,-0.997802734375,-0.054046630859375,-0.016876220703125,0.1220703125,0.0,0.06103515625,0.0357666015625,-0.0634765625,-0.975830078125,14.0,-199.0,318.0,101940.0,-5.109000205993652,0,0
2191.775997,0.03424072265625,-0.997802734375,-0.054046630859375,-0.016876220703125,0.30517578125,0.18310546875,-0.06103515625,0.037109375,-0.0638427734375,-0.973876953125,13.0,-198.0,317.0,101940.0,-5.109000205993652,0,0
2191.782996,0.034210205078125,-0.997802734375,-0.054046630859375,-0.016876220703125,0.1220703125,0.1220703125,0.0,0.0352783203125,-0.0645751953125,-0.973876953125,13.0,-198.0,317.0,101940.0,-5.109000205993652,0,0
2191.790016,0.03424072265625,-0.997802734375,-0.054046630859375,-0.016876220703125,-0.06103515625,0.30517578125,0.06103515625,0.0380859375,-0.0648193359375,-0.9735107421875,13.0,-198.0,317.0,101940.0,-5.109000205993652,0,0
2191.797001,0.034210205078125,-0.997802734375,-0.054046630859375,-0.016876220703125,0.06103515625,0.06103515625,0.18310546875,0.0377197265625,-0.0648193359375,-0.9747314453125,13.0,-198.0,317.0,101940.0,-5.109000205993652,0,0
2191.804018,0.034210205078125,-0.997802734375,-0.054046630859375,-0.016876220703125,0.0,0.3662109375,-0.06103515625,0.037109375,-0.0655517578125,-0.975341796875,13.0,-198.0,317.0,101940.0,-5.109000205993652,0,0
2191.82502,0.034210205078125,-0.997802734375,-0.054046630859375,-0.016876220703125,0.18310546875,0.3662109375,0.0,0.0364990234375,-0.0628662109375,-0.974365234375,13.0,-198.0,317.0,101940.0,-5.109000205993652,0,0
2191.831998,0.034210205078125,-0.997802734375,-0.054046630859375,-0.016876220703125,-0.06103515625,0.1220703125,0.0,0.03759765625,-0.0655517578125,-0.9737548828125,13.0,-198.0,317.0,101940.0,-5.109000205993652,0,0
2191.839018,0.034210205078125,-0.997802734375,-0.054046630859375,-0.016876220703125,0.1220703125,0.06103515625,0.244140625,0.0367431640625,-0.0665283203125,-0.9716796875,13.0,-198.0,317.0,101940.0,-5.109000205993652,0,0
2191.845996,0.03424072265625,-0.997802734375,-0.054046630859375,-0.016876220703125,0.1220703125,0.30517578125,-0.06103515625,0.036376953125,-0.067626953125,-0.9752197265625,13.0,-198.0,317.0,101940.0,-5.109000205993652,0,0
2191.852996,0.03424072265625,-0.997802734375,-0.054046630859375,-0.016876220703125,0.06103515625,0.18310546875,-0.244140625,0.03564453125,-0.0623779296875,-0.97314453125,13.0,-198.0,317.0,101940.0,-5.109000205993652,0,0
2191.860021,0.034210205078125,-0.997802734375,-0.054046630859375,-0.016876220703125,0.06103515625,0.244140625,0.1220703125,0.037841796875,-0.0640869140625,-0.9739990234375,13.0,-198.0,317.0,101940.0,-5.109000205993652,0,0
2191.866053,0.034210205078125,-0.997802734375,-0.054046630859375,-0.016876220703125,0.06103515625,0.244140625,0.1220703125,0.037841796875,-0.0640869140625,-0.9739990234375,13.0,-198.0,317.0,101940.0,-5.109000205993652,0,0
2191.872996,0.034210205078125,-0.997772216796875,-0.054168701171875,-0.01690673828125,0.18310546875,0.0,0.06103515625,0.0377197265625,-0.0638427734375,-0.97412109375,13.0,-197.0,317.0,101940.0,-5.109000205993652,0,0
2191.880017,0.034210205078125,-0.997772216796875,-0.054168701171875,-0.016876220703125,0.18310546875,0.1220703125,0.0,0.0357666015625,-0.0634765625,-0.9722900390625,13.0,-197.0,317.0,101940.0,-5.109000205993652,0,0
2191.887001,0.034210205078125,-0.997772216796875,-0.054168701171875,-0.016876220703125,0.1220703125,0.244140625,0.244140625,0.0355224609375,-0.064453125,-0.97314453125,13.0,-197.0,317.0,101940.0,-5.109000205993652,0,0
2191.894018,0.034210205078125,-0.997772216796875,-0.054168701171875,-0.016876220703125,0.06103515625,0.0,0.1220703125,0.0352783203125,-0.06494140625,-0.972412109375,13.0,-197.0,317.0,101940.0,-5.109000205993652,0,0
2191.900995,0.034210205078125,-0.997772216796875,-0.054168701171875,-0.016876220703125,0.06103515625,0.244140625,0.1220703125,0.036865234375,-0.063720703125,-0.9735107421875,13.0,-197.0,317.0,101940.0,-5.109000205993652,0,0
2191.907994,0.034210205078125,-0.997772216796875,-0.054168701171875,-0.016876220703125,0.244140625,0.18310546875,0.30517578125,0.0355224609375,-0.0643310546875,-0.9720458984375,13.0,-197.0,317.0,101940.0,-5.109000205993652,0,0
2191.915019,0.034210205078125,-0.997772216796875,-0.054168701171875,-0.016876220703125,0.0,0.18310546875,-0.1220703125,0.0360107421875,-0.0648193359375,-0.9716796875,13.0,-197.0,317.0,101940.0,-5.110000133514404,0,0
2191.921998,0.034210205078125,-0.997772216796875,-0.054168701171875,-0.016876220703125,-0.244140625,0.30517578125,-0.30517578125,0.0374755859375,-0.0634765625,-0.972900390625,13.0,-197.0,317.0,101940.0,-5.110000133514404,0,0
2191.929018,0.034210205078125,-0.997772216796875,-0.054168701171875,-0.016876220703125,0.06103515625,0.18310546875,0.0,0.0379638671875,-0.0653076171875,-0.974365234375,13.0,-197.0,317.0,101940.0,-5.110000133514404,0,0
2191.935996,0.034210205078125,-0.997772216796875,-0.054168701171875,-0.016876220703125,0.0,0.1220703125,-0.1220703125,0.035888671875,-0.0657958984375,-0.9737548828125,13.0,-197.0,317.0,101940.0,-5.110000133514404,0,0
2191.942996,0.034210205078125,-0.997772216796875,-0.054168701171875,-0.016876220703125,-0.06103515625,0.06103515625,0.06103515625,0.035888671875,-0.066162109375,-0.9744873046875,13.0,-197.0,317.0,101940.0,-5.110000133514404,0,0
2191.950021,0.03424072265625,-0.997772216796875,-0.054168701171875,-0.016876220703125,-0.244140625,0.1220703125,0.18310546875,0.0360107421875,-0.06591796875,-0.972900390625,13.0,-197.0,317.0,101940.0,-5.110000133514404,0,0
2191.956049,0.03424072265625,-0.997772216796875,-0.054168701171875,-0.016876220703125,-0.244140625,0.1220703125,0.18310546875,0.0360107421875,-0.06591796875,-0.972900390625,13.0,-197.0,317.0,101940.0,-5.110000133514404,0,0
2191.962996,0.03424072265625,-0.997772216796875,-0.054168701171875,-0.016876220703125,-0.18310546875,0.244140625,-0.06103515625,0.0343017578125,-0.0654296875,-0.9736328125,13.0,-197.0,317.0,101940.0,-5.110000133514404,0,0
2191.970016,0.034210205078125,-0.997772216796875,-0.054168701171875,-0.016876220703125,-0.06103515625,-0.06103515625,-0.18310546875,0.0355224609375,-0.062744140625,-0.97412109375,13.0,-198.0,318.0,101940.0,-5.110000133514404,0,0
2191.977001,0.03424072265625,-0.997772216796875,-0.054168701171875,-0.016845703125,-0.06103515625,0.06103515625,0.06103515625,0.0343017578125,-0.0665283203125,-0.9722900390625,13.0,-198.0,318.0,101940.0,-5.110000133514404,0,0
2191.997994,0.03424072265625,-0.997772216796875,-0.054168701171875,-0.016845703125,-0.18310546875,0.244140625,0.1220703125,0.0369873046875,-0.06396484375,-0.97412109375,13.0,-198.0,318.0,101940.0,-5.110000133514404,0,0
2192.005019,0.034210205078125,-0.997772216796875,-0.054168701171875,-0.016845703125,0.06103515625,0.18310546875,0.0,0.037353515625,-0.063720703125,-0.97412109375,13.0,-198.0,318.0,101940.0,-5.110000133514404,0,0
2192.011998,0.034210205078125,-0.997772216796875,-0.054168701171875,-0.016845703125,-0.06103515625,0.06103515625,-0.06103515625,0.0355224609375,-0.064453125,-0.9737548828125,13.0,-198.0,318.0,101940.0,-5.110000133514404,0,0
2192.019018,0.03424072265625,-0.997772216796875,-0.054168701171875,-0.016845703125,-0.06103515625,0.18310546875,-0.06103515625,0.0379638671875,-0.06640625,-0.9720458984375,13.0,-198.0,318.0,101940.0,-5.110000133514404,0,0
2192.025996,0.034210205078125,-0.997772216796875,-0.054168701171875,-0.016845703125,-0.244140625,0.244140625,0.0,0.0367431640625,-0.0633544921875,-0.975341796875,13.0,-198.0,318.0,101940.0,-5.110000133514404,0,0
2192.032996,0.03424072265625,-0.997772216796875,-0.054168701171875,-0.016845703125,0.244140625,0.18310546875,-0.06103515625,0.037353515625,-0.065185546875,-0.973388671875,13.0,-198.0,318.0,101940.0,-5.110000133514404,0,0
2192.040021,0.034210205078125,-0.997772216796875,-0.054168701171875,-0.016845703125,0.244140625,0.1220703125,0.0,0.03515625,-0.0638427734375,-0.974365234375,13.0,-198.0,318.0,101940.0,-5.110000133514404,0,0
2192.047001,0.034210205078125,-0.997772216796875,-0.054168701171875,-0.016845703125,0.06103515625,0.18310546875,0.0,0.03759765625,-0.064697265625,-0.974609375,13.0,-198.0,318.0,101940.0,-5.110000133514404,0,0
2192.053032,0.034210205078125,-0.997772216796875,-0.054168701171875,-0.016845703125,0.06103515625,0.18310546875,0.0,0.03759765625,-0.064697265625,-0.974609375,13.0,-198.0,318.0,101940.0,-5.110000133514404,0,0
2192.060016,0.034210205078125,-0.997772216796875,-0.054168701171875,-0.016876220703125,0.06103515625,0.3662109375,-0.244140625,0.0377197265625,-0.0635986328125,-0.9744873046875,13.0,-198.0,318.0,101940.0,-5.110000133514404,0,0
2192.067001,0.034210205078125,-0.997772216796875,-0.054168701171875,-0.016876220703125,0.0,0.1220703125,0.0,0.0369873046875,-0.0650634765625,-0.97412109375,13.0,-198.0,318.0,101940.0,-5.110000133514404,0,0
2192.087994,0.034210205078125,-0.997772216796875,-0.054168701171875,-0.016876220703125,0.18310546875,0.18310546875,0.18310546875,0.0369873046875,-0.0640869140625,-0.97314453125,13.0,-198.0,318.0,101940.0,-5.110000133514404,0,0
2192.095019,0.034210205078125,-0.997772216796875,-0.054168701171875,-0.016876220703125,0.18310546875,0.30517578125,-0.06103515625,0.0362548828125,-0.064697265625,-0.9744873046875,13.0,-198.0,318.0,101940.0,-5.110000133514404,0,0
2192.101998,0.034210205078125,-0.997772216796875,-0.054168701171875,-0.016876220703125,0.06103515625,0.18310546875,0.06103515625,0.039306640625,-0.066162109375,-0.9744873046875,13.0,-198.0,318.0,101940.0,-5.110000133514404,0,0
2192.109018,0.034210205078125,-0.997772216796875,-0.054168701171875,-0.016876220703125,0.06103515625,0.06103515625,-0.1220703125,0.03857421875,-0.0643310546875,-0.97314453125,13.0,-198.0,318.0,101940.0,-5.110000133514404,0,0
2192.115996,0.034210205078125,-0.997772216796875,-0.054168701171875,-0.016876220703125,0.0,0.1220703125,-0.18310546875,0.037109375,-0.0638427734375,-0.9713134765625,13.0,-198.0,318.0,101940.0,-5.110000133514404,0,0
2192.122996,0.034210205078125,-0.997772216796875,-0.054168701171875,-0.016876220703125,-0.06103515625,0.1220703125,-0.06103515625,0.0369873046875,-0.06640625,-0.9735107421875,13.0,-198.0,318.0,101940.0,-5.110000133514404,0,0
2192.130021,0.034210205078125,-0.997772216796875,-0.054168701171875,-0.016876220703125,0.1220703125,0.30517578125,0.06103515625,0.0355224609375,-0.063232421875,-0.9722900390625,13.0,-198.0,318.0,101940.0,-5.110000133514404,0,0
2192.137001,0.034210205078125,-0.997772216796875,-0.054168701171875,-0.016876220703125,-0.06103515625,0.18310546875,0.06103515625,0.03515625,-0.0628662109375,-0.97265625,13.0,-198.0,318.0,101940.0,-5.110000133514404,0,0
2192.143037,0.034210205078125,-0.997772216796875,-0.054168701171875,-0.016876220703125,-0.06103515625,0.18310546875,0.06103515625,0.03515625,-0.0628662109375,-0.97265625,13.0,-198.0,318.0,101940.0,-5.110000133514404,0,0
2192.150017,0.034210205078125,-0.997772216796875,-0.054168701171875,-0.016876220703125,0.244140625,0.1220703125,0.0,0.036865234375,-0.06591796875,-0.9744873046875,13.0,-198.0,318.0,101940.0,-5.110000133514404,0,0
2192.157001,0.034210205078125,-0.997772216796875,-0.054168701171875,-0.016876220703125,0.06103515625,0.1220703125,-0.06103515625,0.0345458984375,-0.0643310546875,-0.9727783203125,13.0,-198.0,318.0,101940.0,-5.110000133514404,0,0
2192.164018,0.034210205078125,-0.997772216796875,-0.054168701171875,-0.016876220703125,0.0,0.30517578125,-0.06103515625,0.03515625,-0.06591796875,-0.974609375,13.0,-198.0,318.0,101940.0,-5.110000133514404,0,0
2192.170999,0.034210205078125,-0.997772216796875,-0.054168701171875,-0.016876220703125,0.06103515625,0.18310546875,-0.06103515625,0.036865234375,-0.0648193359375,-0.97314453125,13.0,-198.0,318.0,101940.0,-5.110000133514404,0,0
2192.177999,0.034210205078125,-0.997772216796875,-0.054168701171875,-0.016876220703125,-0.06103515625,0.18310546875,-0.06103515625,0.0361328125,-0.06494140625,-0.973876953125,13.0,-198.0,318.0,101940.0,-5.110000133514404,0,0
2192.18502,0.034210205078125,-0.997772216796875,-0.054168701171875,-0.016876220703125,-0.06103515625,0.1220703125,-0.06103515625,0.0369873046875,-0.0662841796875,-0.974365234375,13.0,-198.0,318.0,101940.0,-5.110000133514404,0,0
2192.191998,0.034210205078125,-0.997772216796875,-0.054168701171875,-0.016876220703125,0.1220703125,0.1220703125,0.0,0.0374755859375,-0.0650634765625,-0.973876953125,13.0,-198.0,318.0,101940.0,-5.110000133514404,0,0
2192.199018,0.034210205078125,-0.997772216796875,-0.054168701171875,-0.016876220703125,0.06103515625,0.06103515625,-0.244140625,0.0377197265625,-0.0645751953125,-0.971923828125,13.0,-198.0,318.0,101940.0,-5.110000133514404,0,0
2192.205996,0.034210205078125,-0.997772216796875,-0.054168701171875,-0.016876220703125,-0.3662109375,0.18310546875,0.1220703125,0.03515625,-0.0643310546875,-0.9722900390625,13.0,-198.0,318.0,101940.0,-5.110000133514404,0,0
2192.212996,0.034210205078125,-0.997772216796875,-0.054168701171875,-0.016876220703125,0.1220703125,0.18310546875,-0.3662109375,0.0362548828125,-0.064453125,-0.9749755859375,13.0,-198.0,318.0,101940.0,-5.111000061035156,0,0
2192.220021,0.034210205078125,-0.997772216796875,-0.054168701171875,-0.016876220703125,0.1220703125,0.06103515625,-0.06103515625,0.0364990234375,-0.0633544921875,-0.972900390625,13.0,-198.0,318.0,101940.0,-5.111000061035156,0,0
2192.227001,0.034210205078125,-0.997772216796875,-0.054168701171875,-0.016876220703125,0.1220703125,0.18310546875,0.06103515625,0.036376953125,-0.0634765625,-0.9736328125,13.0,-198.0,318.0,101940.0,-5.111000061035156,0,0
2192.234015,0.034210205078125,-0.997772216796875,-0.054168701171875,-0.016876220703125,-0.06103515625,0.1220703125,0.0,0.0377197265625,-0.0634765625,-0.9722900390625,13.0,-198.0,318.0,101940.0,-5.111000061035156,0,0
2192.240047,0.034210205078125,-0.997772216796875,-0.054168701171875,-0.016876220703125,-0.06103515625,0.1220703125,0.0,0.0377197265625,-0.0634765625,-0.9722900390625,13.0,-198.0,318.0,101940.0,-5.111000061035156,0,0
2192.260995,0.0341796875,-0.997772216796875,-0.054168701171875,-0.016876220703125,-0.1220703125,0.244140625,0.06103515625,0.0382080078125,-0.0650634765625,-0.9744873046875,13.0,-198.0,318.0,101940.0,-5.111000061035156,0,0
2192.267994,0.034210205078125,-0.997772216796875,-0.054168701171875,-0.016876220703125,-0.1220703125,0.244140625,0.0,0.037353515625,-0.0660400390625,-0.9742431640625,13.0,-198.0,318.0,101940.0,-5.111000061035156,0,0
2192.275019,0.034210205078125,-0.997772216796875,-0.054168701171875,-0.01690673828125,0.30517578125,0.30517578125,-0.06103515625,0.0367431640625,-0.065185546875,-0.973388671875,13.0,-198.0,318.0,101940.0,-5.111000061035156,0,0
2192.281998,0.034210205078125,-0.997772216796875,-0.054168701171875,-0.01690673828125,0.06103515625,0.18310546875,-0.06103515625,0.0379638671875,-0.0657958984375,-0.9736328125,13.0,-198.0,318.0,101940.0,-5.111000061035156,0,0
2192.289018,0.0341796875,-0.997772216796875,-0.054168701171875,-0.01690673828125,-0.1220703125,0.30517578125,0.0,0.0367431640625,-0.062744140625,-0.9720458984375,13.0,-198.0,318.0,101940.0,-5.111000061035156,0,0
2192.295996,0.034210205078125,-0.997772216796875,-0.054168701171875,-0.01690673828125,-0.06103515625,0.18310546875,-0.1220703125,0.03857421875,-0.066650390625,-0.972900390625,13.0,-198.0,318.0,101940.0,-5.111000061035156,0,0
2192.302996,0.034210205078125,-0.997772216796875,-0.054168701171875,-0.01690673828125,0.1220703125,0.18310546875,-0.244140625,0.0362548828125,-0.06591796875,-0.9744873046875,13.0,-198.0,318.0,101940.0,-5.111000061035156,0,0
2192.310021,0.034210205078125,-0.997772216796875,-0.054168701171875,-0.01690673828125,-0.1220703125,0.244140625,-0.18310546875,0.03564453125,-0.0655517578125,-0.972900390625,13.0,-198.0,318.0,101940.0,-5.111000061035156,0,0
2192.317001,0.034210205078125,-0.997772216796875,-0.054168701171875,-0.01690673828125,-0.1220703125,0.3662109375,0.06103515625,0.0367431640625,-0.06591796875,-0.974609375,13.0,-198.0,318.0,101940.0,-5.111000061035156,0,0
2192.324015,0.034210205078125,-0.997772216796875,-0.054168701171875,-0.01690673828125,-0.1220703125,0.244140625,-0.3662109375,0.03662109375,-0.0645751953125,-0.9736328125,13.0,-198.0,318.0,101940.0,-5.111000061035156,0,0
2192.330047,0.034210205078125,-0.997772216796875,-0.054168701171875,-0.01690673828125,-0.1220703125,0.244140625,-0.3662109375,0.03662109375,-0.0645751953125,-0.9736328125,13.0,-198.0,318.0,101940.0,-5.111000061035156,0,0
2192.350995,0.03424072265625,-0.997772216796875,-0.054168701171875,-0.01690673828125,0.0,0.244140625,-0.06103515625,0.0355224609375,-0.063720703125,-0.9727783203125,13.0,-198.0,318.0,101940.0,-5.111000061035156,0,0
2192.357994,0.03424072265625,-0.997772216796875,-0.054168701171875,-0.01690673828125,0.244140625,0.18310546875,0.18310546875,0.0361328125,-0.0654296875,-0.97265625,13.0,-198.0,318.0,101940.0,-5.111000061035156,0,0
2192.365019,0.03424072265625,-0.997772216796875,-0.054168701171875,-0.01690673828125,-0.18310546875,0.0,-0.1220703125,0.034912109375,-0.066162109375,-0.9722900390625,13.0,-198.0,318.0,101940.0,-5.111000061035156,0,0
2192.371998,0.034210205078125,-0.997772216796875,-0.054168701171875,-0.01690673828125,0.0,0.244140625,-0.1220703125,0.037353515625,-0.0643310546875,-0.9736328125,13.0,-198.0,318.0,101940.0,-5.111000061035156,0,0
2192.379018,0.034210205078125,-0.997772216796875,-0.054168701171875,-0.01690673828125,-0.06103515625,0.1220703125,0.0,0.037109375,-0.064208984375,-0.9742431640625,13.0,-198.0,318.0,101940.0,-5.111000061035156,0,0
2192.385996,0.034210205078125,-0.997772216796875,-0.054168701171875,-0.01690673828125,0.06103515625,0.18310546875,-0.1220703125,0.036376953125,-0.0653076171875,-0.97119140625,13.0,-198.0,318.0,101940.0,-5.111000061035156,0,0
2192.392996,0.034210205078125,-0.997772216796875,-0.054168701171875,-0.01690673828125,0.30517578125,0.244140625,-0.06103515625,0.035400390625,-0.065673828125,-0.973388671875,13.0,-198.0,318.0,101940.0,-5.111000061035156,0,0
2192.400021,0.034210205078125,-0.997772216796875,-0.054168701171875,-0.01690673828125,0.06103515625,0.244140625,0.06103515625,0.0347900390625,-0.0635986328125,-0.97265625,13.0,-198.0,318.0,101940.0,-5.111000061035156,0,0
2192.407001,0.034210205078125,-0.997772216796875,-0.054168701171875,-0.01690673828125,-0.1220703125,0.06103515625,0.06103515625,0.038330078125,-0.0665283203125,-0.973388671875,13.0,-198.0,318.0,101940.0,-5.111000061035156,0,0
2192.414015,0.034210205078125,-0.997772216796875,-0.054168701171875,-0.01690673828125,-0.1220703125,0.06103515625,0.244140625,0.0367431640625,-0.0650634765625,-0.972900390625,13.0,-198.0,318.0,101940.0,-5.111000061035156,0,0
2192.420999,0.034210205078125,-0.997772216796875,-0.054168701171875,-0.01690673828125,0.0,0.18310546875,0.244140625,0.0361328125,-0.06396484375,-0.972900390625,13.0,-198.0,318.0,101940.0,-5.111000061035156,0,0
2192.427032,0.034210205078125,-0.997772216796875,-0.054168701171875,-0.01690673828125,0.0,0.18310546875,0.244140625,0.0361328125,-0.06396484375,-0.972900390625,13.0,-198.0,318.0,101940.0,-5.111000061035156,0,0
2192.434018,0.03424072265625,-0.997772216796875,-0.054168701171875,-0.01690673828125,-0.06103515625,0.0,0.1220703125,0.03662109375,-0.0650634765625,-0.9727783203125,13.0,-198.0,318.0,101940.0,-5.111000061035156,0,0
2192.440999,0.03424072265625,-0.997772216796875,-0.054168701171875,-0.01690673828125,0.06103515625,0.06103515625,-0.1220703125,0.034423828125,-0.0650634765625,-0.9735107421875,13.0,-198.0,318.0,101940.0,-5.111000061035156,0,0
2192.447999,0.03424072265625,-0.997772216796875,-0.054168701171875,-0.01690673828125,-0.06103515625,0.244140625,0.0,0.03759765625,-0.0667724609375,-0.9710693359375,13.0,-198.0,318.0,101940.0,-5.111000061035156,0,0
2192.45502,0.03424072265625,-0.997772216796875,-0.054168701171875,-0.01690673828125,0.1220703125,0.30517578125,0.06103515625,0.0386962890625,-0.0643310546875,-0.9749755859375,13.0,-198.0,318.0,101940.0,-5.111000061035156,0,0
2192.461998,0.03424072265625,-0.997772216796875,-0.054168701171875,-0.01690673828125,-0.06103515625,0.244140625,0.1220703125,0.038330078125,-0.0650634765625,-0.9732666015625,13.0,-198.0,318.0,101940.0,-5.111000061035156,0,0
2192.469018,0.03424072265625,-0.997802734375,-0.054046630859375,-0.01690673828125,-0.1220703125,0.3662109375,0.1220703125,0.033935546875,-0.064208984375,-0.972900390625,12.0,-198.0,318.0,101940.0,-5.110000133514404,0,0
2192.475996,0.03424072265625,-0.997802734375,-0.054046630859375,-0.01690673828125,-0.06103515625,0.1220703125,-0.1220703125,0.0391845703125,-0.0650634765625,-0.9739990234375,12.0,-198.0,318.0,101940.0,-5.110000133514404,0,0
2192.482996,0.03424072265625,-0.997802734375,-0.054046630859375,-0.01690673828125,-0.1220703125,0.1220703125,0.0,0.036376953125,-0.0654296875,-0.9735107421875,12.0,-198.0,318.0,101940.0,-5.110000133514404,0,0
2192.490021,0.03424072265625,-0.997802734375,-0.054046630859375,-0.01690673828125,0.18310546875,0.244140625,-0.18310546875,0.03466796875,-0.0643310546875,-0.9715576171875,12.0,-198.0,318.0,101940.0,-5.110000133514404,0,0
2192.497001,0.03424072265625,-0.997802734375,-0.054046630859375,-0.01690673828125,-0.18310546875,0.18310546875,0.1220703125,0.0360107421875,-0.0635986328125,-0.97119140625,12.0,-198.0,318.0,101940.0,-5.110000133514404,0,0
2192.504015,0.03424072265625,-0.997802734375,-0.054046630859375,-0.01690673828125,-0.06103515625,0.244140625,0.06103515625,0.035400390625,-0.0643310546875,-0.9720458984375,12.0,-198.0,318.0,101940.0,-5.110000133514404,0,0
2192.524018,0.03424072265625,-0.997802734375,-0.054046630859375,-0.01690673828125,0.1220703125,0.30517578125,-0.06103515625,0.03759765625,-0.0638427734375,-0.9735107421875,12.0,-198.0,318.0,101940.0,-5.110000133514404,0,0
2192.530995,0.03424072265625,-0.997802734375,-0.054046630859375,-0.01690673828125,-0.06103515625,0.0,-0.06103515625,0.0360107421875,-0.0657958984375,-0.97265625,12.0,-198.0,318.0,101940.0,-5.110000133514404,0,0
2192.537994,0.03424072265625,-0.997802734375,-0.054046630859375,-0.016876220703125,-0.06103515625,0.30517578125,0.0,0.0350341796875,-0.06396484375,-0.9716796875,12.0,-198.0,318.0,101940.0,-5.110000133514404,0,0
2192.545019,0.03424072265625,-0.997802734375,-0.054046630859375,-0.016876220703125,-0.06103515625,0.1220703125,0.18310546875,0.03515625,-0.06103515625,-0.9732666015625,12.0,-198.0,318.0,101940.0,-5.110000133514404,0,0
2192.551998,0.03424072265625,-0.997802734375,-0.054046630859375,-0.01690673828125,-0.18310546875,0.06103515625,-0.1220703125,0.0389404296875,-0.06494140625,-0.9710693359375,12.0,-198.0,318.0,101940.0,-5.110000133514404,0,0
2192.559018,0.03424072265625,-0.997802734375,-0.054046630859375,-0.01690673828125,0.0,0.244140625,-0.06103515625,0.0352783203125,-0.064453125,-0.9735107421875,12.0,-198.0,318.0,101940.0,-5.110000133514404,0,0
2192.565996,0.03424072265625,-0.997772216796875,-0.054168701171875,-0.016876220703125,0.0,0.30517578125,0.0,0.03857421875,-0.0631103515625,-0.9730224609375,13.0,-197.0,319.0,101940.0,-5.110000133514404,0,0
2192.572996,0.03424072265625,-0.997772216796875,-0.054168701171875,-0.016876220703125,-0.1220703125,0.244140625,0.1220703125,0.036865234375,-0.06396484375,-0.974609375,13.0,-197.0,319.0,101940.0,-5.110000133514404,0,0
2192.580021,0.03424072265625,-0.997772216796875,-0.054168701171875,-0.01690673828125,0.0,0.244140625,0.1220703125,0.037109375,-0.0650634765625,-0.9722900390625,13.0,-197.0,319.0,101940.0,-5.110000133514404,0,0
2192.587001,0.03424072265625,-0.997772216796875,-0.054168701171875,-0.016876220703125,0.0,0.06103515625,-0.06103515625,0.0345458984375,-0.064453125,-0.97412109375,13.0,-197.0,319.0,101940.0,-5.110000133514404,0,0
2192.594015,0.03424072265625,-0.997772216796875,-0.054168701171875,-0.016876220703125,0.0,0.3662109375,-0.06103515625,0.0364990234375,-0.064208984375,-0.97216796875,13.0,-197.0,319.0,101940.0,-5.110000133514404,0,0
2192.614026,0.034210205078125,-0.997772216796875,-0.054168701171875,-0.016876220703125,0.3662109375,0.30517578125,-0.244140625,0.0361328125,-0.0665283203125,-0.970947265625,13.0,-197.0,319.0,101940.0,-5.110000133514404,0,0
2192.620995,0.034210205078125,-0.997772216796875,-0.054168701171875,-0.01690673828125,-0.1220703125,0.18310546875,0.0,0.0369873046875,-0.064697265625,-0.972412109375,13.0,-197.0,319.0,101940.0,-5.110000133514404,0,0
2192.627994,0.034210205078125,-0.997772216796875,-0.054168701171875,-0.01690673828125,0.1220703125,0.244140625,0.06103515625,0.0350341796875,-0.064697265625,-0.9735107421875,13.0,-197.0,319.0,101940.0,-5.110000133514404,0,0
2192.635019,0.034210205078125,-0.997772216796875,-0.054168701171875,-0.01690673828125,0.1220703125,0.1220703125,0.1220703125,0.03515625,-0.0640869140625,-0.9736328125,13.0,-197.0,319.0,101940.0,-5.110000133514404,0,0
2192.641998,0.034210205078125,-0.997772216796875,-0.054168701171875,-0.01690673828125,0.18310546875,0.0,-0.18310546875,0.0374755859375,-0.0660400390625,-0.974609375,13.0,-197.0,319.0,101940.0,-5.110000133514404,0,0
2192.649018,0.034210205078125,-0.997772216796875,-0.054168701171875,-0.01690673828125,0.0,-0.06103515625,-0.06103515625,0.0357666015625,-0.0654296875,-0.9737548828125,13.0,-197.0,319.0,101940.0,-5.110000133514404,0,0
2192.655996,0.034210205078125,-0.997772216796875,-0.054168701171875,-0.01690673828125,0.0,0.244140625,-0.18310546875,0.036376953125,-0.064208984375,-0.971923828125,13.0,-197.0,319.0,101940.0,-5.110000133514404,0,0
2192.662996,0.034210205078125,-0.997772216796875,-0.054168701171875,-0.01690673828125,0.0,0.30517578125,-0.06103515625,0.036865234375,-0.066650390625,-0.9744873046875,13.0,-197.0,319.0,101940.0,-5.110000133514404,0,0
2192.670021,0.034210205078125,-0.997772216796875,-0.054168701171875,-0.01690673828125,0.06103515625,0.244140625,-0.244140625,0.03662109375,-0.064453125,-0.9739990234375,13.0,-198.0,318.0,101940.0,-5.110000133514404,0,0
2192.677001,0.034210205078125,-0.997772216796875,-0.054168701171875,-0.01690673828125,0.06103515625,0.244140625,0.0,0.036865234375,-0.06494140625,-0.9720458984375,13.0,-198.0,318.0,101940.0,-5.110000133514404,0,0
