Time stamp(sec),quaternion_0,quaternion_1,quaternion_2,quaternion_3,roll_angular_rate,pitch_angular_rate,yaw_angular_rate,acc_X,acc_Y,acc_Z,mag_X,mag_Y,mag_Z,pressure,altitude
5897.637993066189,0.714508056640625,-0.490325927734375,-0.004241943359375,-0.498992919921875,0.1220703125,0.42724609375,0.1220703125,0.49609375,-0.6961669921875,0.517822265625,-238.0,220.0,-82.0,102300.0,-8.092000007629395,0,0
5897.642994066189,0.714508056640625,-0.490325927734375,-0.0042724609375,-0.498992919921875,-0.1220703125,0.18310546875,0.18310546875,0.4970703125,-0.6968994140625,0.51953125,-238.0,220.0,-82.0,102300.0,-8.092000007629395,0,0
5897.64799506619,0.714508056640625,-0.490325927734375,-0.0042724609375,-0.498992919921875,-0.244140625,0.3662109375,-0.244140625,0.4970703125,-0.6983642578125,0.5205078125,-238.0,220.0,-82.0,102300.0,-8.092000007629395,0,0
5897.65299606619,0.714508056640625,-0.490325927734375,-0.004241943359375,-0.498992919921875,-0.06103515625,0.18310546875,-0.06103515625,0.4951171875,-0.6959228515625,0.517822265625,-238.0,220.0,-82.0,102300.0,-8.092000007629395,0,0
5897.65799306619,0.714508056640625,-0.4903564453125,-0.0042724609375,-0.498992919921875,-0.06103515625,0.18310546875,-0.06103515625,0.4951171875,-0.6959228515625,0.517822265625,-238.0,220.0,-83.0,102300.0,-8.092000007629395,0,0
5897.66202206619,0.714508056640625,-0.4903564453125,-0.0042724609375,-0.498992919921875,-0.06103515625,0.18310546875,-0.06103515625,0.4951171875,-0.6959228515625,0.517822265625,-238.0,220.0,-83.0,102300.0,-8.092000007629395,0,0
5897.66699306619,0.714385986328125,-0.4903564453125,-0.004150390625,-0.4991455078125,0.06103515625,0.06103515625,-0.06103515625,0.493896484375,-0.6968994140625,0.519775390625,-238.0,220.0,-83.0,102300.0,-8.092000007629395,0,0
5897.67199306619,0.714385986328125,-0.4903564453125,-0.004150390625,-0.4991455078125,0.1220703125,0.0,-0.06103515625,0.495361328125,-0.69775390625,0.5181884765625,-238.0,220.0,-83.0,102300.0,-8.092000007629395,0,0
5897.676994066191,0.714385986328125,-0.4903564453125,-0.004150390625,-0.4991455078125,0.1220703125,0.3662109375,0.244140625,0.49609375,-0.697998046875,0.518310546875,-238.0,220.0,-83.0,102300.0,-8.092000007629395,0,0
5897.681996066191,0.714385986328125,-0.4903564453125,-0.004150390625,-0.4991455078125,0.18310546875,0.244140625,-0.06103515625,0.4940185546875,-0.697509765625,0.5169677734375,-238.0,220.0,-83.0,102300.0,-8.092000007629395,0,0
5897.686993066191,0.714385986328125,-0.4903564453125,-0.004150390625,-0.4991455078125,-0.1220703125,0.06103515625,0.1220703125,0.498291015625,-0.6971435546875,0.518798828125,-238.0,220.0,-83.0,102300.0,-8.092000007629395,0,0
5897.691993066191,0.714385986328125,-0.490386962890625,-0.004150390625,-0.4991455078125,0.0,0.30517578125,-0.06103515625,0.4954833984375,-0.6973876953125,0.517333984375,-238.0,220.0,-83.0,102300.0,-8.092000007629395,0,0
5897.696994066191,0.71435546875,-0.490386962890625,-0.004150390625,-0.4991455078125,-0.18310546875,0.06103515625,-0.1220703125,0.49853515625,-0.698486328125,0.5181884765625,-238.0,220.0,-83.0,102300.0,-8.092000007629395,0,0
5897.701995066192,0.71435546875,-0.490386962890625,-0.004150390625,-0.4991455078125,-0.06103515625,0.06103515625,0.06103515625,0.494873046875,-0.6939697265625,0.5181884765625,-238.0,220.0,-83.0,102300.0,-8.092000007629395,0,0
5897.706996066192,0.714385986328125,-0.490386962890625,-0.004150390625,-0.4991455078125,-0.06103515625,0.06103515625,0.06103515625,0.494873046875,-0.6939697265625,0.5181884765625,-238.0,220.0,-83.0,102300.0,-8.09000015258789,0,0
5897.711993066192,0.71435546875,-0.490386962890625,-0.004150390625,-0.4991455078125,-0.18310546875,0.3662109375,0.0,0.4954833984375,-0.6961669921875,0.5184326171875,-238.0,220.0,-83.0,102300.0,-8.09000015258789,0,0
5897.716993066192,0.71435546875,-0.490386962890625,-0.004150390625,-0.4991455078125,0.0,0.244140625,0.06103515625,0.49853515625,-0.697509765625,0.518798828125,-238.0,220.0,-83.0,102300.0,-8.09000015258789,0,0
5897.721994066193,0.71435546875,-0.490386962890625,-0.004150390625,-0.4991455078125,0.1220703125,0.1220703125,-0.18310546875,0.494384765625,-0.6964111328125,0.5172119140625,-238.0,220.0,-83.0,102300.0,-8.09000015258789,0,0
5897.726996066192,0.71435546875,-0.490386962890625,-0.004150390625,-0.4991455078125,-0.18310546875,-0.1220703125,0.244140625,0.497314453125,-0.6962890625,0.5162353515625,-238.0,220.0,-83.0,102300.0,-8.09000015258789,0,0
5897.731028066192,0.71435546875,-0.490386962890625,-0.004150390625,-0.4991455078125,-0.18310546875,-0.1220703125,0.244140625,0.497314453125,-0.6962890625,0.5162353515625,-238.0,220.0,-83.0,102300.0,-8.09000015258789,0,0
5897.7359960661925,0.71435546875,-0.49041748046875,-0.004150390625,-0.499114990234375,-0.1220703125,0.0,0.0,0.4962158203125,-0.69775390625,0.51904296875,-238.0,220.0,-83.0,102300.0,-8.09000015258789,0,0
5897.7409930661925,0.71435546875,-0.49041748046875,-0.004150390625,-0.499114990234375,0.0,0.18310546875,-0.06103515625,0.497314453125,-0.6964111328125,0.5181884765625,-238.0,220.0,-83.0,102300.0,-8.09000015258789,0,0
5897.745993066193,0.71435546875,-0.49041748046875,-0.004150390625,-0.499114990234375,0.1220703125,0.0,-0.1220703125,0.4951171875,-0.6971435546875,0.5177001953125,-238.0,220.0,-83.0,102300.0,-8.09000015258789,0,0
5897.760997066193,0.71435546875,-0.49041748046875,-0.004150390625,-0.499114990234375,-0.3662109375,0.1220703125,0.0,0.4959716796875,-0.6981201171875,0.5169677734375,-237.0,222.0,-84.0,102300.0,-8.09000015258789,0,0
5897.765994066193,0.71435546875,-0.49041748046875,-0.004150390625,-0.499114990234375,-0.244140625,-0.06103515625,0.06103515625,0.49609375,-0.6962890625,0.5185546875,-237.0,222.0,-84.0,102300.0,-8.09000015258789,0,0
5897.770994066193,0.71435546875,-0.49041748046875,-0.004150390625,-0.499114990234375,0.06103515625,0.30517578125,-0.18310546875,0.4964599609375,-0.697509765625,0.517578125,-237.0,222.0,-84.0,102300.0,-8.09000015258789,0,0
5897.775994066194,0.71435546875,-0.490447998046875,-0.004150390625,-0.499114990234375,-0.42724609375,0.244140625,-0.18310546875,0.4947509765625,-0.6962890625,0.517578125,-237.0,222.0,-84.0,102300.0,-8.09000015258789,0,0
5897.780996066193,0.714324951171875,-0.490447998046875,-0.004180908203125,-0.499114990234375,-0.06103515625,-0.06103515625,0.18310546875,0.4945068359375,-0.695068359375,0.516845703125,-237.0,222.0,-84.0,102300.0,-8.09000015258789,0,0
5897.785994066194,0.714324951171875,-0.490447998046875,-0.004180908203125,-0.499114990234375,0.0,0.244140625,0.18310546875,0.4970703125,-0.694580078125,0.5166015625,-237.0,222.0,-84.0,102300.0,-8.09000015258789,0,0
5897.790994066194,0.71435546875,-0.490447998046875,-0.004150390625,-0.499114990234375,-0.18310546875,-0.18310546875,-0.18310546875,0.4952392578125,-0.6968994140625,0.51806640625,-237.0,222.0,-84.0,102300.0,-8.09000015258789,0,0
5897.795024066194,0.71435546875,-0.490447998046875,-0.004150390625,-0.499114990234375,-0.18310546875,-0.18310546875,-0.18310546875,0.4952392578125,-0.6968994140625,0.51806640625,-237.0,222.0,-84.0,102300.0,-8.09000015258789,0,0
5897.799994066194,0.714324951171875,-0.490447998046875,-0.004150390625,-0.499114990234375,-0.244140625,0.1220703125,-0.1220703125,0.4974365234375,-0.6968994140625,0.5181884765625,-237.0,222.0,-84.0,102300.0,-8.09000015258789,0,0
5897.804995066194,0.714324951171875,-0.490447998046875,-0.004150390625,-0.499114990234375,0.0,0.0,-0.06103515625,0.494873046875,-0.69482421875,0.5196533203125,-237.0,222.0,-84.0,102300.0,-8.09000015258789,0,0
5897.809997066194,0.714324951171875,-0.490447998046875,-0.004150390625,-0.499114990234375,0.1220703125,0.1220703125,-0.06103515625,0.4945068359375,-0.6968994140625,0.517333984375,-237.0,222.0,-84.0,102300.0,-8.09000015258789,0,0
5897.824994066194,0.714324951171875,-0.490447998046875,-0.004180908203125,-0.499114990234375,-0.18310546875,0.0,-0.06103515625,0.49609375,-0.6953125,0.517822265625,-237.0,222.0,-84.0,102300.0,-8.09000015258789,0,0
5897.829994066195,0.714324951171875,-0.490447998046875,-0.004150390625,-0.499114990234375,-0.244140625,0.18310546875,-0.06103515625,0.49560546875,-0.6959228515625,0.5181884765625,-237.0,222.0,-84.0,102300.0,-8.09000015258789,0,0
5897.834996066194,0.714324951171875,-0.490447998046875,-0.004150390625,-0.499114990234375,0.30517578125,0.18310546875,0.06103515625,0.49560546875,-0.6986083984375,0.5194091796875,-237.0,222.0,-84.0,102300.0,-8.09000015258789,0,0
5897.839993066194,0.714324951171875,-0.490447998046875,-0.004150390625,-0.499114990234375,-0.3662109375,0.1220703125,-0.1220703125,0.4957275390625,-0.6956787109375,0.518310546875,-237.0,222.0,-84.0,102300.0,-8.09000015258789,0,0
5897.844993066195,0.714324951171875,-0.490447998046875,-0.004150390625,-0.499114990234375,0.1220703125,0.18310546875,-0.18310546875,0.4945068359375,-0.69482421875,0.5164794921875,-237.0,222.0,-84.0,102300.0,-8.09000015258789,0,0
5897.849994066195,0.714324951171875,-0.490478515625,-0.004150390625,-0.499114990234375,0.0,0.06103515625,-0.18310546875,0.4947509765625,-0.697021484375,0.519287109375,-237.0,222.0,-84.0,102300.0,-8.09000015258789,0,0
5897.854995066195,0.714324951171875,-0.490478515625,-0.004150390625,-0.499114990234375,-0.30517578125,0.18310546875,-0.18310546875,0.4969482421875,-0.69677734375,0.5152587890625,-238.0,222.0,-85.0,102300.0,-8.09000015258789,0,0
5897.859992066195,0.714202880859375,-0.490478515625,-0.004058837890625,-0.499267578125,0.0,0.18310546875,-0.18310546875,0.496337890625,-0.697265625,0.51904296875,-238.0,222.0,-85.0,102300.0,-8.09000015258789,0,0
5897.864021066195,0.714202880859375,-0.490478515625,-0.004058837890625,-0.499267578125,0.0,0.18310546875,-0.18310546875,0.496337890625,-0.697265625,0.51904296875,-238.0,222.0,-85.0,102300.0,-8.09000015258789,0,0
5897.868996066195,0.7142333984375,-0.490447998046875,-0.004058837890625,-0.499267578125,-0.06103515625,0.30517578125,0.1220703125,0.49267578125,-0.6932373046875,0.5181884765625,-238.0,222.0,-85.0,102300.0,-8.09000015258789,0,0
5897.873993066195,0.714202880859375,-0.490478515625,-0.004058837890625,-0.499267578125,-0.18310546875,0.0,-0.06103515625,0.4952392578125,-0.6973876953125,0.5189208984375,-238.0,222.0,-85.0,102300.0,-8.09000015258789,0,0
5897.878993066195,0.714202880859375,-0.490478515625,-0.004058837890625,-0.499267578125,0.30517578125,0.06103515625,-0.1220703125,0.4971923828125,-0.697265625,0.5179443359375,-238.0,222.0,-85.0,102300.0,-8.09000015258789,0,0
5897.883994066196,0.714202880859375,-0.490478515625,-0.004058837890625,-0.499267578125,0.30517578125,0.244140625,0.244140625,0.4954833984375,-0.696044921875,0.517578125,-238.0,222.0,-85.0,102300.0,-8.09000015258789,0,0
5897.888996066195,0.714202880859375,-0.490478515625,-0.004058837890625,-0.499267578125,-0.244140625,0.06103515625,-0.1220703125,0.4970703125,-0.6949462890625,0.5174560546875,-238.0,222.0,-85.0,102300.0,-8.09000015258789,0,0
5897.893993066195,0.714202880859375,-0.490478515625,-0.004058837890625,-0.499267578125,-0.06103515625,0.48828125,0.1220703125,0.4940185546875,-0.6953125,0.516845703125,-238.0,222.0,-85.0,102300.0,-8.09000015258789,0,0
5897.8989930661955,0.714202880859375,-0.490478515625,-0.004058837890625,-0.499267578125,-0.18310546875,0.06103515625,0.18310546875,0.4947509765625,-0.697021484375,0.517822265625,-238.0,222.0,-85.0,102300.0,-8.09000015258789,0,0
5897.903994066196,0.714202880859375,-0.490478515625,-0.004058837890625,-0.499267578125,0.244140625,0.06103515625,-0.06103515625,0.4971923828125,-0.6937255859375,0.5181884765625,-238.0,222.0,-85.0,102300.0,-8.09000015258789,0,0
5897.908995066196,0.714202880859375,-0.490478515625,-0.004058837890625,-0.499267578125,0.0,0.06103515625,0.0,0.495361328125,-0.696044921875,0.517822265625,-238.0,222.0,-85.0,102300.0,-8.09000015258789,0,0
5897.913992066196,0.714202880859375,-0.490478515625,-0.004058837890625,-0.499267578125,-0.18310546875,0.0,-0.244140625,0.4964599609375,-0.696044921875,0.51904296875,-238.0,222.0,-85.0,102300.0,-8.09000015258789,0,0
5897.918993066197,0.714202880859375,-0.490478515625,-0.004058837890625,-0.499267578125,-0.1220703125,0.30517578125,-0.18310546875,0.495361328125,-0.6953125,0.51806640625,-238.0,222.0,-85.0,102300.0,-8.09000015258789,0,0
5897.923993066197,0.714202880859375,-0.490478515625,-0.004058837890625,-0.499267578125,-0.3662109375,-0.18310546875,-0.30517578125,0.4959716796875,-0.6961669921875,0.5167236328125,-238.0,222.0,-85.0,102300.0,-8.09000015258789,0,0
5897.928022066197,0.714202880859375,-0.490478515625,-0.004058837890625,-0.499267578125,-0.3662109375,-0.18310546875,-0.30517578125,0.4959716796875,-0.6961669921875,0.5167236328125,-238.0,222.0,-85.0,102300.0,-8.09000015258789,0,0
5897.932993066197,0.714202880859375,-0.490478515625,-0.004058837890625,-0.499267578125,-0.06103515625,0.244140625,-0.1220703125,0.4942626953125,-0.696044921875,0.518310546875,-238.0,222.0,-85.0,102300.0,-8.09000015258789,0,0
5897.947993066197,0.714202880859375,-0.490478515625,-0.004058837890625,-0.499267578125,-0.30517578125,0.1220703125,0.0,0.4952392578125,-0.6961669921875,0.5179443359375,-238.0,222.0,-85.0,102300.0,-8.09000015258789,0,0
5897.952993066197,0.714202880859375,-0.490478515625,-0.004058837890625,-0.499267578125,-0.30517578125,0.1220703125,0.0,0.4952392578125,-0.6961669921875,0.5179443359375,-238.0,222.0,-85.0,102300.0,-8.09000015258789,0,0
5897.957994066198,0.714202880859375,-0.490478515625,-0.004058837890625,-0.499267578125,-0.1220703125,0.06103515625,-0.06103515625,0.49560546875,-0.6959228515625,0.519287109375,-237.0,221.0,-85.0,102300.0,-8.09000015258789,0,0
5897.962995066198,0.714080810546875,-0.490478515625,-0.00396728515625,-0.499420166015625,0.06103515625,0.0,-0.1220703125,0.4969482421875,-0.697021484375,0.5177001953125,-237.0,221.0,-85.0,102300.0,-8.09000015258789,0,0
5897.967992066198,0.714080810546875,-0.490478515625,-0.00396728515625,-0.499420166015625,0.1220703125,0.0,-0.1220703125,0.4945068359375,-0.696044921875,0.5174560546875,-237.0,221.0,-85.0,102300.0,-8.09000015258789,0,0
5897.972994066198,0.714080810546875,-0.490509033203125,-0.00396728515625,-0.499420166015625,0.06103515625,0.244140625,-0.06103515625,0.4969482421875,-0.695556640625,0.5186767578125,-237.0,221.0,-85.0,102300.0,-8.09000015258789,0,0
5897.977994066198,0.714080810546875,-0.490509033203125,-0.00396728515625,-0.499420166015625,0.18310546875,0.244140625,0.0,0.495361328125,-0.696044921875,0.518310546875,-237.0,221.0,-85.0,102300.0,-8.09000015258789,0,0
5897.982994066198,0.714080810546875,-0.490509033203125,-0.00396728515625,-0.499420166015625,-0.1220703125,0.244140625,0.0,0.495361328125,-0.6964111328125,0.517333984375,-237.0,221.0,-85.0,102300.0,-8.09000015258789,0,0
5897.987997066199,0.714080810546875,-0.490509033203125,-0.00396728515625,-0.499420166015625,-0.06103515625,-0.06103515625,0.0,0.4949951171875,-0.697265625,0.515625,-237.0,221.0,-85.0,102300.0,-8.09000015258789,0,0
5897.992994066199,0.714080810546875,-0.490509033203125,-0.003936767578125,-0.499420166015625,-0.30517578125,0.1220703125,0.0,0.49609375,-0.698486328125,0.5184326171875,-237.0,221.0,-85.0,102300.0,-8.09000015258789,0,0
5897.997024066199,0.714080810546875,-0.490509033203125,-0.003936767578125,-0.499420166015625,-0.30517578125,0.1220703125,0.0,0.49609375,-0.698486328125,0.5184326171875,-237.0,221.0,-85.0,102300.0,-8.09000015258789,0,0
5898.011995066199,0.714080810546875,-0.490509033203125,-0.00396728515625,-0.499420166015625,-0.06103515625,-0.06103515625,-0.1220703125,0.4967041015625,-0.69775390625,0.5191650390625,-237.0,221.0,-85.0,102300.0,-8.09000015258789,0,0
5898.016997066199,0.714080810546875,-0.490509033203125,-0.00396728515625,-0.499420166015625,-0.1220703125,0.1220703125,0.0,0.4969482421875,-0.6951904296875,0.517822265625,-237.0,221.0,-85.0,102300.0,-8.09000015258789,0,0
5898.021997066199,0.714080810546875,-0.490509033203125,-0.00396728515625,-0.499420166015625,-0.18310546875,0.1220703125,-0.244140625,0.4957275390625,-0.6961669921875,0.5189208984375,-237.0,221.0,-85.0,102300.0,-8.09000015258789,0,0
5898.026994066199,0.714080810546875,-0.490509033203125,-0.00396728515625,-0.499420166015625,0.0,0.1220703125,0.0,0.495361328125,-0.694580078125,0.5179443359375,-237.0,221.0,-85.0,102300.0,-8.09000015258789,0,0
5898.031994066199,0.714080810546875,-0.49053955078125,-0.003936767578125,-0.499420166015625,-0.06103515625,0.06103515625,0.0,0.4942626953125,-0.6961669921875,0.5184326171875,-237.0,221.0,-85.0,102300.0,-8.09000015258789,0,0
5898.036994066199,0.714080810546875,-0.49053955078125,-0.003936767578125,-0.499420166015625,-0.1220703125,0.30517578125,0.0,0.4931640625,-0.6976318359375,0.517333984375,-237.0,221.0,-85.0,102300.0,-8.09000015258789,0,0
5898.041996066199,0.714080810546875,-0.49053955078125,-0.003936767578125,-0.499420166015625,0.18310546875,-0.06103515625,-0.06103515625,0.49609375,-0.6981201171875,0.51904296875,-237.0,221.0,-85.0,102300.0,-8.09000015258789,0,0
5898.046993066199,0.714080810546875,-0.49053955078125,-0.003936767578125,-0.499420166015625,-0.54931640625,0.0,-0.06103515625,0.4964599609375,-0.698486328125,0.518310546875,-237.0,221.0,-85.0,102300.0,-8.09000015258789,0,0
5898.051993066199,0.714080810546875,-0.49053955078125,-0.003936767578125,-0.499420166015625,0.18310546875,0.3662109375,-0.06103515625,0.4986572265625,-0.6981201171875,0.5172119140625,-237.0,221.0,-85.0,102300.0,-8.09000015258789,0,0
5898.0569940662,0.71405029296875,-0.49053955078125,-0.00396728515625,-0.499420166015625,0.1220703125,-0.1220703125,0.18310546875,0.4981689453125,-0.6966552734375,0.5185546875,-236.0,223.0,-85.0,102300.0,-8.09000015258789,0,0
5898.0610230662,0.71405029296875,-0.49053955078125,-0.00396728515625,-0.499420166015625,0.1220703125,-0.1220703125,0.18310546875,0.4981689453125,-0.6966552734375,0.5185546875,-236.0,223.0,-85.0,102300.0,-8.09000015258789,0,0
5898.0659940662,0.71405029296875,-0.49053955078125,-0.00396728515625,-0.499420166015625,0.18310546875,0.48828125,0.1220703125,0.4962158203125,-0.6968994140625,0.51806640625,-236.0,223.0,-85.0,102300.0,-8.09000015258789,0,0
5898.0709950662,0.71405029296875,-0.49053955078125,-0.00396728515625,-0.499420166015625,-0.06103515625,-0.06103515625,0.1220703125,0.495849609375,-0.6968994140625,0.51953125,-236.0,223.0,-85.0,102300.0,-8.09000015258789,0,0
5898.0759920662,0.71405029296875,-0.490570068359375,-0.00396728515625,-0.499420166015625,-0.06103515625,0.06103515625,-0.1220703125,0.49755859375,-0.6983642578125,0.5164794921875,-236.0,223.0,-85.0,102300.0,-8.09000015258789,0,0
5898.080993066201,0.71405029296875,-0.490570068359375,-0.00396728515625,-0.499420166015625,0.0,0.3662109375,-0.244140625,0.497314453125,-0.69775390625,0.518798828125,-236.0,223.0,-85.0,102300.0,-8.09000015258789,0,0
5898.085993066201,0.71405029296875,-0.490570068359375,-0.00396728515625,-0.499420166015625,0.06103515625,0.1220703125,0.06103515625,0.4942626953125,-0.69580078125,0.516357421875,-236.0,223.0,-85.0,102300.0,-8.09000015258789,0,0
5898.090994066201,0.71405029296875,-0.490570068359375,-0.00396728515625,-0.499420166015625,-0.244140625,0.06103515625,0.0,0.4935302734375,-0.6951904296875,0.51611328125,-236.0,223.0,-85.0,102300.0,-8.09000015258789,0,0
5898.095996066201,0.71405029296875,-0.490570068359375,-0.00396728515625,-0.499420166015625,0.0,0.1220703125,0.06103515625,0.49365234375,-0.6947021484375,0.5179443359375,-236.0,223.0,-85.0,102300.0,-8.09000015258789,0,0
5898.100993066201,0.71405029296875,-0.490570068359375,-0.00396728515625,-0.499420166015625,-0.18310546875,0.06103515625,-0.244140625,0.4952392578125,-0.6953125,0.5159912109375,-236.0,223.0,-85.0,102300.0,-8.09000015258789,0,0
5898.105993066201,0.71405029296875,-0.490570068359375,-0.00396728515625,-0.499420166015625,0.30517578125,0.18310546875,-0.1220703125,0.49462890625,-0.6944580078125,0.5179443359375,-236.0,223.0,-85.0,102300.0,-8.09000015258789,0,0
5898.110994066202,0.71405029296875,-0.490570068359375,-0.00396728515625,-0.499420166015625,-0.06103515625,0.30517578125,0.0,0.4970703125,-0.69677734375,0.5162353515625,-236.0,223.0,-85.0,102300.0,-8.09000015258789,0,0
5898.115995066202,0.71405029296875,-0.490570068359375,-0.00396728515625,-0.499420166015625,-0.06103515625,0.30517578125,0.1220703125,0.495849609375,-0.6962890625,0.5181884765625,-236.0,223.0,-85.0,102300.0,-8.09000015258789,0,0
5898.120996066203,0.71405029296875,-0.490570068359375,-0.00396728515625,-0.499420166015625,-0.06103515625,0.244140625,-0.18310546875,0.4951171875,-0.6973876953125,0.5181884765625,-236.0,223.0,-85.0,102300.0,-8.09000015258789,0,0
5898.134993066203,0.71405029296875,-0.490570068359375,-0.00396728515625,-0.4993896484375,0.06103515625,0.06103515625,-0.18310546875,0.496826171875,-0.6966552734375,0.5167236328125,-236.0,223.0,-85.0,102300.0,-8.09000015258789,0,0
5898.139993066203,0.71405029296875,-0.490570068359375,-0.00396728515625,-0.4993896484375,0.0,0.18310546875,0.06103515625,0.496826171875,-0.697265625,0.517822265625,-236.0,223.0,-85.0,102300.0,-8.09000015258789,0,0
5898.144994066203,0.71405029296875,-0.490570068359375,-0.00396728515625,-0.4993896484375,0.1220703125,0.244140625,-0.244140625,0.49560546875,-0.6986083984375,0.5179443359375,-236.0,223.0,-85.0,102300.0,-8.09000015258789,0,0
5898.149996066203,0.71405029296875,-0.4906005859375,-0.00396728515625,-0.4993896484375,0.1220703125,0.244140625,-0.1220703125,0.4959716796875,-0.6981201171875,0.5177001953125,-236.0,223.0,-85.0,102300.0,-8.09000015258789,0,0
5898.154993066203,0.71405029296875,-0.4906005859375,-0.00396728515625,-0.4993896484375,0.1220703125,0.30517578125,0.06103515625,0.4962158203125,-0.69580078125,0.51953125,-236.0,223.0,-85.0,102300.0,-8.0910005569458,0,0
5898.159993066203,0.714141845703125,-0.4906005859375,-0.004058837890625,-0.499237060546875,-0.1220703125,0.0,0.18310546875,0.4949951171875,-0.697265625,0.5166015625,-236.0,224.0,-85.0,102300.0,-8.0910005569458,0,0
5898.164994066204,0.714141845703125,-0.4906005859375,-0.004058837890625,-0.499237060546875,-0.1220703125,0.18310546875,-0.1220703125,0.494384765625,-0.6973876953125,0.5177001953125,-236.0,224.0,-85.0,102300.0,-8.0910005569458,0,0
5898.169995066204,0.714141845703125,-0.4906005859375,-0.004058837890625,-0.499237060546875,0.0,-0.06103515625,-0.06103515625,0.496337890625,-0.69677734375,0.5181884765625,-236.0,224.0,-85.0,102300.0,-8.0910005569458,0,0
5898.174996066205,0.714141845703125,-0.4906005859375,-0.004058837890625,-0.499237060546875,-0.18310546875,0.244140625,-0.06103515625,0.4942626953125,-0.6988525390625,0.5169677734375,-236.0,224.0,-85.0,102300.0,-8.0910005569458,0,0
5898.179993066205,0.714141845703125,-0.4906005859375,-0.004058837890625,-0.499237060546875,-0.06103515625,0.244140625,-0.06103515625,0.4952392578125,-0.697509765625,0.517578125,-236.0,224.0,-85.0,102300.0,-8.0910005569458,0,0
5898.184993066205,0.714141845703125,-0.4906005859375,-0.004058837890625,-0.499237060546875,0.244140625,0.1220703125,-0.1220703125,0.495849609375,-0.6962890625,0.5166015625,-236.0,224.0,-85.0,102300.0,-8.0910005569458,0,0
5898.198995066205,0.714141845703125,-0.4906005859375,-0.004058837890625,-0.499237060546875,-0.1220703125,0.42724609375,0.18310546875,0.493896484375,-0.698486328125,0.516357421875,-236.0,224.0,-85.0,102300.0,-8.0910005569458,0,0
5898.2039970662045,0.714141845703125,-0.4906005859375,-0.004058837890625,-0.499237060546875,-0.1220703125,0.42724609375,0.18310546875,0.493896484375,-0.698486328125,0.516357421875,-236.0,224.0,-85.0,102300.0,-8.0910005569458,0,0
5898.2089940662045,0.714141845703125,-0.490631103515625,-0.004058837890625,-0.499237060546875,0.06103515625,0.1220703125,-0.244140625,0.49609375,-0.697021484375,0.5172119140625,-236.0,224.0,-85.0,102300.0,-8.0910005569458,0,0
5898.213994066205,0.714141845703125,-0.490631103515625,-0.004058837890625,-0.499237060546875,0.06103515625,0.0,-0.06103515625,0.49755859375,-0.6964111328125,0.517822265625,-236.0,224.0,-85.0,102300.0,-8.0910005569458,0,0
5898.218995066205,0.714141845703125,-0.490631103515625,-0.00408935546875,-0.499237060546875,-0.1220703125,0.244140625,-0.06103515625,0.4979248046875,-0.6966552734375,0.5169677734375,-236.0,224.0,-85.0,102300.0,-8.0910005569458,0,0
5898.223997066205,0.714141845703125,-0.490631103515625,-0.00408935546875,-0.499237060546875,-0.06103515625,0.06103515625,-0.06103515625,0.49560546875,-0.6966552734375,0.5174560546875,-236.0,224.0,-85.0,102300.0,-8.0910005569458,0,0
5898.228997066205,0.714141845703125,-0.490631103515625,-0.004058837890625,-0.499237060546875,-0.1220703125,0.06103515625,0.0,0.4949951171875,-0.6973876953125,0.5203857421875,-236.0,224.0,-85.0,102300.0,-8.0910005569458,0,0
5898.233994066205,0.714141845703125,-0.490631103515625,-0.00408935546875,-0.499237060546875,-0.06103515625,0.06103515625,0.06103515625,0.49560546875,-0.693115234375,0.5179443359375,-236.0,224.0,-85.0,102300.0,-8.0910005569458,0,0
5898.238994066205,0.714141845703125,-0.490631103515625,-0.00408935546875,-0.499237060546875,-0.06103515625,0.244140625,-0.1220703125,0.496337890625,-0.6968994140625,0.51611328125,-236.0,224.0,-85.0,102300.0,-8.0910005569458,0,0
5898.243994066205,0.714141845703125,-0.490631103515625,-0.00408935546875,-0.499237060546875,0.06103515625,0.06103515625,0.18310546875,0.4969482421875,-0.697998046875,0.5155029296875,-236.0,224.0,-85.0,102300.0,-8.0910005569458,0,0
5898.248997066205,0.714111328125,-0.49066162109375,-0.00408935546875,-0.499237060546875,0.1220703125,-0.06103515625,0.06103515625,0.49658203125,-0.69775390625,0.515869140625,-236.0,224.0,-85.0,102300.0,-8.0910005569458,0,0
5898.253993066205,0.714111328125,-0.49066162109375,-0.00408935546875,-0.49920654296875,0.1220703125,-0.06103515625,0.06103515625,0.49658203125,-0.69775390625,0.515869140625,-236.0,224.0,-85.0,102300.0,-8.09000015258789,0,0
5898.258993066205,0.714111328125,-0.49066162109375,-0.00408935546875,-0.49920654296875,0.18310546875,0.06103515625,0.0,0.4959716796875,-0.697998046875,0.51611328125,-235.0,223.0,-85.0,102300.0,-8.09000015258789,0,0
5898.263022066205,0.714111328125,-0.49066162109375,-0.00408935546875,-0.49920654296875,0.18310546875,0.06103515625,0.0,0.4959716796875,-0.697998046875,0.51611328125,-235.0,223.0,-85.0,102300.0,-8.09000015258789,0,0
5898.267993066205,0.714111328125,-0.49066162109375,-0.004058837890625,-0.49920654296875,-0.244140625,0.06103515625,-0.06103515625,0.4951171875,-0.6973876953125,0.5174560546875,-235.0,223.0,-85.0,102300.0,-8.09000015258789,0,0
5898.272994066206,0.714111328125,-0.49066162109375,-0.004058837890625,-0.49920654296875,-0.18310546875,0.244140625,-0.1220703125,0.49560546875,-0.696044921875,0.518798828125,-235.0,223.0,-85.0,102300.0,-8.09000015258789,0,0
5898.277995066206,0.714111328125,-0.49066162109375,-0.004058837890625,-0.49920654296875,-0.48828125,0.18310546875,0.1220703125,0.4949951171875,-0.697998046875,0.51708984375,-235.0,223.0,-85.0,102300.0,-8.09000015258789,0,0
5898.282996066207,0.714111328125,-0.49066162109375,-0.004058837890625,-0.49920654296875,0.0,0.30517578125,-0.244140625,0.4962158203125,-0.6968994140625,0.5181884765625,-235.0,223.0,-85.0,102300.0,-8.09000015258789,0,0
5898.287993066207,0.714111328125,-0.49066162109375,-0.004058837890625,-0.49920654296875,-0.3662109375,0.1220703125,-0.06103515625,0.494873046875,-0.6968994140625,0.517822265625,-235.0,223.0,-85.0,102300.0,-8.09000015258789,0,0
5898.292993066207,0.714111328125,-0.49066162109375,-0.004058837890625,-0.49920654296875,0.06103515625,0.30517578125,-0.18310546875,0.494873046875,-0.69873046875,0.5164794921875,-235.0,223.0,-85.0,102300.0,-8.09000015258789,0,0
5898.297994066207,0.714111328125,-0.490692138671875,-0.004058837890625,-0.49920654296875,0.06103515625,0.0,0.0,0.4974365234375,-0.69775390625,0.517333984375,-235.0,223.0,-85.0,102300.0,-8.09000015258789,0,0
5898.302996066207,0.714111328125,-0.490692138671875,-0.004058837890625,-0.49920654296875,-0.18310546875,0.244140625,0.06103515625,0.4940185546875,-0.697021484375,0.5169677734375,-235.0,223.0,-85.0,102300.0,-8.09000015258789,0,0
5898.307993066207,0.714111328125,-0.490692138671875,-0.004058837890625,-0.49920654296875,0.18310546875,0.1220703125,-0.06103515625,0.496337890625,-0.6961669921875,0.51708984375,-235.0,223.0,-85.0,102300.0,-8.09000015258789,0,0
5898.322995066208,0.714111328125,-0.49072265625,-0.00408935546875,-0.49920654296875,-0.1220703125,0.1220703125,-0.06103515625,0.49609375,-0.6961669921875,0.5150146484375,-235.0,223.0,-85.0,102300.0,-8.09000015258789,0,0
5898.327024066208,0.714111328125,-0.49072265625,-0.00408935546875,-0.49920654296875,-0.1220703125,0.1220703125,-0.06103515625,0.49609375,-0.6961669921875,0.5150146484375,-235.0,223.0,-85.0,102300.0,-8.09000015258789,0,0
5898.331995066208,0.714080810546875,-0.49072265625,-0.00408935546875,-0.49920654296875,0.06103515625,0.18310546875,-0.18310546875,0.496826171875,-0.6956787109375,0.51611328125,-235.0,223.0,-85.0,102300.0,-8.09000015258789,0,0
5898.336993066208,0.714080810546875,-0.49072265625,-0.00408935546875,-0.49920654296875,0.06103515625,0.0,-0.1220703125,0.49609375,-0.6976318359375,0.515869140625,-235.0,223.0,-85.0,102300.0,-8.09000015258789,0,0
5898.3419930662085,0.714080810546875,-0.49072265625,-0.00408935546875,-0.49920654296875,-0.1220703125,-0.06103515625,0.1220703125,0.4959716796875,-0.6966552734375,0.51611328125,-235.0,223.0,-85.0,102300.0,-8.09000015258789,0,0
5898.346993066209,0.714080810546875,-0.49072265625,-0.00408935546875,-0.49920654296875,0.06103515625,0.18310546875,-0.18310546875,0.49560546875,-0.6959228515625,0.517578125,-235.0,223.0,-85.0,102300.0,-8.09000015258789,0,0
5898.351994066209,0.714080810546875,-0.49072265625,-0.00408935546875,-0.49920654296875,0.1220703125,0.06103515625,0.18310546875,0.49658203125,-0.696533203125,0.51708984375,-235.0,223.0,-85.0,102300.0,-8.092000007629395,0,0
5898.356996066209,0.714080810546875,-0.49072265625,-0.00408935546875,-0.49920654296875,-0.18310546875,-0.1220703125,-0.18310546875,0.495849609375,-0.697021484375,0.5162353515625,-236.0,222.0,-86.0,102300.0,-8.092000007629395,0,0
5898.361993066209,0.714080810546875,-0.490753173828125,-0.00408935546875,-0.49920654296875,0.30517578125,0.3662109375,-0.244140625,0.497802734375,-0.697021484375,0.51806640625,-236.0,222.0,-86.0,102300.0,-8.092000007629395,0,0
5898.366993066209,0.714080810546875,-0.490753173828125,-0.00408935546875,-0.49920654296875,0.0,0.18310546875,-0.1220703125,0.4962158203125,-0.696044921875,0.516357421875,-236.0,222.0,-86.0,102300.0,-8.092000007629395,0,0
5898.425995066211,0.71405029296875,-0.49078369140625,-0.004058837890625,-0.499176025390625,0.1220703125,0.06103515625,0.18310546875,0.495361328125,-0.6964111328125,0.5174560546875,-236.0,222.0,-86.0,102300.0,-8.092000007629395,0,0
5898.430997066211,0.71405029296875,-0.49078369140625,-0.004058837890625,-0.499176025390625,0.06103515625,0.1220703125,-0.1220703125,0.4952392578125,-0.6959228515625,0.5174560546875,-236.0,222.0,-86.0,102300.0,-8.092000007629395,0,0
5898.4359960662105,0.71405029296875,-0.49078369140625,-0.004058837890625,-0.499176025390625,-0.18310546875,0.0,-0.18310546875,0.495849609375,-0.697021484375,0.516845703125,-236.0,222.0,-86.0,102300.0,-8.092000007629395,0,0
5898.440994066211,0.71405029296875,-0.49078369140625,-0.004058837890625,-0.499176025390625,0.1220703125,0.1220703125,-0.1220703125,0.495361328125,-0.6966552734375,0.5196533203125,-236.0,222.0,-86.0,102300.0,-8.092000007629395,0,0
5898.445994066211,0.71405029296875,-0.49078369140625,-0.004058837890625,-0.499176025390625,-0.244140625,0.0,0.06103515625,0.4942626953125,-0.697021484375,0.517578125,-236.0,222.0,-86.0,102300.0,-8.092000007629395,0,0
5898.450994066211,0.71405029296875,-0.49078369140625,-0.004058837890625,-0.499176025390625,0.0,-0.06103515625,-0.1220703125,0.4964599609375,-0.6962890625,0.5181884765625,-236.0,222.0,-86.0,102300.0,-8.089000701904297,0,0
5898.455997066211,0.71405029296875,-0.49078369140625,-0.004058837890625,-0.499176025390625,-0.18310546875,0.06103515625,0.06103515625,0.495849609375,-0.6959228515625,0.5174560546875,-234.0,223.0,-85.0,102300.0,-8.089000701904297,0,0
5898.460029066211,0.71405029296875,-0.49078369140625,-0.004058837890625,-0.499176025390625,-0.18310546875,0.06103515625,0.06103515625,0.495849609375,-0.6959228515625,0.5174560546875,-234.0,223.0,-85.0,102300.0,-8.089000701904297,0,0
5898.464997066211,0.71405029296875,-0.49078369140625,-0.004058837890625,-0.499176025390625,-0.1220703125,0.18310546875,0.06103515625,0.4962158203125,-0.6961669921875,0.5191650390625,-234.0,223.0,-85.0,102300.0,-8.089000701904297,0,0
5898.469993066211,0.71405029296875,-0.490814208984375,-0.00408935546875,-0.499176025390625,-0.06103515625,0.06103515625,-0.06103515625,0.497802734375,-0.6956787109375,0.5164794921875,-234.0,223.0,-85.0,102300.0,-8.089000701904297,0,0
5898.474993066211,0.71405029296875,-0.49078369140625,-0.00408935546875,-0.499176025390625,0.06103515625,0.1220703125,-0.1220703125,0.494140625,-0.6939697265625,0.5177001953125,-234.0,223.0,-85.0,102300.0,-8.089000701904297,0,0
5898.4799940662115,0.71405029296875,-0.49078369140625,-0.004058837890625,-0.499176025390625,-0.1220703125,0.06103515625,0.0,0.4949951171875,-0.6966552734375,0.5184326171875,-234.0,223.0,-85.0,102300.0,-8.089000701904297,0,0
5898.484995066212,0.71405029296875,-0.49078369140625,-0.004058837890625,-0.499176025390625,0.0,0.06103515625,-0.06103515625,0.4932861328125,-0.6971435546875,0.5186767578125,-234.0,223.0,-85.0,102300.0,-8.089000701904297,0,0
5898.489992066212,0.71405029296875,-0.49078369140625,-0.004058837890625,-0.499176025390625,-0.06103515625,0.0,0.1220703125,0.4952392578125,-0.6982421875,0.5191650390625,-234.0,223.0,-85.0,102300.0,-8.089000701904297,0,0
5898.494993066212,0.714080810546875,-0.49078369140625,-0.004058837890625,-0.499176025390625,-0.30517578125,0.06103515625,0.0,0.494140625,-0.69580078125,0.5208740234375,-234.0,223.0,-85.0,102300.0,-8.089000701904297,0,0
5898.509996066213,0.714080810546875,-0.49078369140625,-0.004058837890625,-0.499176025390625,0.244140625,0.0,0.0,0.4932861328125,-0.6956787109375,0.517333984375,-234.0,223.0,-85.0,102300.0,-8.089000701904297,0,0
5898.514993066213,0.714080810546875,-0.490753173828125,-0.004058837890625,-0.499176025390625,0.06103515625,-0.06103515625,0.1220703125,0.49560546875,-0.6942138671875,0.5186767578125,-234.0,223.0,-85.0,102300.0,-8.089000701904297,0,0
5898.519993066213,0.714080810546875,-0.490753173828125,-0.004058837890625,-0.499176025390625,-0.30517578125,0.1220703125,-0.1220703125,0.494384765625,-0.6956787109375,0.5189208984375,-234.0,223.0,-85.0,102300.0,-8.089000701904297,0,0
5898.524994066213,0.714080810546875,-0.490753173828125,-0.004058837890625,-0.499176025390625,-0.1220703125,0.06103515625,0.18310546875,0.494873046875,-0.6983642578125,0.5185546875,-234.0,223.0,-85.0,102300.0,-8.089000701904297,0,0
5898.529022066214,0.714080810546875,-0.490753173828125,-0.004058837890625,-0.499176025390625,-0.1220703125,0.06103515625,0.18310546875,0.494873046875,-0.6983642578125,0.5185546875,-234.0,223.0,-85.0,102300.0,-8.089000701904297,0,0
5898.533994066213,0.714080810546875,-0.490753173828125,-0.004058837890625,-0.499176025390625,-0.244140625,-0.1220703125,0.1220703125,0.4951171875,-0.6962890625,0.518310546875,-234.0,223.0,-85.0,102300.0,-8.089000701904297,0,0
5898.538995066214,0.714080810546875,-0.490753173828125,-0.004058837890625,-0.499176025390625,0.0,0.06103515625,-0.1220703125,0.4954833984375,-0.696533203125,0.5179443359375,-234.0,223.0,-85.0,102300.0,-8.089000701904297,0,0
5898.543992066214,0.714080810546875,-0.490753173828125,-0.004058837890625,-0.499176025390625,0.06103515625,0.06103515625,0.1220703125,0.4937744140625,-0.6962890625,0.518798828125,-234.0,223.0,-85.0,102300.0,-8.089000701904297,0,0
5898.548993066214,0.714080810546875,-0.490753173828125,-0.004058837890625,-0.499176025390625,-0.3662109375,0.1220703125,-0.1220703125,0.4952392578125,-0.696044921875,0.5174560546875,-234.0,223.0,-85.0,102300.0,-8.089000701904297,0,0
5898.553993066214,0.714080810546875,-0.490753173828125,-0.004058837890625,-0.499176025390625,-0.244140625,-0.06103515625,0.0,0.496337890625,-0.6954345703125,0.519775390625,-235.0,224.0,-85.0,102300.0,-8.0910005569458,0,0
5898.568993066215,0.71441650390625,-0.490753173828125,-0.00439453125,-0.498687744140625,0.1220703125,0.0,0.30517578125,0.4962158203125,-0.6968994140625,0.51806640625,-235.0,224.0,-85.0,102300.0,-8.0910005569458,0,0
5898.573993066215,0.714447021484375,-0.49072265625,-0.00439453125,-0.498687744140625,0.06103515625,0.06103515625,0.0,0.4954833984375,-0.6966552734375,0.5186767578125,-235.0,224.0,-85.0,102300.0,-8.0910005569458,0,0
5898.578994066215,0.714447021484375,-0.49072265625,-0.00439453125,-0.498687744140625,0.06103515625,0.1220703125,-0.244140625,0.4959716796875,-0.695068359375,0.519287109375,-235.0,224.0,-85.0,102300.0,-8.0910005569458,0,0
5898.583995066216,0.714447021484375,-0.49072265625,-0.00439453125,-0.498687744140625,-0.06103515625,0.18310546875,0.0,0.496337890625,-0.69384765625,0.5185546875,-235.0,224.0,-85.0,102300.0,-8.0910005569458,0,0
5898.588996066216,0.714447021484375,-0.49072265625,-0.00439453125,-0.498687744140625,0.06103515625,0.0,-0.18310546875,0.496826171875,-0.69384765625,0.5198974609375,-235.0,224.0,-85.0,102300.0,-8.0910005569458,0,0
5898.593022066216,0.714447021484375,-0.49072265625,-0.00439453125,-0.498687744140625,0.06103515625,0.0,-0.18310546875,0.496826171875,-0.69384765625,0.5198974609375,-235.0,224.0,-85.0,102300.0,-8.0910005569458,0,0
5898.597992066216,0.714447021484375,-0.49072265625,-0.00439453125,-0.49871826171875,-0.30517578125,0.18310546875,0.0,0.49560546875,-0.696044921875,0.51953125,-235.0,224.0,-85.0,102300.0,-8.0910005569458,0,0
5898.602993066216,0.714447021484375,-0.49072265625,-0.00439453125,-0.49871826171875,-0.30517578125,0.18310546875,0.0,0.49560546875,-0.696044921875,0.51953125,-235.0,224.0,-85.0,102300.0,-8.0910005569458,0,0
5898.607993066216,0.714447021484375,-0.49072265625,-0.004425048828125,-0.49871826171875,0.244140625,0.244140625,0.18310546875,0.496826171875,-0.696044921875,0.51953125,-235.0,224.0,-85.0,102300.0,-8.0910005569458,0,0
5898.612994066217,0.714447021484375,-0.490692138671875,-0.004425048828125,-0.49871826171875,-0.244140625,0.06103515625,0.0,0.494873046875,-0.6964111328125,0.5198974609375,-235.0,224.0,-85.0,102300.0,-8.0910005569458,0,0
5898.617997066217,0.714447021484375,-0.490692138671875,-0.004425048828125,-0.49871826171875,-0.06103515625,0.1220703125,-0.06103515625,0.4962158203125,-0.6942138671875,0.5181884765625,-235.0,224.0,-85.0,102300.0,-8.0910005569458,0,0
5898.622994066217,0.714447021484375,-0.490692138671875,-0.004425048828125,-0.49871826171875,-0.1220703125,0.0,-0.06103515625,0.4974365234375,-0.6954345703125,0.5196533203125,-235.0,224.0,-85.0,102300.0,-8.0910005569458,0,0
5898.627994066217,0.714447021484375,-0.490692138671875,-0.004425048828125,-0.49871826171875,-0.1220703125,0.244140625,0.18310546875,0.49658203125,-0.6966552734375,0.5181884765625,-235.0,224.0,-85.0,102300.0,-8.0910005569458,0,0
5898.6329950662175,0.714447021484375,-0.490692138671875,-0.004425048828125,-0.49871826171875,0.0,0.18310546875,-0.06103515625,0.4951171875,-0.6966552734375,0.5191650390625,-235.0,224.0,-85.0,102300.0,-8.0910005569458,0,0
5898.637997066217,0.714447021484375,-0.490692138671875,-0.004425048828125,-0.49871826171875,-0.244140625,0.06103515625,0.1220703125,0.494140625,-0.6983642578125,0.5172119140625,-235.0,224.0,-85.0,102300.0,-8.0910005569458,0,0
5898.6429970662175,0.714447021484375,-0.490692138671875,-0.004425048828125,-0.49871826171875,0.1220703125,0.30517578125,-0.1220703125,0.496337890625,-0.6976318359375,0.5167236328125,-235.0,224.0,-85.0,102300.0,-8.0910005569458,0,0
5898.6479940662175,0.714447021484375,-0.490692138671875,-0.004425048828125,-0.49871826171875,-0.1220703125,0.0,0.1220703125,0.49560546875,-0.695068359375,0.51904296875,-235.0,224.0,-85.0,102300.0,-8.0910005569458,0,0
5898.652994066218,0.714447021484375,-0.490692138671875,-0.004425048828125,-0.49871826171875,-0.30517578125,0.06103515625,-0.1220703125,0.498046875,-0.6976318359375,0.5181884765625,-235.0,224.0,-85.0,102300.0,-8.089000701904297,0,0
5898.657994066218,0.714447021484375,-0.490692138671875,-0.004425048828125,-0.49871826171875,0.06103515625,0.06103515625,-0.1220703125,0.49609375,-0.6982421875,0.51953125,-236.0,223.0,-84.0,102300.0,-8.089000701904297,0,0
5898.662026066218,0.714447021484375,-0.490692138671875,-0.004425048828125,-0.49871826171875,0.06103515625,0.06103515625,-0.1220703125,0.49609375,-0.6982421875,0.51953125,-236.0,223.0,-84.0,102300.0,-8.089000701904297,0,0
5898.666995066217,0.71453857421875,-0.490692138671875,-0.004547119140625,-0.498565673828125,0.3662109375,0.1220703125,-0.06103515625,0.495849609375,-0.69775390625,0.5184326171875,-236.0,223.0,-84.0,102300.0,-8.089000701904297,0,0
5898.671997066217,0.71453857421875,-0.490692138671875,-0.0045166015625,-0.498565673828125,0.06103515625,0.3662109375,-0.244140625,0.4962158203125,-0.6968994140625,0.519287109375,-236.0,223.0,-84.0,102300.0,-8.089000701904297,0,0
5898.676994066217,0.71453857421875,-0.490692138671875,-0.0045166015625,-0.498565673828125,-0.30517578125,0.0,0.0,0.493896484375,-0.6966552734375,0.517822265625,-236.0,223.0,-84.0,102300.0,-8.089000701904297,0,0
5898.691995066218,0.714569091796875,-0.490692138671875,-0.0045166015625,-0.498565673828125,-0.30517578125,0.18310546875,-0.06103515625,0.49853515625,-0.697021484375,0.520263671875,-236.0,223.0,-84.0,102300.0,-8.089000701904297,0,0
5898.696996066218,0.71453857421875,-0.490692138671875,-0.0045166015625,-0.498565673828125,-0.06103515625,0.06103515625,0.18310546875,0.497314453125,-0.697265625,0.517822265625,-236.0,223.0,-84.0,102300.0,-8.089000701904297,0,0
5898.701993066218,0.71453857421875,-0.490692138671875,-0.0045166015625,-0.498565673828125,-0.18310546875,-0.06103515625,-0.06103515625,0.494873046875,-0.6962890625,0.5162353515625,-236.0,223.0,-84.0,102300.0,-8.089000701904297,0,0
5898.706993066218,0.71453857421875,-0.490692138671875,-0.0045166015625,-0.498565673828125,-0.06103515625,-0.06103515625,-0.06103515625,0.4957275390625,-0.695068359375,0.5166015625,-236.0,223.0,-84.0,102300.0,-8.089000701904297,0,0
5898.711994066219,0.71453857421875,-0.490692138671875,-0.0045166015625,-0.498565673828125,0.244140625,0.30517578125,-0.06103515625,0.494384765625,-0.6953125,0.519287109375,-236.0,223.0,-84.0,102300.0,-8.089000701904297,0,0
5898.716996066219,0.71453857421875,-0.490692138671875,-0.004547119140625,-0.498565673828125,0.0,0.18310546875,-0.06103515625,0.4964599609375,-0.695556640625,0.5184326171875,-236.0,223.0,-84.0,102300.0,-8.089000701904297,0,0
5898.721993066219,0.71453857421875,-0.490692138671875,-0.004547119140625,-0.498565673828125,0.18310546875,0.244140625,0.0,0.4974365234375,-0.697021484375,0.517333984375,-236.0,223.0,-84.0,102300.0,-8.089000701904297,0,0
5898.726022066218,0.71453857421875,-0.490692138671875,-0.004547119140625,-0.498565673828125,0.18310546875,0.244140625,0.0,0.4974365234375,-0.697021484375,0.517333984375,-236.0,223.0,-84.0,102300.0,-8.089000701904297,0,0
5898.730993066219,0.71453857421875,-0.490692138671875,-0.004547119140625,-0.498565673828125,0.06103515625,0.18310546875,-0.06103515625,0.4962158203125,-0.6966552734375,0.5191650390625,-236.0,223.0,-84.0,102300.0,-8.089000701904297,0,0
5898.735993066219,0.71453857421875,-0.490692138671875,-0.004547119140625,-0.498565673828125,0.0,0.18310546875,-0.244140625,0.494873046875,-0.6959228515625,0.517333984375,-236.0,223.0,-84.0,102300.0,-8.089000701904297,0,0
5898.740994066219,0.71453857421875,-0.490692138671875,-0.0045166015625,-0.498565673828125,-0.244140625,0.06103515625,-0.18310546875,0.492919921875,-0.6962890625,0.5159912109375,-236.0,223.0,-84.0,102300.0,-8.089000701904297,0,0
5898.75599306622,0.714569091796875,-0.490692138671875,-0.0045166015625,-0.49853515625,-0.06103515625,0.1220703125,0.06103515625,0.4935302734375,-0.6978759765625,0.51806640625,-237.0,222.0,-84.0,102300.0,-8.0910005569458,0,0
5898.76099306622,0.714569091796875,-0.490692138671875,-0.0045166015625,-0.49853515625,-0.18310546875,0.1220703125,0.0,0.4969482421875,-0.6956787109375,0.51904296875,-237.0,222.0,-84.0,102300.0,-8.0910005569458,0,0
5898.765994066221,0.714569091796875,-0.490692138671875,-0.0045166015625,-0.49853515625,0.30517578125,0.18310546875,0.06103515625,0.4969482421875,-0.697021484375,0.51904296875,-237.0,222.0,-84.0,102300.0,-8.0910005569458,0,0
5898.7709960662205,0.714569091796875,-0.490692138671875,-0.0045166015625,-0.49853515625,0.1220703125,0.1220703125,-0.06103515625,0.4969482421875,-0.69677734375,0.5185546875,-237.0,222.0,-84.0,102300.0,-8.0910005569458,0,0
5898.7759930662205,0.714569091796875,-0.490692138671875,-0.0045166015625,-0.49853515625,0.18310546875,0.30517578125,-0.18310546875,0.49462890625,-0.698974609375,0.5191650390625,-237.0,222.0,-84.0,102300.0,-8.0910005569458,0,0
5898.780993066221,0.714569091796875,-0.490692138671875,-0.0045166015625,-0.49853515625,-0.30517578125,0.0,-0.1220703125,0.4947509765625,-0.6981201171875,0.5177001953125,-237.0,222.0,-84.0,102300.0,-8.0910005569458,0,0
5898.785994066221,0.714569091796875,-0.490692138671875,-0.0045166015625,-0.49853515625,0.0,0.18310546875,-0.244140625,0.4947509765625,-0.69580078125,0.518798828125,-237.0,222.0,-84.0,102300.0,-8.0910005569458,0,0
5898.7909950662215,0.714569091796875,-0.490692138671875,-0.0045166015625,-0.49853515625,0.0,0.18310546875,-0.06103515625,0.4957275390625,-0.69580078125,0.5181884765625,-237.0,222.0,-84.0,102300.0,-8.0910005569458,0,0
5898.795024066221,0.714569091796875,-0.490692138671875,-0.0045166015625,-0.49853515625,0.0,0.18310546875,-0.06103515625,0.4957275390625,-0.69580078125,0.5181884765625,-237.0,222.0,-84.0,102300.0,-8.0910005569458,0,0
5898.7999950662215,0.714569091796875,-0.490692138671875,-0.0045166015625,-0.498565673828125,0.30517578125,0.18310546875,0.06103515625,0.49560546875,-0.6959228515625,0.5181884765625,-237.0,222.0,-84.0,102300.0,-8.0910005569458,0,0
5898.804993066222,0.714569091796875,-0.490692138671875,-0.0045166015625,-0.498565673828125,0.30517578125,0.18310546875,0.06103515625,0.49560546875,-0.6959228515625,0.5181884765625,-237.0,222.0,-84.0,102300.0,-8.0910005569458,0,0
5898.809993066222,0.714569091796875,-0.490692138671875,-0.0045166015625,-0.498565673828125,-0.3662109375,0.1220703125,0.1220703125,0.494384765625,-0.6951904296875,0.5194091796875,-237.0,222.0,-84.0,102300.0,-8.0910005569458,0,0
5898.814993066222,0.714569091796875,-0.490692138671875,-0.0045166015625,-0.498565673828125,-0.48828125,0.1220703125,0.0,0.4918212890625,-0.6968994140625,0.518798828125,-237.0,222.0,-84.0,102300.0,-8.0910005569458,0,0
5898.8199940662225,0.714569091796875,-0.490692138671875,-0.0045166015625,-0.498565673828125,0.0,0.06103515625,-0.18310546875,0.494384765625,-0.6964111328125,0.5196533203125,-237.0,222.0,-84.0,102300.0,-8.0910005569458,0,0
5898.824997066223,0.714569091796875,-0.490692138671875,-0.0045166015625,-0.498565673828125,0.18310546875,-0.1220703125,-0.244140625,0.4945068359375,-0.6959228515625,0.5167236328125,-237.0,222.0,-84.0,102300.0,-8.0910005569458,0,0
5898.829994066223,0.714569091796875,-0.490692138671875,-0.0045166015625,-0.498565673828125,-0.06103515625,0.06103515625,-0.06103515625,0.49755859375,-0.6961669921875,0.5177001953125,-237.0,222.0,-84.0,102300.0,-8.0910005569458,0,0
5898.834994066223,0.714569091796875,-0.490692138671875,-0.0045166015625,-0.498565673828125,0.30517578125,0.18310546875,0.0,0.495849609375,-0.6944580078125,0.5167236328125,-237.0,222.0,-84.0,102300.0,-8.0910005569458,0,0
5898.839995066223,0.714569091796875,-0.490692138671875,-0.0045166015625,-0.498565673828125,-0.1220703125,0.06103515625,0.244140625,0.4970703125,-0.6964111328125,0.5167236328125,-237.0,222.0,-84.0,102300.0,-8.0910005569458,0,0
5898.844997066223,0.714569091796875,-0.490692138671875,-0.0045166015625,-0.498565673828125,-0.18310546875,0.0,0.06103515625,0.49462890625,-0.6971435546875,0.517822265625,-237.0,222.0,-84.0,102300.0,-8.0910005569458,0,0
5898.849997066223,0.714569091796875,-0.490692138671875,-0.0045166015625,-0.498565673828125,-0.1220703125,0.30517578125,0.1220703125,0.49853515625,-0.6964111328125,0.518798828125,-237.0,222.0,-84.0,102300.0,-8.0910005569458,0,0
5898.854994066223,0.714569091796875,-0.490692138671875,-0.0045166015625,-0.498565673828125,-0.1220703125,0.30517578125,0.1220703125,0.49853515625,-0.6964111328125,0.518798828125,-238.0,222.0,-85.0,102300.0,-8.09000015258789,0,0
5898.859024066223,0.714569091796875,-0.490692138671875,-0.0045166015625,-0.498565673828125,-0.1220703125,0.30517578125,0.1220703125,0.49853515625,-0.6964111328125,0.518798828125,-238.0,222.0,-85.0,102300.0,-8.09000015258789,0,0
5898.863994066223,0.714447021484375,-0.490692138671875,-0.004425048828125,-0.49871826171875,0.06103515625,0.1220703125,0.06103515625,0.494873046875,-0.6971435546875,0.5185546875,-238.0,222.0,-85.0,102300.0,-8.09000015258789,0,0
5898.878996066223,0.714447021484375,-0.490692138671875,-0.004425048828125,-0.49871826171875,0.06103515625,0.244140625,-0.18310546875,0.494140625,-0.6968994140625,0.51806640625,-238.0,222.0,-85.0,102300.0,-8.09000015258789,0,0
5898.883994066224,0.714447021484375,-0.49066162109375,-0.004425048828125,-0.49871826171875,-0.1220703125,-0.06103515625,0.06103515625,0.49560546875,-0.6951904296875,0.5208740234375,-238.0,222.0,-85.0,102300.0,-8.09000015258789,0,0
5898.888994066224,0.714447021484375,-0.49066162109375,-0.004425048828125,-0.49871826171875,-0.1220703125,0.18310546875,-0.06103515625,0.4937744140625,-0.696044921875,0.519287109375,-238.0,222.0,-85.0,102300.0,-8.09000015258789,0,0
5898.893994066224,0.714447021484375,-0.49066162109375,-0.004425048828125,-0.49871826171875,0.0,0.0,0.06103515625,0.49658203125,-0.6954345703125,0.5196533203125,-238.0,222.0,-85.0,102300.0,-8.09000015258789,0,0
5898.898995066224,0.714447021484375,-0.49066162109375,-0.004425048828125,-0.49871826171875,-0.06103515625,0.06103515625,-0.06103515625,0.4952392578125,-0.6973876953125,0.5169677734375,-238.0,222.0,-85.0,102300.0,-8.09000015258789,0,0
5898.903992066224,0.714447021484375,-0.49066162109375,-0.004425048828125,-0.49871826171875,0.06103515625,0.1220703125,0.0,0.4957275390625,-0.696044921875,0.5220947265625,-238.0,222.0,-85.0,102300.0,-8.09000015258789,0,0
5898.908993066225,0.714447021484375,-0.49066162109375,-0.004425048828125,-0.498748779296875,-0.06103515625,0.1220703125,-0.06103515625,0.4962158203125,-0.6947021484375,0.51953125,-238.0,222.0,-85.0,102300.0,-8.09000015258789,0,0
5898.913993066225,0.714447021484375,-0.49066162109375,-0.004425048828125,-0.498748779296875,0.18310546875,0.1220703125,-0.1220703125,0.497802734375,-0.697021484375,0.5174560546875,-238.0,222.0,-85.0,102300.0,-8.09000015258789,0,0
5898.918994066225,0.714447021484375,-0.49066162109375,-0.004425048828125,-0.498748779296875,-0.06103515625,0.1220703125,0.06103515625,0.4970703125,-0.6971435546875,0.5191650390625,-238.0,222.0,-85.0,102300.0,-8.09000015258789,0,0
5898.923026066225,0.714447021484375,-0.49066162109375,-0.004425048828125,-0.498748779296875,-0.06103515625,0.1220703125,0.06103515625,0.4970703125,-0.6971435546875,0.5191650390625,-238.0,222.0,-85.0,102300.0,-8.09000015258789,0,0
5898.927994066225,0.714447021484375,-0.49066162109375,-0.004425048828125,-0.498748779296875,-0.06103515625,0.3662109375,0.18310546875,0.494873046875,-0.6954345703125,0.5196533203125,-238.0,222.0,-85.0,102300.0,-8.09000015258789,0,0
5898.942993066225,0.714447021484375,-0.490631103515625,-0.004425048828125,-0.498748779296875,-0.1220703125,0.30517578125,0.06103515625,0.49267578125,-0.69580078125,0.517578125,-238.0,222.0,-85.0,102300.0,-8.09000015258789,0,0
5898.947994066226,0.714447021484375,-0.490631103515625,-0.004425048828125,-0.498748779296875,-0.244140625,0.0,0.06103515625,0.4959716796875,-0.6966552734375,0.518310546875,-238.0,222.0,-85.0,102300.0,-8.09000015258789,0,0
5898.952995066226,0.7144775390625,-0.490631103515625,-0.004425048828125,-0.498748779296875,-0.06103515625,0.244140625,-0.30517578125,0.495849609375,-0.6966552734375,0.52001953125,-238.0,222.0,-85.0,102300.0,-8.092000007629395,0,0
5898.957992066226,0.7144775390625,-0.490631103515625,-0.004425048828125,-0.498748779296875,0.06103515625,-0.1220703125,0.1220703125,0.4962158203125,-0.6973876953125,0.517822265625,-237.0,223.0,-85.0,102300.0,-8.092000007629395,0,0
5898.962993066227,0.71435546875,-0.490631103515625,-0.00433349609375,-0.4989013671875,-0.54931640625,0.30517578125,-0.18310546875,0.49609375,-0.6968994140625,0.5203857421875,-237.0,223.0,-85.0,102300.0,-8.092000007629395,0,0
5898.967993066227,0.71435546875,-0.490631103515625,-0.00433349609375,-0.4989013671875,0.06103515625,-0.06103515625,-0.06103515625,0.495361328125,-0.696044921875,0.5184326171875,-237.0,223.0,-85.0,102300.0,-8.092000007629395,0,0
5898.972994066227,0.71435546875,-0.490631103515625,-0.00433349609375,-0.4989013671875,-0.1220703125,0.1220703125,0.06103515625,0.49462890625,-0.6971435546875,0.51953125,-237.0,223.0,-85.0,102300.0,-8.092000007629395,0,0
5898.977996066227,0.71435546875,-0.490631103515625,-0.00433349609375,-0.4989013671875,-0.06103515625,0.1220703125,0.06103515625,0.4967041015625,-0.697998046875,0.5205078125,-237.0,223.0,-85.0,102300.0,-8.092000007629395,0,0
5898.982993066227,0.71435546875,-0.490631103515625,-0.00433349609375,-0.4989013671875,0.0,0.0,-0.18310546875,0.4989013671875,-0.697021484375,0.5185546875,-237.0,223.0,-85.0,102300.0,-8.092000007629395,0,0
5898.987993066227,0.71435546875,-0.490631103515625,-0.00433349609375,-0.4989013671875,-0.18310546875,0.1220703125,-0.1220703125,0.4949951171875,-0.696533203125,0.5201416015625,-237.0,223.0,-85.0,102300.0,-8.092000007629395,0,0
5898.992022066227,0.71435546875,-0.490631103515625,-0.00433349609375,-0.4989013671875,-0.18310546875,0.1220703125,-0.1220703125,0.4949951171875,-0.696533203125,0.5201416015625,-237.0,223.0,-85.0,102300.0,-8.092000007629395,0,0
5898.996993066227,0.71435546875,-0.490631103515625,-0.00433349609375,-0.4989013671875,0.06103515625,0.244140625,0.1220703125,0.4990234375,-0.6968994140625,0.5186767578125,-237.0,223.0,-85.0,102300.0,-8.092000007629395,0,0
5899.001994066228,0.71435546875,-0.490631103515625,-0.00433349609375,-0.498931884765625,0.06103515625,0.0,0.18310546875,0.49853515625,-0.6966552734375,0.519775390625,-237.0,223.0,-85.0,102300.0,-8.092000007629395,0,0
5899.006995066228,0.71435546875,-0.4906005859375,-0.00433349609375,-0.498931884765625,0.1220703125,0.18310546875,0.06103515625,0.4962158203125,-0.6943359375,0.52099609375,-237.0,223.0,-85.0,102300.0,-8.092000007629395,0,0
5899.011992066228,0.71435546875,-0.4906005859375,-0.00433349609375,-0.498931884765625,-0.1220703125,0.0,-0.1220703125,0.4951171875,-0.6986083984375,0.518310546875,-237.0,223.0,-85.0,102300.0,-8.092000007629395,0,0
5899.016993066229,0.71435546875,-0.4906005859375,-0.00433349609375,-0.498931884765625,0.18310546875,0.06103515625,0.244140625,0.49365234375,-0.6982421875,0.5196533203125,-237.0,223.0,-85.0,102300.0,-8.092000007629395,0,0
5899.021993066229,0.71435546875,-0.4906005859375,-0.00433349609375,-0.498931884765625,-0.06103515625,0.0,-0.18310546875,0.49462890625,-0.6944580078125,0.5198974609375,-237.0,223.0,-85.0,102300.0,-8.092000007629395,0,0
5899.026994066229,0.71435546875,-0.4906005859375,-0.00433349609375,-0.498931884765625,0.1220703125,-0.1220703125,0.06103515625,0.4945068359375,-0.697265625,0.51953125,-237.0,223.0,-85.0,102300.0,-8.092000007629395,0,0
5899.031996066229,0.71435546875,-0.4906005859375,-0.00433349609375,-0.498931884765625,-0.06103515625,0.1220703125,0.18310546875,0.49609375,-0.695068359375,0.518310546875,-237.0,223.0,-85.0,102300.0,-8.092000007629395,0,0
5899.036994066229,0.71435546875,-0.4906005859375,-0.00433349609375,-0.498931884765625,0.18310546875,0.06103515625,0.06103515625,0.49658203125,-0.69677734375,0.519775390625,-237.0,223.0,-85.0,102300.0,-8.092000007629395,0,0
5899.04199406623,0.71435546875,-0.4906005859375,-0.00433349609375,-0.498931884765625,-0.244140625,0.1220703125,0.0,0.4970703125,-0.697265625,0.519775390625,-237.0,223.0,-85.0,102300.0,-8.092000007629395,0,0
5899.04699506623,0.71435546875,-0.4906005859375,-0.00433349609375,-0.498931884765625,-0.06103515625,0.18310546875,-0.06103515625,0.4949951171875,-0.6968994140625,0.521240234375,-237.0,223.0,-85.0,102300.0,-8.092000007629395,0,0
5899.05199706623,0.714385986328125,-0.490570068359375,-0.00433349609375,-0.498931884765625,0.06103515625,-0.06103515625,-0.42724609375,0.4970703125,-0.6983642578125,0.519775390625,-237.0,223.0,-85.0,102300.0,-8.092000007629395,0,0
5899.065996066231,0.714263916015625,-0.490570068359375,-0.00421142578125,-0.49908447265625,0.18310546875,0.0,-0.244140625,0.494140625,-0.6953125,0.521484375,-238.0,223.0,-86.0,102300.0,-8.0910005569458,0,0
5899.070994066231,0.714263916015625,-0.490570068359375,-0.00421142578125,-0.49908447265625,-0.18310546875,-0.06103515625,0.06103515625,0.49658203125,-0.6968994140625,0.5186767578125,-238.0,223.0,-86.0,102300.0,-8.0910005569458,0,0
5899.075994066231,0.714263916015625,-0.490570068359375,-0.00421142578125,-0.49908447265625,0.0,0.0,-0.18310546875,0.495361328125,-0.6961669921875,0.5194091796875,-238.0,223.0,-86.0,102300.0,-8.0910005569458,0,0
5899.080994066231,0.714263916015625,-0.490570068359375,-0.00421142578125,-0.49908447265625,0.1220703125,0.3662109375,0.0,0.4940185546875,-0.6978759765625,0.518798828125,-238.0,223.0,-86.0,102300.0,-8.0910005569458,0,0
5899.085996066231,0.714263916015625,-0.49053955078125,-0.00421142578125,-0.49908447265625,0.06103515625,0.30517578125,0.18310546875,0.4952392578125,-0.6964111328125,0.5194091796875,-238.0,223.0,-86.0,102300.0,-8.0910005569458,0,0
5899.090994066231,0.71429443359375,-0.49053955078125,-0.00421142578125,-0.49908447265625,-0.1220703125,0.06103515625,0.06103515625,0.49365234375,-0.696533203125,0.5203857421875,-238.0,223.0,-86.0,102300.0,-8.0910005569458,0,0
5899.0959940662315,0.71429443359375,-0.49053955078125,-0.00421142578125,-0.49908447265625,0.244140625,0.06103515625,0.1220703125,0.49462890625,-0.6971435546875,0.5220947265625,-238.0,223.0,-86.0,102300.0,-8.0910005569458,0,0
5899.100995066232,0.71429443359375,-0.49053955078125,-0.00421142578125,-0.49908447265625,0.06103515625,0.3662109375,-0.1220703125,0.49462890625,-0.69775390625,0.5196533203125,-238.0,223.0,-86.0,102300.0,-8.0910005569458,0,0
5899.105995066232,0.71429443359375,-0.49053955078125,-0.00421142578125,-0.49908447265625,-0.18310546875,0.0,0.0,0.4959716796875,-0.697265625,0.5181884765625,-238.0,223.0,-86.0,102300.0,-8.0910005569458,0,0
5899.1109960662325,0.71429443359375,-0.49053955078125,-0.00421142578125,-0.49908447265625,0.1220703125,0.18310546875,-0.244140625,0.4949951171875,-0.6944580078125,0.519775390625,-238.0,223.0,-86.0,102300.0,-8.0910005569458,0,0
5899.1159930662325,0.71429443359375,-0.49053955078125,-0.00421142578125,-0.49908447265625,0.0,0.244140625,-0.244140625,0.4942626953125,-0.6966552734375,0.519775390625,-238.0,223.0,-86.0,102300.0,-8.0910005569458,0,0
5899.129993066233,0.71429443359375,-0.490509033203125,-0.00421142578125,-0.499114990234375,-0.06103515625,0.244140625,-0.06103515625,0.4949951171875,-0.696044921875,0.5194091796875,-238.0,223.0,-86.0,102300.0,-8.0910005569458,0,0
5899.134994066233,0.71429443359375,-0.490509033203125,-0.00421142578125,-0.499114990234375,0.06103515625,0.30517578125,0.18310546875,0.4947509765625,-0.6953125,0.5201416015625,-238.0,223.0,-86.0,102300.0,-8.0910005569458,0,0
5899.139996066233,0.71429443359375,-0.490509033203125,-0.00421142578125,-0.499114990234375,0.0,0.1220703125,0.06103515625,0.494384765625,-0.6983642578125,0.51953125,-238.0,223.0,-86.0,102300.0,-8.0910005569458,0,0
5899.144993066233,0.71429443359375,-0.490509033203125,-0.004180908203125,-0.499114990234375,-0.1220703125,0.1220703125,0.0,0.4954833984375,-0.6976318359375,0.51806640625,-238.0,223.0,-86.0,102300.0,-8.0910005569458,0,0
5899.149993066233,0.714324951171875,-0.490509033203125,-0.004180908203125,-0.499114990234375,-0.244140625,0.244140625,0.18310546875,0.4962158203125,-0.698974609375,0.5224609375,-238.0,223.0,-86.0,102300.0,-8.0910005569458,0,0
5899.1549940662335,0.714324951171875,-0.490509033203125,-0.004180908203125,-0.499114990234375,-0.244140625,0.244140625,0.18310546875,0.4962158203125,-0.698974609375,0.5224609375,-239.0,222.0,-85.0,102300.0,-8.092000007629395,0,0
5899.159995066234,0.714324951171875,-0.490478515625,-0.004180908203125,-0.499114990234375,0.18310546875,0.42724609375,0.18310546875,0.4947509765625,-0.6978759765625,0.5203857421875,-239.0,222.0,-85.0,102300.0,-8.092000007629395,0,0
5899.164996066234,0.714202880859375,-0.490478515625,-0.00408935546875,-0.499267578125,0.1220703125,0.30517578125,0.06103515625,0.4971923828125,-0.696533203125,0.52001953125,-239.0,222.0,-85.0,102300.0,-8.092000007629395,0,0
5899.169993066234,0.714202880859375,-0.490478515625,-0.00408935546875,-0.499267578125,-0.48828125,0.1220703125,-0.1220703125,0.494140625,-0.6961669921875,0.5185546875,-239.0,222.0,-85.0,102300.0,-8.092000007629395,0,0
5899.1749930662345,0.714202880859375,-0.490478515625,-0.004058837890625,-0.499267578125,0.1220703125,0.18310546875,-0.1220703125,0.495361328125,-0.6988525390625,0.52099609375,-239.0,222.0,-85.0,102300.0,-8.092000007629395,0,0
5899.179994066235,0.714202880859375,-0.490478515625,-0.004058837890625,-0.499267578125,-0.48828125,0.0,-0.18310546875,0.49462890625,-0.6982421875,0.519775390625,-239.0,222.0,-85.0,102300.0,-8.092000007629395,0,0
5899.184996066235,0.714202880859375,-0.490478515625,-0.004058837890625,-0.499267578125,-0.244140625,0.1220703125,-0.244140625,0.4954833984375,-0.6964111328125,0.521240234375,-239.0,222.0,-85.0,102300.0,-8.092000007629395,0,0
5899.189028066235,0.714202880859375,-0.490478515625,-0.004058837890625,-0.499267578125,-0.244140625,0.1220703125,-0.244140625,0.4954833984375,-0.6964111328125,0.521240234375,-239.0,222.0,-85.0,102300.0,-8.092000007629395,0,0
5899.193996066235,0.7142333984375,-0.490478515625,-0.004058837890625,-0.499267578125,-0.06103515625,0.1220703125,0.06103515625,0.4951171875,-0.6968994140625,0.5201416015625,-239.0,222.0,-85.0,102300.0,-8.092000007629395,0,0
5899.198993066235,0.7142333984375,-0.490478515625,-0.004058837890625,-0.499267578125,-0.06103515625,0.30517578125,-0.1220703125,0.495849609375,-0.697265625,0.52001953125,-239.0,222.0,-85.0,102300.0,-8.092000007629395,0,0
5899.203993066235,0.7142333984375,-0.490478515625,-0.004058837890625,-0.499267578125,-0.06103515625,0.244140625,-0.18310546875,0.493896484375,-0.6971435546875,0.5189208984375,-239.0,222.0,-85.0,102300.0,-8.092000007629395,0,0
5899.208994066235,0.7142333984375,-0.490478515625,-0.004058837890625,-0.499267578125,0.06103515625,0.06103515625,-0.30517578125,0.4945068359375,-0.697509765625,0.519775390625,-239.0,222.0,-85.0,102300.0,-8.092000007629395,0,0
5899.213995066236,0.7142333984375,-0.490447998046875,-0.004058837890625,-0.499267578125,0.1220703125,0.1220703125,-0.30517578125,0.4959716796875,-0.69677734375,0.5208740234375,-239.0,222.0,-85.0,102300.0,-8.092000007629395,0,0
5899.218993066236,0.7142333984375,-0.490447998046875,-0.004058837890625,-0.499267578125,0.06103515625,0.30517578125,0.0,0.495361328125,-0.6962890625,0.52001953125,-239.0,222.0,-85.0,102300.0,-8.092000007629395,0,0
5899.223993066236,0.7142333984375,-0.490447998046875,-0.004058837890625,-0.499267578125,0.0,0.1220703125,-0.244140625,0.4959716796875,-0.696044921875,0.520263671875,-239.0,222.0,-85.0,102300.0,-8.092000007629395,0,0
5899.228993066236,0.7142333984375,-0.490447998046875,-0.004058837890625,-0.499267578125,-0.42724609375,0.18310546875,0.06103515625,0.4951171875,-0.696044921875,0.519775390625,-239.0,222.0,-85.0,102300.0,-8.092000007629395,0,0
5899.233994066237,0.7142333984375,-0.490447998046875,-0.004058837890625,-0.499267578125,0.0,0.0,0.0,0.496337890625,-0.696533203125,0.5206298828125,-239.0,222.0,-85.0,102300.0,-8.092000007629395,0,0
5899.238996066237,0.7142333984375,-0.490447998046875,-0.004058837890625,-0.499267578125,-0.06103515625,0.06103515625,0.0,0.4971923828125,-0.69677734375,0.5196533203125,-239.0,222.0,-85.0,102300.0,-8.092000007629395,0,0
5899.253995066237,0.7142333984375,-0.49041748046875,-0.004058837890625,-0.499267578125,0.244140625,0.06103515625,-0.06103515625,0.496337890625,-0.6956787109375,0.519775390625,-239.0,223.0,-85.0,102300.0,-8.092000007629395,0,0
5899.258025066237,0.7142333984375,-0.49041748046875,-0.004058837890625,-0.499267578125,0.244140625,0.06103515625,-0.06103515625,0.496337890625,-0.6956787109375,0.519775390625,-239.0,223.0,-85.0,102300.0,-8.092000007629395,0,0
5899.262996066237,0.714141845703125,-0.49041748046875,-0.003936767578125,-0.49945068359375,0.30517578125,0.0,0.06103515625,0.49609375,-0.698486328125,0.5206298828125,-239.0,223.0,-85.0,102300.0,-8.092000007629395,0,0
5899.2679970662375,0.714141845703125,-0.49041748046875,-0.003936767578125,-0.49945068359375,-0.244140625,0.1220703125,-0.06103515625,0.495361328125,-0.695068359375,0.51953125,-239.0,223.0,-85.0,102300.0,-8.092000007629395,0,0
5899.272996066237,0.714141845703125,-0.49041748046875,-0.003936767578125,-0.49945068359375,0.06103515625,0.30517578125,-0.1220703125,0.4954833984375,-0.6947021484375,0.52001953125,-239.0,223.0,-85.0,102300.0,-8.092000007629395,0,0
5899.277994066238,0.714141845703125,-0.49041748046875,-0.003936767578125,-0.49945068359375,0.06103515625,0.1220703125,0.18310546875,0.496337890625,-0.697265625,0.5185546875,-239.0,223.0,-85.0,102300.0,-8.092000007629395,0,0
5899.282994066238,0.714141845703125,-0.49041748046875,-0.003936767578125,-0.49945068359375,-0.06103515625,-0.06103515625,0.0,0.4952392578125,-0.6947021484375,0.519287109375,-239.0,223.0,-85.0,102300.0,-8.092000007629395,0,0
5899.287994066238,0.714141845703125,-0.490386962890625,-0.003936767578125,-0.49945068359375,-0.06103515625,0.0,-0.06103515625,0.4947509765625,-0.6968994140625,0.5203857421875,-239.0,223.0,-85.0,102300.0,-8.092000007629395,0,0
5899.292997066238,0.714141845703125,-0.490386962890625,-0.003936767578125,-0.49945068359375,0.06103515625,-0.06103515625,0.0,0.49755859375,-0.697021484375,0.519287109375,-239.0,223.0,-85.0,102300.0,-8.092000007629395,0,0
5899.297994066238,0.714141845703125,-0.490386962890625,-0.003936767578125,-0.49945068359375,-0.06103515625,0.06103515625,-0.06103515625,0.4962158203125,-0.6956787109375,0.5211181640625,-239.0,223.0,-85.0,102300.0,-8.092000007629395,0,0
5899.3129970662385,0.714141845703125,-0.490386962890625,-0.00396728515625,-0.49945068359375,0.0,0.1220703125,0.0,0.495849609375,-0.696533203125,0.519775390625,-239.0,223.0,-85.0,102300.0,-8.0910005569458,0,0
5899.317996066238,0.714141845703125,-0.490386962890625,-0.00396728515625,-0.49945068359375,-0.06103515625,0.0,0.1220703125,0.495849609375,-0.6962890625,0.5213623046875,-239.0,223.0,-85.0,102300.0,-8.0910005569458,0,0
5899.322022066238,0.714141845703125,-0.490386962890625,-0.00396728515625,-0.49945068359375,-0.06103515625,0.0,0.1220703125,0.495849609375,-0.6962890625,0.5213623046875,-239.0,223.0,-85.0,102300.0,-8.0910005569458,0,0
5899.326996066238,0.714141845703125,-0.490386962890625,-0.00396728515625,-0.49945068359375,-0.06103515625,0.06103515625,-0.30517578125,0.4981689453125,-0.69580078125,0.5201416015625,-239.0,223.0,-85.0,102300.0,-8.0910005569458,0,0
5899.331993066238,0.714141845703125,-0.4903564453125,-0.00396728515625,-0.49945068359375,-0.1220703125,-0.06103515625,-0.1220703125,0.4945068359375,-0.6966552734375,0.519775390625,-239.0,223.0,-85.0,102300.0,-8.0910005569458,0,0
5899.336993066238,0.714141845703125,-0.4903564453125,-0.00396728515625,-0.49945068359375,-0.54931640625,-0.06103515625,-0.1220703125,0.4951171875,-0.6949462890625,0.5201416015625,-239.0,223.0,-85.0,102300.0,-8.0910005569458,0,0
5899.341994066239,0.714141845703125,-0.4903564453125,-0.00396728515625,-0.49945068359375,0.0,0.1220703125,0.0,0.493896484375,-0.6976318359375,0.52001953125,-239.0,223.0,-85.0,102300.0,-8.0910005569458,0,0
5899.346996066239,0.71417236328125,-0.4903564453125,-0.00396728515625,-0.49945068359375,0.0,0.1220703125,0.06103515625,0.496826171875,-0.69580078125,0.5218505859375,-239.0,223.0,-85.0,102300.0,-8.0910005569458,0,0
5899.351993066239,0.71417236328125,-0.4903564453125,-0.00396728515625,-0.49945068359375,-0.30517578125,0.1220703125,-0.06103515625,0.497314453125,-0.6971435546875,0.5206298828125,-239.0,223.0,-85.0,102300.0,-8.0910005569458,0,0
5899.356993066239,0.71417236328125,-0.4903564453125,-0.00396728515625,-0.499481201171875,-0.30517578125,0.1220703125,-0.06103515625,0.497314453125,-0.6971435546875,0.5206298828125,-239.0,224.0,-85.0,102300.0,-8.0910005569458,0,0
5899.361994066239,0.71417236328125,-0.4903564453125,-0.00396728515625,-0.49945068359375,-0.1220703125,0.244140625,0.244140625,0.4962158203125,-0.698974609375,0.520263671875,-239.0,224.0,-85.0,102300.0,-8.0910005569458,0,0
5899.36699506624,0.71417236328125,-0.4903564453125,-0.00396728515625,-0.49945068359375,0.06103515625,0.18310546875,-0.1220703125,0.49609375,-0.6995849609375,0.5225830078125,-239.0,224.0,-85.0,102300.0,-8.0910005569458,0,0
5899.37199206624,0.71417236328125,-0.490325927734375,-0.003936767578125,-0.49945068359375,-0.06103515625,0.0,0.0,0.4952392578125,-0.6973876953125,0.5206298828125,-239.0,224.0,-85.0,102300.0,-8.0910005569458,0,0
5899.37699306624,0.71417236328125,-0.490325927734375,-0.003936767578125,-0.49945068359375,-0.30517578125,0.18310546875,0.18310546875,0.499267578125,-0.6995849609375,0.5211181640625,-239.0,224.0,-85.0,102300.0,-8.0910005569458,0,0
5899.38199306624,0.71417236328125,-0.490325927734375,-0.003936767578125,-0.499481201171875,-0.06103515625,0.244140625,-0.1220703125,0.495849609375,-0.697021484375,0.520751953125,-239.0,224.0,-85.0,102300.0,-8.0910005569458,0,0
5899.386994066241,0.71417236328125,-0.490325927734375,-0.00396728515625,-0.499481201171875,-0.30517578125,0.06103515625,0.0,0.497802734375,-0.69580078125,0.51904296875,-239.0,224.0,-85.0,102300.0,-8.0910005569458,0,0
5899.391025066241,0.71417236328125,-0.490325927734375,-0.00396728515625,-0.499481201171875,-0.30517578125,0.06103515625,0.0,0.497802734375,-0.69580078125,0.51904296875,-239.0,224.0,-85.0,102300.0,-8.0910005569458,0,0
5899.395994066241,0.71417236328125,-0.490325927734375,-0.00396728515625,-0.499481201171875,0.244140625,0.0,-0.06103515625,0.4959716796875,-0.6968994140625,0.5184326171875,-239.0,224.0,-85.0,102300.0,-8.0910005569458,0,0
5899.400996066241,0.71417236328125,-0.490325927734375,-0.00396728515625,-0.499481201171875,0.18310546875,0.1220703125,0.0,0.4951171875,-0.69775390625,0.5203857421875,-239.0,224.0,-85.0,102300.0,-8.0910005569458,0,0
5899.405993066241,0.71417236328125,-0.490325927734375,-0.00396728515625,-0.499481201171875,0.18310546875,0.1220703125,0.0,0.4951171875,-0.69775390625,0.5203857421875,-239.0,224.0,-85.0,102300.0,-8.0910005569458,0,0
5899.410993066241,0.71417236328125,-0.490325927734375,-0.00396728515625,-0.499481201171875,-0.06103515625,0.06103515625,-0.06103515625,0.497314453125,-0.6954345703125,0.521240234375,-239.0,224.0,-85.0,102300.0,-8.0910005569458,0,0
5899.415994066241,0.71417236328125,-0.49029541015625,-0.00396728515625,-0.499481201171875,0.18310546875,0.42724609375,-0.244140625,0.4927978515625,-0.696533203125,0.5225830078125,-239.0,224.0,-85.0,102300.0,-8.0910005569458,0,0
5899.420995066242,0.71417236328125,-0.49029541015625,-0.00396728515625,-0.499481201171875,-0.18310546875,0.30517578125,-0.1220703125,0.494873046875,-0.6968994140625,0.5213623046875,-239.0,224.0,-85.0,102300.0,-8.0910005569458,0,0
5899.425992066242,0.71417236328125,-0.49029541015625,-0.00396728515625,-0.499481201171875,-0.244140625,0.0,0.1220703125,0.49609375,-0.6966552734375,0.521240234375,-239.0,224.0,-85.0,102300.0,-8.0910005569458,0,0
5899.440994066243,0.714202880859375,-0.490264892578125,-0.00396728515625,-0.499481201171875,-0.244140625,-0.1220703125,-0.06103515625,0.494140625,-0.697021484375,0.5220947265625,-239.0,224.0,-85.0,102300.0,-8.0910005569458,0,0
5899.4459960662425,0.714202880859375,-0.490264892578125,-0.00396728515625,-0.499481201171875,0.18310546875,0.18310546875,0.06103515625,0.4962158203125,-0.698486328125,0.5213623046875,-239.0,224.0,-85.0,102300.0,-8.0910005569458,0,0
5899.4509930662425,0.714202880859375,-0.490264892578125,-0.00396728515625,-0.499481201171875,-0.244140625,0.06103515625,0.18310546875,0.4945068359375,-0.6978759765625,0.52001953125,-239.0,224.0,-85.0,102300.0,-8.0910005569458,0,0
5899.455022066242,0.714202880859375,-0.490264892578125,-0.00396728515625,-0.499481201171875,-0.244140625,0.06103515625,0.18310546875,0.4945068359375,-0.6978759765625,0.52001953125,-239.0,224.0,-85.0,102300.0,-8.0910005569458,0,0
5899.4599930662425,0.714080810546875,-0.490264892578125,-0.00384521484375,-0.4996337890625,-0.30517578125,0.0,-0.244140625,0.4952392578125,-0.697509765625,0.5203857421875,-239.0,223.0,-85.0,102300.0,-8.0910005569458,0,0
5899.464994066243,0.714080810546875,-0.490264892578125,-0.00384521484375,-0.499664306640625,0.0,-0.18310546875,0.0,0.4957275390625,-0.696044921875,0.5203857421875,-239.0,223.0,-85.0,102300.0,-8.0910005569458,0,0
5899.469995066243,0.714080810546875,-0.490264892578125,-0.00384521484375,-0.499664306640625,0.0,0.18310546875,-0.06103515625,0.495849609375,-0.6973876953125,0.521240234375,-239.0,223.0,-85.0,102300.0,-8.0910005569458,0,0
5899.474997066243,0.714080810546875,-0.490264892578125,-0.00384521484375,-0.499664306640625,-0.42724609375,-0.18310546875,-0.06103515625,0.4964599609375,-0.69677734375,0.5216064453125,-239.0,223.0,-85.0,102300.0,-8.0910005569458,0,0
5899.479997066243,0.714111328125,-0.490264892578125,-0.00384521484375,-0.499664306640625,0.06103515625,-0.06103515625,0.244140625,0.493896484375,-0.6973876953125,0.5208740234375,-239.0,223.0,-85.0,102300.0,-8.0910005569458,0,0
5899.484994066243,0.714080810546875,-0.490264892578125,-0.00384521484375,-0.499664306640625,0.1220703125,0.18310546875,0.0,0.4954833984375,-0.697021484375,0.5203857421875,-239.0,223.0,-85.0,102300.0,-8.0910005569458,0,0
5899.499997066244,0.714111328125,-0.490234375,-0.00384521484375,-0.499664306640625,-0.30517578125,0.0,0.1220703125,0.4952392578125,-0.695068359375,0.52197265625,-239.0,223.0,-85.0,102300.0,-8.0910005569458,0,0
5899.504994066244,0.714111328125,-0.490234375,-0.00384521484375,-0.499664306640625,-0.1220703125,0.0,-0.1220703125,0.497314453125,-0.6968994140625,0.5205078125,-239.0,223.0,-85.0,102300.0,-8.09000015258789,0,0
5899.509994066244,0.714111328125,-0.490234375,-0.00384521484375,-0.499664306640625,0.30517578125,0.18310546875,-0.1220703125,0.4951171875,-0.6954345703125,0.5206298828125,-239.0,223.0,-85.0,102300.0,-8.09000015258789,0,0
5899.514995066244,0.714111328125,-0.490234375,-0.00384521484375,-0.499664306640625,-0.244140625,-0.1220703125,0.0,0.493896484375,-0.6953125,0.52099609375,-239.0,223.0,-85.0,102300.0,-8.09000015258789,0,0
5899.519997066244,0.714111328125,-0.490234375,-0.00384521484375,-0.499664306640625,0.244140625,0.1220703125,-0.18310546875,0.493408203125,-0.697265625,0.52099609375,-239.0,223.0,-85.0,102300.0,-8.09000015258789,0,0
5899.524026066244,0.714111328125,-0.490234375,-0.00384521484375,-0.499664306640625,0.244140625,0.1220703125,-0.18310546875,0.493408203125,-0.697265625,0.52099609375,-239.0,223.0,-85.0,102300.0,-8.09000015258789,0,0
5899.528997066244,0.714111328125,-0.490234375,-0.00384521484375,-0.499664306640625,-0.1220703125,0.30517578125,-0.244140625,0.49658203125,-0.69677734375,0.52001953125,-239.0,223.0,-85.0,102300.0,-8.09000015258789,0,0
5899.5339920662445,0.714111328125,-0.490203857421875,-0.00384521484375,-0.499664306640625,-0.06103515625,0.1220703125,0.18310546875,0.495361328125,-0.696044921875,0.5218505859375,-239.0,223.0,-85.0,102300.0,-8.09000015258789,0,0
5899.538993066245,0.714111328125,-0.490203857421875,-0.00384521484375,-0.499664306640625,0.06103515625,0.244140625,0.0,0.4940185546875,-0.693359375,0.5218505859375,-239.0,223.0,-85.0,102300.0,-8.09000015258789,0,0
5899.543993066245,0.714111328125,-0.490203857421875,-0.00384521484375,-0.499664306640625,-0.06103515625,0.244140625,-0.1220703125,0.4970703125,-0.6966552734375,0.5216064453125,-239.0,223.0,-85.0,102300.0,-8.09000015258789,0,0
5899.5489940662455,0.714111328125,-0.490203857421875,-0.00384521484375,-0.499664306640625,0.18310546875,0.1220703125,-0.06103515625,0.495361328125,-0.697509765625,0.522216796875,-239.0,223.0,-85.0,102300.0,-8.09000015258789,0,0
5899.553996066245,0.714111328125,-0.490203857421875,-0.00384521484375,-0.499664306640625,-0.18310546875,0.244140625,0.06103515625,0.495849609375,-0.697021484375,0.521728515625,-239.0,223.0,-85.0,102300.0,-8.09000015258789,0,0
5899.558993066245,0.714111328125,-0.490203857421875,-0.00384521484375,-0.499664306640625,-0.30517578125,0.18310546875,-0.06103515625,0.497314453125,-0.69677734375,0.5191650390625,-239.0,223.0,-84.0,102300.0,-8.09000015258789,0,0
5899.5639930662455,0.714111328125,-0.490203857421875,-0.00384521484375,-0.499664306640625,-0.30517578125,0.06103515625,-0.18310546875,0.4970703125,-0.6961669921875,0.5213623046875,-239.0,223.0,-84.0,102300.0,-8.09000015258789,0,0
5899.568994066246,0.714111328125,-0.49017333984375,-0.00384521484375,-0.49969482421875,0.0,0.18310546875,-0.244140625,0.4949951171875,-0.6953125,0.52099609375,-239.0,223.0,-84.0,102300.0,-8.09000015258789,0,0
5899.573995066246,0.714111328125,-0.49017333984375,-0.00384521484375,-0.49969482421875,-0.244140625,-0.06103515625,0.18310546875,0.4964599609375,-0.6959228515625,0.5203857421875,-239.0,223.0,-84.0,102300.0,-8.09000015258789,0,0
5899.578996066247,0.714111328125,-0.49017333984375,-0.00384521484375,-0.49969482421875,0.30517578125,0.18310546875,0.0,0.4959716796875,-0.6964111328125,0.5208740234375,-239.0,223.0,-84.0,102300.0,-8.09000015258789,0,0
5899.583993066247,0.714111328125,-0.49017333984375,-0.00384521484375,-0.49969482421875,0.06103515625,0.18310546875,0.06103515625,0.4952392578125,-0.6961669921875,0.52099609375,-239.0,223.0,-84.0,102300.0,-8.09000015258789,0,0
5899.588022066247,0.714111328125,-0.49017333984375,-0.00384521484375,-0.49969482421875,0.06103515625,0.18310546875,0.06103515625,0.4952392578125,-0.6961669921875,0.52099609375,-239.0,223.0,-84.0,102300.0,-8.09000015258789,0,0
5899.592993066247,0.714111328125,-0.49017333984375,-0.003875732421875,-0.49969482421875,0.1220703125,0.1220703125,-0.06103515625,0.4962158203125,-0.695068359375,0.5203857421875,-239.0,223.0,-84.0,102300.0,-8.09000015258789,0,0
5899.597993066247,0.714111328125,-0.49017333984375,-0.003875732421875,-0.49969482421875,-0.1220703125,0.30517578125,0.06103515625,0.495361328125,-0.6964111328125,0.5201416015625,-239.0,223.0,-84.0,102300.0,-8.09000015258789,0,0
5899.602994066247,0.714111328125,-0.49017333984375,-0.003875732421875,-0.49969482421875,0.244140625,0.244140625,0.18310546875,0.497802734375,-0.69677734375,0.5205078125,-239.0,223.0,-84.0,102300.0,-8.0910005569458,0,0
5899.607996066247,0.714111328125,-0.49017333984375,-0.003875732421875,-0.49969482421875,0.06103515625,0.18310546875,0.18310546875,0.4967041015625,-0.6954345703125,0.5201416015625,-239.0,223.0,-84.0,102300.0,-8.0910005569458,0,0
5899.622994066248,0.714111328125,-0.49017333984375,-0.003875732421875,-0.49969482421875,-0.244140625,0.1220703125,-0.18310546875,0.4984130859375,-0.697265625,0.5186767578125,-239.0,223.0,-84.0,102300.0,-8.0910005569458,0,0
5899.627995066248,0.714111328125,-0.49017333984375,-0.003875732421875,-0.49969482421875,-0.06103515625,0.244140625,-0.1220703125,0.4954833984375,-0.697509765625,0.5213623046875,-239.0,223.0,-84.0,102300.0,-8.0910005569458,0,0
5899.632996066249,0.714111328125,-0.490142822265625,-0.003875732421875,-0.49969482421875,0.244140625,-0.1220703125,-0.1220703125,0.4959716796875,-0.69580078125,0.5216064453125,-239.0,223.0,-84.0,102300.0,-8.0910005569458,0,0
5899.637993066249,0.714111328125,-0.490142822265625,-0.003875732421875,-0.49969482421875,-0.18310546875,0.1220703125,0.0,0.4974365234375,-0.6959228515625,0.520263671875,-239.0,223.0,-84.0,102300.0,-8.0910005569458,0,0
5899.642993066249,0.714141845703125,-0.490142822265625,-0.00390625,-0.49969482421875,-0.06103515625,0.18310546875,-0.1220703125,0.4954833984375,-0.694580078125,0.52197265625,-239.0,223.0,-84.0,102300.0,-8.0910005569458,0,0
5899.647994066249,0.714141845703125,-0.490142822265625,-0.003875732421875,-0.49969482421875,-0.06103515625,0.244140625,0.18310546875,0.4952392578125,-0.6959228515625,0.52001953125,-239.0,223.0,-84.0,102300.0,-8.0910005569458,0,0
5899.652996066249,0.714111328125,-0.490142822265625,-0.00390625,-0.499725341796875,-0.18310546875,0.06103515625,0.18310546875,0.4989013671875,-0.6968994140625,0.5206298828125,-239.0,223.0,-84.0,102300.0,-8.0910005569458,0,0
5899.65702706625,0.714111328125,-0.490142822265625,-0.00390625,-0.499725341796875,-0.18310546875,0.06103515625,0.18310546875,0.4989013671875,-0.6968994140625,0.5206298828125,-239.0,223.0,-84.0,102300.0,-8.0910005569458,0,0
5899.661996066249,0.714019775390625,-0.490142822265625,-0.0037841796875,-0.4998779296875,0.3662109375,-0.06103515625,-0.06103515625,0.496337890625,-0.697998046875,0.5186767578125,-239.0,223.0,-85.0,102300.0,-8.0910005569458,0,0
5899.666993066249,0.714019775390625,-0.490142822265625,-0.0037841796875,-0.4998779296875,-0.06103515625,0.1220703125,0.244140625,0.493408203125,-0.6959228515625,0.5206298828125,-239.0,223.0,-85.0,102300.0,-8.0910005569458,0,0
5899.671993066249,0.714019775390625,-0.490142822265625,-0.0037841796875,-0.4998779296875,-0.30517578125,0.1220703125,0.06103515625,0.4954833984375,-0.6949462890625,0.520263671875,-239.0,223.0,-85.0,102300.0,-8.0910005569458,0,0
5899.686996066249,0.714019775390625,-0.490142822265625,-0.0037841796875,-0.4998779296875,0.06103515625,0.244140625,-0.06103515625,0.495849609375,-0.697265625,0.5211181640625,-239.0,223.0,-85.0,102300.0,-8.0910005569458,0,0
5899.691994066249,0.714019775390625,-0.490142822265625,-0.0037841796875,-0.4998779296875,0.0,0.244140625,0.1220703125,0.49462890625,-0.6971435546875,0.5203857421875,-239.0,223.0,-85.0,102300.0,-8.0910005569458,0,0
5899.696994066249,0.714019775390625,-0.490142822265625,-0.0037841796875,-0.4998779296875,-0.1220703125,0.244140625,0.0,0.4974365234375,-0.6981201171875,0.5233154296875,-239.0,223.0,-85.0,102300.0,-8.0910005569458,0,0
5899.701994066249,0.714019775390625,-0.490142822265625,-0.0037841796875,-0.4998779296875,0.18310546875,0.30517578125,0.06103515625,0.4967041015625,-0.6986083984375,0.521484375,-239.0,223.0,-85.0,102300.0,-8.089000701904297,0,0
5899.706996066249,0.714019775390625,-0.490142822265625,-0.0037841796875,-0.4998779296875,-0.1220703125,0.244140625,0.06103515625,0.498046875,-0.697509765625,0.521484375,-239.0,223.0,-85.0,102300.0,-8.089000701904297,0,0
5899.71199406625,0.714019775390625,-0.490142822265625,-0.0037841796875,-0.4998779296875,-0.06103515625,-0.06103515625,-0.06103515625,0.49560546875,-0.6982421875,0.5189208984375,-239.0,223.0,-85.0,102300.0,-8.089000701904297,0,0
5899.71699406625,0.714019775390625,-0.490142822265625,-0.0037841796875,-0.4998779296875,-0.3662109375,0.1220703125,-0.18310546875,0.4949951171875,-0.6968994140625,0.5184326171875,-239.0,223.0,-85.0,102300.0,-8.089000701904297,0,0
5899.72102406625,0.714019775390625,-0.490142822265625,-0.0037841796875,-0.4998779296875,-0.3662109375,0.1220703125,-0.18310546875,0.4949951171875,-0.6968994140625,0.5184326171875,-239.0,223.0,-85.0,102300.0,-8.089000701904297,0,0
5899.72599406625,0.714019775390625,-0.4901123046875,-0.0037841796875,-0.4998779296875,0.06103515625,0.1220703125,-0.06103515625,0.495361328125,-0.6956787109375,0.5208740234375,-239.0,223.0,-85.0,102300.0,-8.089000701904297,0,0
5899.73099506625,0.714019775390625,-0.490142822265625,-0.0037841796875,-0.4998779296875,-0.06103515625,0.06103515625,0.30517578125,0.4940185546875,-0.69580078125,0.5196533203125,-239.0,223.0,-85.0,102300.0,-8.089000701904297,0,0
5899.73599706625,0.714019775390625,-0.490142822265625,-0.0037841796875,-0.4998779296875,-0.18310546875,0.1220703125,-0.06103515625,0.4964599609375,-0.697998046875,0.518798828125,-239.0,223.0,-85.0,102300.0,-8.089000701904297,0,0
5899.74099606625,0.714019775390625,-0.490142822265625,-0.0037841796875,-0.4998779296875,-0.06103515625,0.18310546875,-0.06103515625,0.4970703125,-0.6976318359375,0.5198974609375,-239.0,223.0,-85.0,102300.0,-8.089000701904297,0,0
5899.74599306625,0.714019775390625,-0.490142822265625,-0.0037841796875,-0.4998779296875,-0.1220703125,0.244140625,-0.244140625,0.4957275390625,-0.6959228515625,0.520263671875,-239.0,223.0,-85.0,102300.0,-8.089000701904297,0,0
5899.75099306625,0.714019775390625,-0.490142822265625,-0.0037841796875,-0.4998779296875,-0.06103515625,0.1220703125,-0.1220703125,0.4942626953125,-0.6962890625,0.51953125,-239.0,223.0,-85.0,102300.0,-8.089000701904297,0,0
5899.75599406625,0.714019775390625,-0.490142822265625,-0.0037841796875,-0.4998779296875,0.1220703125,0.244140625,-0.18310546875,0.494140625,-0.69677734375,0.5179443359375,-239.0,223.0,-84.0,102300.0,-8.089000701904297,0,0
5899.76099606625,0.714019775390625,-0.490142822265625,-0.0037841796875,-0.4998779296875,-0.18310546875,0.0,-0.18310546875,0.4990234375,-0.69677734375,0.5206298828125,-239.0,223.0,-84.0,102300.0,-8.089000701904297,0,0
5899.76599306625,0.714019775390625,-0.4901123046875,-0.0037841796875,-0.4998779296875,0.1220703125,0.1220703125,-0.1220703125,0.4949951171875,-0.6953125,0.52099609375,-239.0,223.0,-84.0,102300.0,-8.089000701904297,0,0
5899.77099306625,0.714019775390625,-0.4901123046875,-0.0037841796875,-0.4998779296875,-0.244140625,0.06103515625,-0.18310546875,0.496826171875,-0.69677734375,0.52001953125,-239.0,223.0,-84.0,102300.0,-8.089000701904297,0,0
5899.775994066251,0.714019775390625,-0.4901123046875,-0.0037841796875,-0.4998779296875,0.1220703125,0.244140625,0.0,0.497314453125,-0.6956787109375,0.520263671875,-239.0,223.0,-84.0,102300.0,-8.089000701904297,0,0
5899.780995066251,0.714019775390625,-0.4901123046875,-0.0037841796875,-0.4998779296875,-0.1220703125,0.06103515625,-0.06103515625,0.4954833984375,-0.6953125,0.5194091796875,-239.0,223.0,-84.0,102300.0,-8.089000701904297,0,0
5899.785992066251,0.714019775390625,-0.490142822265625,-0.0037841796875,-0.4998779296875,-0.244140625,-0.1220703125,0.18310546875,0.4959716796875,-0.6964111328125,0.5198974609375,-239.0,223.0,-84.0,102300.0,-8.089000701904297,0,0
5899.790021066251,0.714019775390625,-0.490142822265625,-0.0037841796875,-0.4998779296875,-0.244140625,-0.1220703125,0.18310546875,0.4959716796875,-0.6964111328125,0.5198974609375,-239.0,223.0,-84.0,102300.0,-8.089000701904297,0,0
5899.794996066251,0.714019775390625,-0.490142822265625,-0.0037841796875,-0.4998779296875,-0.18310546875,0.1220703125,0.0,0.49560546875,-0.6966552734375,0.5196533203125,-239.0,223.0,-84.0,102300.0,-8.089000701904297,0,0
5899.809994066251,0.714019775390625,-0.4901123046875,-0.0037841796875,-0.4998779296875,-0.18310546875,0.18310546875,-0.06103515625,0.4962158203125,-0.6973876953125,0.5208740234375,-239.0,223.0,-84.0,102300.0,-8.092000007629395,0,0
5899.814996066251,0.714019775390625,-0.490142822265625,-0.0037841796875,-0.4998779296875,0.18310546875,0.18310546875,-0.3662109375,0.496826171875,-0.695068359375,0.51806640625,-239.0,223.0,-84.0,102300.0,-8.092000007629395,0,0
5899.819993066251,0.714019775390625,-0.490142822265625,-0.0037841796875,-0.4998779296875,0.06103515625,0.30517578125,-0.1220703125,0.4962158203125,-0.6966552734375,0.5196533203125,-239.0,223.0,-84.0,102300.0,-8.092000007629395,0,0
5899.824993066251,0.714019775390625,-0.490142822265625,-0.003814697265625,-0.4998779296875,-0.18310546875,0.1220703125,0.0,0.4959716796875,-0.6939697265625,0.5179443359375,-239.0,223.0,-84.0,102300.0,-8.092000007629395,0,0
5899.829994066252,0.714019775390625,-0.490142822265625,-0.0037841796875,-0.4998779296875,-0.1220703125,0.244140625,0.0,0.494384765625,-0.6953125,0.5185546875,-239.0,223.0,-84.0,102300.0,-8.092000007629395,0,0
5899.834995066252,0.714019775390625,-0.490142822265625,-0.003814697265625,-0.4998779296875,0.0,0.06103515625,0.1220703125,0.4957275390625,-0.6962890625,0.5201416015625,-239.0,223.0,-84.0,102300.0,-8.092000007629395,0,0
5899.839992066252,0.714019775390625,-0.490142822265625,-0.0037841796875,-0.4998779296875,-0.1220703125,0.0,-0.1220703125,0.49658203125,-0.698486328125,0.5198974609375,-239.0,223.0,-84.0,102300.0,-8.092000007629395,0,0
5899.844993066253,0.714019775390625,-0.490142822265625,-0.0037841796875,-0.4998779296875,0.30517578125,0.0,-0.244140625,0.4954833984375,-0.696044921875,0.5216064453125,-239.0,223.0,-84.0,102300.0,-8.092000007629395,0,0
5899.849993066253,0.714019775390625,-0.490142822265625,-0.003814697265625,-0.4998779296875,-0.244140625,0.0,-0.1220703125,0.496826171875,-0.6968994140625,0.5186767578125,-239.0,223.0,-84.0,102300.0,-8.092000007629395,0,0
5899.854022066253,0.714019775390625,-0.490142822265625,-0.003814697265625,-0.4998779296875,-0.244140625,0.0,-0.1220703125,0.496826171875,-0.6968994140625,0.5186767578125,-239.0,223.0,-84.0,102300.0,-8.092000007629395,0,0
5899.858993066253,0.714019775390625,-0.490142822265625,-0.003814697265625,-0.4998779296875,0.18310546875,0.3662109375,0.18310546875,0.4949951171875,-0.695556640625,0.519775390625,-239.0,224.0,-84.0,102300.0,-8.092000007629395,0,0
5899.873993066253,0.714019775390625,-0.490142822265625,-0.0037841796875,-0.4998779296875,0.06103515625,0.18310546875,0.0,0.4954833984375,-0.696533203125,0.52099609375,-239.0,224.0,-84.0,102300.0,-8.092000007629395,0,0
5899.878993066253,0.714019775390625,-0.490142822265625,-0.0037841796875,-0.4998779296875,0.06103515625,-0.244140625,-0.18310546875,0.4931640625,-0.696533203125,0.518798828125,-239.0,224.0,-84.0,102300.0,-8.092000007629395,0,0
5899.883994066254,0.714019775390625,-0.490142822265625,-0.0037841796875,-0.4998779296875,0.1220703125,0.244140625,0.1220703125,0.4947509765625,-0.6954345703125,0.5196533203125,-239.0,224.0,-84.0,102300.0,-8.092000007629395,0,0
5899.888997066254,0.714019775390625,-0.490142822265625,-0.0037841796875,-0.4998779296875,-0.06103515625,0.1220703125,0.1220703125,0.4967041015625,-0.695556640625,0.5203857421875,-239.0,224.0,-84.0,102300.0,-8.092000007629395,0,0
5899.893997066254,0.714019775390625,-0.490142822265625,-0.0037841796875,-0.4998779296875,-0.18310546875,0.06103515625,0.18310546875,0.4949951171875,-0.697265625,0.5194091796875,-239.0,224.0,-84.0,102300.0,-8.092000007629395,0,0
5899.898994066254,0.714019775390625,-0.490142822265625,-0.0037841796875,-0.4998779296875,-0.244140625,0.06103515625,0.0,0.4949951171875,-0.6966552734375,0.519287109375,-239.0,224.0,-84.0,102300.0,-8.092000007629395,0,0
5899.903994066254,0.714019775390625,-0.490142822265625,-0.0037841796875,-0.4998779296875,-0.244140625,0.06103515625,0.0,0.4949951171875,-0.6966552734375,0.519287109375,-239.0,224.0,-84.0,102300.0,-8.09000015258789,0,0
5899.908994066254,0.714019775390625,-0.490142822265625,-0.0037841796875,-0.4998779296875,-0.06103515625,0.0,0.18310546875,0.494873046875,-0.696044921875,0.5191650390625,-239.0,224.0,-84.0,102300.0,-8.09000015258789,0,0
5899.9139970662545,0.714019775390625,-0.490142822265625,-0.0037841796875,-0.4998779296875,-0.1220703125,0.06103515625,-0.1220703125,0.49462890625,-0.6966552734375,0.5191650390625,-239.0,224.0,-84.0,102300.0,-8.09000015258789,0,0
5899.9189940662545,0.714019775390625,-0.490142822265625,-0.0037841796875,-0.4998779296875,0.06103515625,0.1220703125,-0.06103515625,0.4957275390625,-0.6968994140625,0.517333984375,-239.0,224.0,-84.0,102300.0,-8.09000015258789,0,0
5899.932994066255,0.714019775390625,-0.490142822265625,-0.0037841796875,-0.4998779296875,0.244140625,0.18310546875,0.0,0.4962158203125,-0.697509765625,0.5198974609375,-239.0,224.0,-84.0,102300.0,-8.09000015258789,0,0
5899.937995066255,0.714019775390625,-0.490142822265625,-0.0037841796875,-0.4998779296875,0.0,0.42724609375,0.06103515625,0.494873046875,-0.69677734375,0.5198974609375,-239.0,224.0,-84.0,102300.0,-8.09000015258789,0,0
5899.942997066255,0.714019775390625,-0.490142822265625,-0.0037841796875,-0.4998779296875,0.3662109375,0.1220703125,-0.06103515625,0.4954833984375,-0.6961669921875,0.519775390625,-239.0,224.0,-84.0,102300.0,-8.09000015258789,0,0
5899.947996066255,0.714019775390625,-0.490142822265625,-0.0037841796875,-0.4998779296875,0.0,-0.06103515625,0.1220703125,0.4962158203125,-0.6978759765625,0.5208740234375,-239.0,224.0,-84.0,102300.0,-8.09000015258789,0,0
5899.952994066255,0.714019775390625,-0.490142822265625,-0.0037841796875,-0.4998779296875,-0.30517578125,-0.06103515625,0.06103515625,0.494873046875,-0.697265625,0.5184326171875,-240.0,223.0,-82.0,102300.0,-8.09000015258789,0,0
5899.957993066255,0.714019775390625,-0.490142822265625,-0.0037841796875,-0.4998779296875,0.06103515625,0.18310546875,-0.1220703125,0.4937744140625,-0.6954345703125,0.518798828125,-240.0,223.0,-82.0,102300.0,-8.09000015258789,0,0
5899.962994066255,0.714019775390625,-0.490142822265625,-0.0037841796875,-0.4998779296875,-0.6103515625,-0.18310546875,0.06103515625,0.4947509765625,-0.6968994140625,0.519775390625,-240.0,223.0,-82.0,102300.0,-8.09000015258789,0,0
5899.967996066255,0.714019775390625,-0.490142822265625,-0.0037841796875,-0.4998779296875,-0.06103515625,0.06103515625,-0.18310546875,0.4954833984375,-0.6962890625,0.518798828125,-240.0,223.0,-82.0,102300.0,-8.09000015258789,0,0
5899.972993066255,0.714019775390625,-0.490142822265625,-0.003753662109375,-0.499847412109375,0.0,0.1220703125,0.06103515625,0.4949951171875,-0.69677734375,0.5184326171875,-240.0,223.0,-82.0,102300.0,-8.09000015258789,0,0
5899.977993066255,0.714019775390625,-0.49017333984375,-0.003753662109375,-0.499847412109375,-0.30517578125,0.06103515625,0.0,0.4967041015625,-0.6971435546875,0.5186767578125,-240.0,223.0,-82.0,102300.0,-8.09000015258789,0,0
5899.982994066256,0.714019775390625,-0.49017333984375,-0.003753662109375,-0.499847412109375,0.1220703125,0.0,-0.1220703125,0.495849609375,-0.6968994140625,0.5186767578125,-240.0,223.0,-82.0,102300.0,-8.09000015258789,0,0
5899.996995066256,0.714019775390625,-0.490142822265625,-0.003753662109375,-0.499847412109375,0.244140625,0.244140625,-0.06103515625,0.4945068359375,-0.696044921875,0.5201416015625,-240.0,223.0,-82.0,102300.0,-8.09000015258789,0,0
5900.001992066256,0.714019775390625,-0.490142822265625,-0.003753662109375,-0.499847412109375,-0.06103515625,0.18310546875,0.3662109375,0.495849609375,-0.6954345703125,0.520751953125,-240.0,223.0,-82.0,102300.0,-8.092000007629395,0,0
5900.006993066257,0.714019775390625,-0.490142822265625,-0.003753662109375,-0.499847412109375,-0.244140625,0.18310546875,0.0,0.493408203125,-0.697998046875,0.51953125,-240.0,223.0,-82.0,102300.0,-8.092000007629395,0,0
5900.011993066257,0.714019775390625,-0.490142822265625,-0.003753662109375,-0.499847412109375,0.1220703125,0.18310546875,-0.06103515625,0.494384765625,-0.6976318359375,0.520751953125,-240.0,223.0,-82.0,102300.0,-8.092000007629395,0,0
5900.016994066257,0.714019775390625,-0.490142822265625,-0.003753662109375,-0.499847412109375,-0.1220703125,0.244140625,0.0,0.4954833984375,-0.6959228515625,0.519775390625,-240.0,223.0,-82.0,102300.0,-8.092000007629395,0,0
5900.021996066257,0.714019775390625,-0.490142822265625,-0.003753662109375,-0.499847412109375,0.06103515625,-0.06103515625,-0.06103515625,0.4959716796875,-0.6968994140625,0.5186767578125,-240.0,223.0,-82.0,102300.0,-8.092000007629395,0,0
5900.026993066257,0.714019775390625,-0.490142822265625,-0.003753662109375,-0.499847412109375,-0.1220703125,0.18310546875,0.0,0.4971923828125,-0.696533203125,0.5179443359375,-240.0,223.0,-82.0,102300.0,-8.092000007629395,0,0
5900.031993066257,0.714019775390625,-0.49017333984375,-0.003753662109375,-0.499847412109375,0.1220703125,0.1220703125,0.0,0.4964599609375,-0.6966552734375,0.5181884765625,-240.0,223.0,-82.0,102300.0,-8.092000007629395,0,0
5900.036994066258,0.714019775390625,-0.49017333984375,-0.003753662109375,-0.499847412109375,0.732421875,0.3662109375,0.06103515625,0.4959716796875,-0.69580078125,0.5194091796875,-240.0,223.0,-82.0,102300.0,-8.092000007629395,0,0
5900.041995066258,0.714019775390625,-0.49017333984375,-0.003753662109375,-0.499847412109375,-0.30517578125,0.244140625,0.0,0.494873046875,-0.696044921875,0.52001953125,-240.0,223.0,-82.0,102300.0,-8.092000007629395,0,0
5900.0469960662585,0.714019775390625,-0.490142822265625,-0.003753662109375,-0.499847412109375,0.0,-0.06103515625,0.0,0.4959716796875,-0.6944580078125,0.520751953125,-240.0,223.0,-82.0,102300.0,-8.092000007629395,0,0
5900.051993066259,0.714019775390625,-0.490142822265625,-0.003753662109375,-0.499847412109375,0.06103515625,0.1220703125,0.06103515625,0.4962158203125,-0.6968994140625,0.5203857421875,-240.0,223.0,-82.0,102300.0,-8.092000007629395,0,0
5900.056022066258,0.714019775390625,-0.490142822265625,-0.003753662109375,-0.499847412109375,0.06103515625,0.1220703125,0.06103515625,0.4962158203125,-0.6968994140625,0.5203857421875,-240.0,223.0,-82.0,102300.0,-8.092000007629395,0,0
5900.060993066259,0.713897705078125,-0.49017333984375,-0.003662109375,-0.5,-0.1220703125,0.18310546875,-0.18310546875,0.495849609375,-0.697265625,0.5184326171875,-242.0,223.0,-82.0,102300.0,-8.092000007629395,0,0
5900.065993066259,0.713897705078125,-0.49017333984375,-0.003662109375,-0.5,-0.06103515625,0.30517578125,0.06103515625,0.497314453125,-0.6961669921875,0.519775390625,-242.0,223.0,-82.0,102300.0,-8.092000007629395,0,0
5900.070994066259,0.713897705078125,-0.49017333984375,-0.003662109375,-0.5,0.18310546875,0.06103515625,-0.06103515625,0.4967041015625,-0.696533203125,0.519287109375,-242.0,223.0,-82.0,102300.0,-8.092000007629395,0,0
5900.075996066259,0.713897705078125,-0.49017333984375,-0.003662109375,-0.5,0.30517578125,0.1220703125,-0.06103515625,0.494384765625,-0.6961669921875,0.51904296875,-242.0,223.0,-82.0,102300.0,-8.092000007629395,0,0
5900.080993066259,0.713897705078125,-0.49017333984375,-0.003662109375,-0.5,-0.244140625,0.18310546875,-0.1220703125,0.4979248046875,-0.6949462890625,0.5201416015625,-242.0,223.0,-82.0,102300.0,-8.092000007629395,0,0
5900.085993066259,0.713897705078125,-0.49017333984375,-0.003662109375,-0.5,0.06103515625,0.06103515625,-0.30517578125,0.4951171875,-0.6954345703125,0.5191650390625,-242.0,223.0,-82.0,102300.0,-8.092000007629395,0,0
5900.09099406626,0.713897705078125,-0.49017333984375,-0.003662109375,-0.5,-0.42724609375,0.06103515625,0.1220703125,0.4945068359375,-0.69677734375,0.518798828125,-242.0,223.0,-82.0,102300.0,-8.092000007629395,0,0
5900.09599506626,0.713897705078125,-0.49017333984375,-0.003662109375,-0.5,-0.18310546875,0.1220703125,0.18310546875,0.497802734375,-0.6973876953125,0.5191650390625,-242.0,223.0,-82.0,102300.0,-8.092000007629395,0,0
5900.10099306626,0.713897705078125,-0.49017333984375,-0.003662109375,-0.5,0.06103515625,0.0,-0.18310546875,0.49609375,-0.695556640625,0.5185546875,-242.0,223.0,-82.0,102300.0,-8.092000007629395,0,0
5900.105994066261,0.713897705078125,-0.49017333984375,-0.003662109375,-0.5,-0.18310546875,0.06103515625,0.244140625,0.4942626953125,-0.6962890625,0.5211181640625,-242.0,223.0,-82.0,102300.0,-8.0910005569458,0,0
5900.120026066261,0.713897705078125,-0.49017333984375,-0.003662109375,-0.5,0.1220703125,0.244140625,-0.06103515625,0.495361328125,-0.6978759765625,0.5174560546875,-242.0,223.0,-82.0,102300.0,-8.0910005569458,0,0
5900.12499506626,0.713897705078125,-0.49017333984375,-0.003662109375,-0.5,0.1220703125,0.18310546875,0.06103515625,0.495849609375,-0.69677734375,0.519287109375,-242.0,223.0,-82.0,102300.0,-8.0910005569458,0,0
5900.129996066261,0.713897705078125,-0.49017333984375,-0.003662109375,-0.5,-0.1220703125,0.18310546875,-0.244140625,0.4959716796875,-0.6964111328125,0.521484375,-242.0,223.0,-82.0,102300.0,-8.0910005569458,0,0
5900.134994066261,0.713897705078125,-0.49017333984375,-0.003662109375,-0.5,0.244140625,-0.06103515625,-0.18310546875,0.493896484375,-0.6954345703125,0.5196533203125,-242.0,223.0,-82.0,102300.0,-8.0910005569458,0,0
5900.139994066261,0.713897705078125,-0.49017333984375,-0.003662109375,-0.5,-0.18310546875,0.30517578125,-0.1220703125,0.4959716796875,-0.697021484375,0.5208740234375,-242.0,223.0,-82.0,102300.0,-8.0910005569458,0,0
5900.144995066262,0.713897705078125,-0.49017333984375,-0.003662109375,-0.5,-0.06103515625,0.18310546875,-0.3662109375,0.49560546875,-0.697021484375,0.51904296875,-242.0,223.0,-82.0,102300.0,-8.0910005569458,0,0
5900.149997066262,0.713897705078125,-0.49017333984375,-0.003662109375,-0.5,0.1220703125,0.244140625,-0.06103515625,0.494140625,-0.6949462890625,0.5206298828125,-242.0,223.0,-82.0,102300.0,-8.0910005569458,0,0
5900.154996066261,0.713897705078125,-0.49017333984375,-0.003662109375,-0.5,0.1220703125,0.244140625,-0.06103515625,0.494140625,-0.6949462890625,0.5206298828125,-240.0,222.0,-82.0,102300.0,-8.0910005569458,0,0
5900.159994066262,0.713897705078125,-0.49017333984375,-0.003662109375,-0.5,-0.1220703125,0.0,0.0,0.49560546875,-0.69775390625,0.5203857421875,-240.0,222.0,-82.0,102300.0,-8.0910005569458,0,0
5900.164994066262,0.713897705078125,-0.49017333984375,-0.003662109375,-0.5,0.0,-0.06103515625,-0.06103515625,0.4952392578125,-0.6953125,0.5185546875,-240.0,222.0,-82.0,102300.0,-8.0910005569458,0,0
5900.169994066262,0.713897705078125,-0.49017333984375,-0.003662109375,-0.5,-0.18310546875,0.30517578125,0.06103515625,0.4957275390625,-0.6968994140625,0.5205078125,-240.0,222.0,-82.0,102300.0,-8.0910005569458,0,0
5900.184022066262,0.713897705078125,-0.49017333984375,-0.003662109375,-0.5,0.0,0.06103515625,-0.1220703125,0.4962158203125,-0.6947021484375,0.5206298828125,-240.0,222.0,-82.0,102300.0,-8.0910005569458,0,0
5900.188993066262,0.713897705078125,-0.490142822265625,-0.003662109375,-0.5,-0.06103515625,0.18310546875,0.0,0.49560546875,-0.69873046875,0.5208740234375,-240.0,222.0,-82.0,102300.0,-8.0910005569458,0,0
5900.193993066262,0.71392822265625,-0.490142822265625,-0.003662109375,-0.5,-0.30517578125,0.06103515625,-0.1220703125,0.4949951171875,-0.6962890625,0.5218505859375,-240.0,222.0,-82.0,102300.0,-8.0910005569458,0,0
5900.1989940662625,0.71392822265625,-0.490142822265625,-0.003662109375,-0.5,0.1220703125,0.18310546875,0.06103515625,0.4935302734375,-0.695068359375,0.52099609375,-240.0,222.0,-82.0,102300.0,-8.0910005569458,0,0
5900.203995066263,0.71392822265625,-0.490142822265625,-0.003662109375,-0.5,0.1220703125,0.18310546875,0.06103515625,0.4935302734375,-0.695068359375,0.52099609375,-240.0,222.0,-82.0,102300.0,-8.0910005569458,0,0
5900.208996066263,0.71392822265625,-0.490142822265625,-0.003662109375,-0.500030517578125,-0.06103515625,0.18310546875,0.0,0.4962158203125,-0.6961669921875,0.5186767578125,-240.0,222.0,-82.0,102300.0,-8.0910005569458,0,0
5900.213993066263,0.71392822265625,-0.490142822265625,-0.003662109375,-0.500030517578125,0.1220703125,0.3662109375,0.1220703125,0.4974365234375,-0.6973876953125,0.519775390625,-240.0,222.0,-82.0,102300.0,-8.0910005569458,0,0
5900.2189930662635,0.71392822265625,-0.490142822265625,-0.003662109375,-0.500030517578125,-0.06103515625,0.1220703125,-0.06103515625,0.49560546875,-0.697265625,0.5203857421875,-240.0,222.0,-82.0,102300.0,-8.0910005569458,0,0
5900.223994066264,0.71392822265625,-0.490142822265625,-0.003662109375,-0.500030517578125,0.0,0.244140625,0.18310546875,0.49755859375,-0.6971435546875,0.5196533203125,-240.0,222.0,-82.0,102300.0,-8.0910005569458,0,0
5900.228996066264,0.71392822265625,-0.490142822265625,-0.003662109375,-0.5,-0.18310546875,0.06103515625,0.06103515625,0.495849609375,-0.6986083984375,0.5201416015625,-240.0,222.0,-82.0,102300.0,-8.0910005569458,0,0
5900.233993066264,0.71392822265625,-0.490142822265625,-0.003662109375,-0.5,-0.18310546875,0.1220703125,-0.1220703125,0.49755859375,-0.6998291015625,0.52001953125,-240.0,222.0,-82.0,102300.0,-8.0910005569458,0,0
5900.238993066264,0.71392822265625,-0.490142822265625,-0.003662109375,-0.5,0.30517578125,0.30517578125,-0.18310546875,0.4949951171875,-0.696044921875,0.5206298828125,-240.0,222.0,-82.0,102300.0,-8.0910005569458,0,0
5900.243994066264,0.71392822265625,-0.490142822265625,-0.003662109375,-0.5,0.18310546875,0.30517578125,0.06103515625,0.4947509765625,-0.6976318359375,0.5201416015625,-240.0,222.0,-82.0,102300.0,-8.0910005569458,0,0
5900.248995066265,0.71392822265625,-0.490142822265625,-0.003662109375,-0.5,0.1220703125,0.1220703125,0.0,0.4954833984375,-0.6966552734375,0.5206298828125,-240.0,222.0,-82.0,102300.0,-8.0910005569458,0,0
5900.2530240662645,0.71392822265625,-0.490142822265625,-0.003662109375,-0.5,0.1220703125,0.1220703125,0.0,0.4954833984375,-0.6966552734375,0.5206298828125,-240.0,222.0,-82.0,102300.0,-8.0910005569458,0,0
5900.257995066265,0.71392822265625,-0.490142822265625,-0.003662109375,-0.5,-0.18310546875,0.244140625,-0.1220703125,0.4976806640625,-0.696044921875,0.51953125,-240.0,222.0,-82.0,102300.0,-8.0910005569458,0,0
5900.262996066265,0.71392822265625,-0.490142822265625,-0.003662109375,-0.5,-0.1220703125,0.0,-0.06103515625,0.4954833984375,-0.69677734375,0.52099609375,-240.0,222.0,-82.0,102300.0,-8.0910005569458,0,0
5900.267993066265,0.71392822265625,-0.490142822265625,-0.003662109375,-0.5,-0.1220703125,0.06103515625,-0.1220703125,0.497314453125,-0.69580078125,0.52001953125,-240.0,222.0,-82.0,102300.0,-8.0910005569458,0,0
5900.272993066265,0.71392822265625,-0.490142822265625,-0.003662109375,-0.500030517578125,0.30517578125,0.48828125,-0.06103515625,0.493896484375,-0.6962890625,0.5213623046875,-240.0,222.0,-82.0,102300.0,-8.0910005569458,0,0
5900.277994066266,0.71392822265625,-0.490142822265625,-0.003662109375,-0.500030517578125,0.1220703125,0.06103515625,-0.06103515625,0.497314453125,-0.696044921875,0.5206298828125,-240.0,222.0,-82.0,102300.0,-8.0910005569458,0,0
5900.282996066266,0.71392822265625,-0.4901123046875,-0.003662109375,-0.500030517578125,0.0,0.0,-0.1220703125,0.495849609375,-0.695068359375,0.5208740234375,-240.0,222.0,-82.0,102300.0,-8.0910005569458,0,0
5900.287993066266,0.71392822265625,-0.4901123046875,-0.003662109375,-0.500030517578125,-0.1220703125,0.0,0.0,0.4947509765625,-0.69677734375,0.520751953125,-240.0,222.0,-82.0,102300.0,-8.0910005569458,0,0
5900.292993066266,0.71392822265625,-0.4901123046875,-0.003662109375,-0.500030517578125,-0.06103515625,0.0,-0.244140625,0.494384765625,-0.6962890625,0.520751953125,-240.0,222.0,-82.0,102300.0,-8.0910005569458,0,0
5900.307992066267,0.71392822265625,-0.4901123046875,-0.003631591796875,-0.500030517578125,0.1220703125,0.0,0.0,0.4940185546875,-0.698486328125,0.5198974609375,-240.0,222.0,-82.0,102300.0,-8.09000015258789,0,0
5900.312993066267,0.71392822265625,-0.4901123046875,-0.003631591796875,-0.500030517578125,-0.06103515625,0.244140625,0.1220703125,0.49462890625,-0.6968994140625,0.52001953125,-240.0,222.0,-82.0,102300.0,-8.09000015258789,0,0
5900.317023066267,0.71392822265625,-0.4901123046875,-0.003631591796875,-0.500030517578125,-0.06103515625,0.244140625,0.1220703125,0.49462890625,-0.6968994140625,0.52001953125,-240.0,222.0,-82.0,102300.0,-8.09000015258789,0,0
5900.3219940662675,0.71392822265625,-0.4901123046875,-0.003631591796875,-0.500030517578125,-0.1220703125,0.1220703125,-0.06103515625,0.495849609375,-0.6973876953125,0.5198974609375,-240.0,222.0,-82.0,102300.0,-8.09000015258789,0,0
5900.326994066268,0.71392822265625,-0.4901123046875,-0.003631591796875,-0.500030517578125,-0.1220703125,0.0,0.244140625,0.4959716796875,-0.6966552734375,0.5194091796875,-240.0,222.0,-82.0,102300.0,-8.09000015258789,0,0
5900.331994066268,0.71392822265625,-0.4901123046875,-0.003662109375,-0.500030517578125,-0.06103515625,0.1220703125,0.18310546875,0.4959716796875,-0.6968994140625,0.5191650390625,-240.0,222.0,-82.0,102300.0,-8.09000015258789,0,0
5900.336997066268,0.71392822265625,-0.4901123046875,-0.003662109375,-0.500030517578125,-0.06103515625,0.244140625,-0.244140625,0.4970703125,-0.696533203125,0.5205078125,-240.0,222.0,-82.0,102300.0,-8.09000015258789,0,0
5900.341994066268,0.71392822265625,-0.4901123046875,-0.003662109375,-0.500030517578125,-0.244140625,0.06103515625,-0.06103515625,0.4949951171875,-0.695556640625,0.520751953125,-240.0,222.0,-82.0,102300.0,-8.09000015258789,0,0
5900.346994066268,0.71392822265625,-0.4901123046875,-0.003662109375,-0.500030517578125,-1.03759765625,-0.06103515625,-0.1220703125,0.4945068359375,-0.69580078125,0.5205078125,-240.0,222.0,-82.0,102300.0,-8.09000015258789,0,0
5900.3519950662685,0.71392822265625,-0.4901123046875,-0.003662109375,-0.500030517578125,-0.18310546875,0.3662109375,0.0,0.4951171875,-0.696533203125,0.52099609375,-240.0,222.0,-82.0,102300.0,-8.09000015258789,0,0
5900.3669940662685,0.713958740234375,-0.490081787109375,-0.003631591796875,-0.500030517578125,0.0,0.3662109375,-0.244140625,0.494873046875,-0.697509765625,0.5223388671875,-240.0,222.0,-82.0,102300.0,-8.09000015258789,0,0
5900.371994066269,0.713958740234375,-0.490081787109375,-0.003631591796875,-0.500030517578125,0.1220703125,-0.1220703125,-0.1220703125,0.49609375,-0.69775390625,0.5230712890625,-240.0,222.0,-82.0,102300.0,-8.09000015258789,0,0
5900.376994066269,0.713958740234375,-0.490081787109375,-0.003662109375,-0.500030517578125,-0.3662109375,0.18310546875,-0.06103515625,0.497802734375,-0.6962890625,0.52099609375,-240.0,222.0,-82.0,102300.0,-8.09000015258789,0,0
5900.381996066269,0.713958740234375,-0.490081787109375,-0.003662109375,-0.500030517578125,-0.06103515625,0.06103515625,-0.06103515625,0.495849609375,-0.6953125,0.5205078125,-240.0,222.0,-82.0,102300.0,-8.09000015258789,0,0
5900.386028066268,0.713958740234375,-0.490081787109375,-0.003662109375,-0.500030517578125,-0.06103515625,0.06103515625,-0.06103515625,0.495849609375,-0.6953125,0.5205078125,-240.0,222.0,-82.0,102300.0,-8.09000015258789,0,0
5900.390996066269,0.713958740234375,-0.490081787109375,-0.003631591796875,-0.500030517578125,-0.244140625,0.1220703125,-0.06103515625,0.4962158203125,-0.698486328125,0.5198974609375,-240.0,222.0,-82.0,102300.0,-8.09000015258789,0,0
5900.395993066269,0.713958740234375,-0.490081787109375,-0.003631591796875,-0.500030517578125,0.1220703125,0.1220703125,0.06103515625,0.4949951171875,-0.696044921875,0.5213623046875,-240.0,222.0,-82.0,102300.0,-8.09000015258789,0,0
5900.400993066269,0.713958740234375,-0.490081787109375,-0.003631591796875,-0.500030517578125,-0.1220703125,-0.06103515625,-0.06103515625,0.497314453125,-0.697265625,0.5201416015625,-240.0,222.0,-82.0,102300.0,-8.09000015258789,0,0
5900.405994066269,0.713958740234375,-0.490081787109375,-0.003662109375,-0.500030517578125,-0.30517578125,-0.06103515625,-0.244140625,0.4991455078125,-0.6951904296875,0.5228271484375,-240.0,222.0,-82.0,102300.0,-8.09000015258789,0,0
5900.41099506627,0.713958740234375,-0.49005126953125,-0.003662109375,-0.500030517578125,0.06103515625,0.244140625,-0.1220703125,0.4937744140625,-0.697509765625,0.5216064453125,-240.0,222.0,-82.0,102300.0,-8.09000015258789,0,0
5900.41599206627,0.713958740234375,-0.49005126953125,-0.003631591796875,-0.500030517578125,-0.1220703125,0.30517578125,-0.244140625,0.4942626953125,-0.696533203125,0.520751953125,-240.0,222.0,-82.0,102300.0,-8.09000015258789,0,0
5900.42099306627,0.713958740234375,-0.49005126953125,-0.003631591796875,-0.500030517578125,-0.18310546875,0.244140625,-0.1220703125,0.4945068359375,-0.6968994140625,0.52099609375,-240.0,222.0,-82.0,102300.0,-8.09000015258789,0,0
5900.42599306627,0.713958740234375,-0.49005126953125,-0.003631591796875,-0.500030517578125,0.1220703125,0.244140625,0.06103515625,0.4967041015625,-0.6981201171875,0.521484375,-240.0,222.0,-82.0,102300.0,-8.09000015258789,0,0
5900.430994066271,0.713958740234375,-0.49005126953125,-0.003631591796875,-0.500030517578125,-0.48828125,0.18310546875,0.06103515625,0.4945068359375,-0.695556640625,0.5234375,-240.0,222.0,-82.0,102300.0,-8.09000015258789,0,0
5900.4359960662705,0.713958740234375,-0.490020751953125,-0.003631591796875,-0.500030517578125,-0.1220703125,0.244140625,-0.18310546875,0.4942626953125,-0.6962890625,0.5213623046875,-240.0,222.0,-82.0,102300.0,-8.09000015258789,0,0
5900.4409930662705,0.7139892578125,-0.490020751953125,-0.003631591796875,-0.500030517578125,-0.1220703125,0.30517578125,-0.1220703125,0.4949951171875,-0.6976318359375,0.521728515625,-240.0,222.0,-82.0,102300.0,-8.09000015258789,0,0
5900.445993066271,0.7139892578125,-0.490020751953125,-0.003631591796875,-0.500030517578125,-0.06103515625,0.1220703125,-0.06103515625,0.495361328125,-0.6959228515625,0.5218505859375,-240.0,222.0,-82.0,102300.0,-8.09000015258789,0,0
5900.45002206627,0.7139892578125,-0.490020751953125,-0.003631591796875,-0.500030517578125,-0.06103515625,0.1220703125,-0.06103515625,0.495361328125,-0.6959228515625,0.5218505859375,-240.0,222.0,-82.0,102300.0,-8.09000015258789,0,0
5900.454993066271,0.7139892578125,-0.490020751953125,-0.003631591796875,-0.50006103515625,-0.18310546875,0.06103515625,-0.06103515625,0.4959716796875,-0.6964111328125,0.5208740234375,-240.0,223.0,-82.0,102300.0,-8.09000015258789,0,0
5900.459994066271,0.714202880859375,-0.490020751953125,-0.00384521484375,-0.499725341796875,-0.1220703125,0.0,-0.06103515625,0.4945068359375,-0.69677734375,0.5216064453125,-240.0,223.0,-82.0,102300.0,-8.09000015258789,0,0
5900.4649950662715,0.714202880859375,-0.490020751953125,-0.00384521484375,-0.499725341796875,0.48828125,0.3662109375,0.1220703125,0.49560546875,-0.6990966796875,0.521728515625,-240.0,223.0,-82.0,102300.0,-8.09000015258789,0,0
5900.4699920662715,0.714202880859375,-0.489990234375,-0.00384521484375,-0.499725341796875,-0.1220703125,0.18310546875,0.0,0.496337890625,-0.696044921875,0.5213623046875,-240.0,223.0,-82.0,102300.0,-8.09000015258789,0,0
5900.474993066272,0.714202880859375,-0.490020751953125,-0.00384521484375,-0.499725341796875,-0.06103515625,0.30517578125,0.0,0.495361328125,-0.6973876953125,0.518798828125,-240.0,223.0,-82.0,102300.0,-8.09000015258789,0,0
5900.489996066272,0.714202880859375,-0.489990234375,-0.00384521484375,-0.499755859375,-0.30517578125,0.18310546875,0.1220703125,0.495849609375,-0.69482421875,0.5224609375,-240.0,223.0,-82.0,102300.0,-8.09000015258789,0,0
5900.494993066272,0.7142333984375,-0.489990234375,-0.00384521484375,-0.499755859375,-0.244140625,0.1220703125,0.0,0.4949951171875,-0.6947021484375,0.5223388671875,-240.0,223.0,-82.0,102300.0,-8.09000015258789,0,0
5900.4999930662725,0.7142333984375,-0.489990234375,-0.00384521484375,-0.499755859375,0.06103515625,0.18310546875,-0.18310546875,0.4952392578125,-0.69580078125,0.5201416015625,-240.0,223.0,-82.0,102300.0,-8.09000015258789,0,0
5900.504994066273,0.7142333984375,-0.489990234375,-0.00384521484375,-0.499755859375,-0.30517578125,0.06103515625,0.0,0.4954833984375,-0.697998046875,0.52001953125,-240.0,223.0,-82.0,102300.0,-8.09000015258789,0,0
5900.509995066273,0.714202880859375,-0.489990234375,-0.00384521484375,-0.499755859375,0.06103515625,0.30517578125,-0.18310546875,0.4969482421875,-0.6966552734375,0.5198974609375,-240.0,223.0,-82.0,102300.0,-8.09000015258789,0,0
5900.514996066274,0.714202880859375,-0.489990234375,-0.00384521484375,-0.499755859375,-0.244140625,0.06103515625,0.18310546875,0.4969482421875,-0.697021484375,0.5218505859375,-240.0,223.0,-82.0,102300.0,-8.09000015258789,0,0
5900.5190220662735,0.714202880859375,-0.489990234375,-0.00384521484375,-0.499755859375,-0.244140625,0.06103515625,0.18310546875,0.4969482421875,-0.697021484375,0.5218505859375,-240.0,223.0,-82.0,102300.0,-8.09000015258789,0,0
5900.523993066274,0.7142333984375,-0.489959716796875,-0.00384521484375,-0.499755859375,-0.30517578125,0.1220703125,-0.1220703125,0.49609375,-0.698486328125,0.5216064453125,-240.0,223.0,-82.0,102300.0,-8.09000015258789,0,0
5900.528994066274,0.7142333984375,-0.489959716796875,-0.00384521484375,-0.499755859375,-0.244140625,0.06103515625,-0.1220703125,0.49609375,-0.6956787109375,0.5206298828125,-240.0,223.0,-82.0,102300.0,-8.09000015258789,0,0
5900.533994066274,0.7142333984375,-0.489959716796875,-0.00384521484375,-0.499755859375,0.0,0.1220703125,-0.06103515625,0.4957275390625,-0.6962890625,0.5196533203125,-240.0,223.0,-82.0,102300.0,-8.09000015258789,0,0
5900.538994066274,0.7142333984375,-0.489959716796875,-0.00384521484375,-0.499755859375,0.0,-0.06103515625,-0.06103515625,0.4964599609375,-0.6986083984375,0.52099609375,-240.0,223.0,-82.0,102300.0,-8.09000015258789,0,0
5900.553994066275,0.7142333984375,-0.489959716796875,-0.00384521484375,-0.499755859375,-0.06103515625,0.18310546875,0.1220703125,0.4962158203125,-0.695556640625,0.5198974609375,-239.0,221.0,-81.0,102300.0,-8.0910005569458,0,0
5900.558995066275,0.7142333984375,-0.489959716796875,-0.00384521484375,-0.499755859375,-0.244140625,0.1220703125,0.244140625,0.4952392578125,-0.6976318359375,0.521484375,-239.0,221.0,-81.0,102300.0,-8.0910005569458,0,0
5900.563997066275,0.7142333984375,-0.489959716796875,-0.00384521484375,-0.499755859375,-0.06103515625,-0.06103515625,-0.18310546875,0.4951171875,-0.6983642578125,0.521728515625,-239.0,221.0,-81.0,102300.0,-8.0910005569458,0,0
5900.568996066275,0.7142333984375,-0.489959716796875,-0.00384521484375,-0.499755859375,0.06103515625,0.06103515625,0.0,0.4949951171875,-0.6962890625,0.5220947265625,-239.0,221.0,-81.0,102300.0,-8.0910005569458,0,0
5900.573994066275,0.7142333984375,-0.489959716796875,-0.00384521484375,-0.499755859375,-0.18310546875,0.1220703125,-0.244140625,0.4952392578125,-0.6962890625,0.52099609375,-239.0,221.0,-81.0,102300.0,-8.0910005569458,0,0
5900.578994066275,0.7142333984375,-0.489959716796875,-0.00384521484375,-0.499755859375,0.1220703125,0.1220703125,-0.30517578125,0.495361328125,-0.697998046875,0.5225830078125,-239.0,221.0,-81.0,102300.0,-8.0910005569458,0,0
5900.583024066275,0.7142333984375,-0.489959716796875,-0.00384521484375,-0.499755859375,0.1220703125,0.1220703125,-0.30517578125,0.495361328125,-0.697998046875,0.5225830078125,-239.0,221.0,-81.0,102300.0,-8.0910005569458,0,0
5900.587994066275,0.7142333984375,-0.489959716796875,-0.00384521484375,-0.499755859375,-0.1220703125,0.1220703125,0.244140625,0.494873046875,-0.695556640625,0.52001953125,-239.0,221.0,-81.0,102300.0,-8.0910005569458,0,0
5900.592994066275,0.7142333984375,-0.489959716796875,-0.00384521484375,-0.499755859375,-0.1220703125,0.30517578125,-0.06103515625,0.49609375,-0.6971435546875,0.5216064453125,-239.0,221.0,-81.0,102300.0,-8.0910005569458,0,0
5900.597996066275,0.7142333984375,-0.489959716796875,-0.00384521484375,-0.499755859375,-0.18310546875,0.0,-0.18310546875,0.4969482421875,-0.6982421875,0.5189208984375,-239.0,221.0,-81.0,102300.0,-8.0910005569458,0,0
5900.602993066275,0.7142333984375,-0.489959716796875,-0.00384521484375,-0.499755859375,0.06103515625,0.1220703125,-0.1220703125,0.4959716796875,-0.695068359375,0.520751953125,-239.0,221.0,-81.0,102300.0,-8.0910005569458,0,0
5900.607993066275,0.7142333984375,-0.489959716796875,-0.00384521484375,-0.499755859375,0.1220703125,0.06103515625,-0.1220703125,0.494873046875,-0.69482421875,0.519775390625,-239.0,221.0,-81.0,102300.0,-8.0910005569458,0,0
5900.612994066276,0.7142333984375,-0.489959716796875,-0.00384521484375,-0.499755859375,-0.06103515625,0.18310546875,0.06103515625,0.496826171875,-0.696533203125,0.521728515625,-239.0,221.0,-81.0,102300.0,-8.0910005569458,0,0
5900.617995066276,0.7142333984375,-0.489959716796875,-0.00384521484375,-0.499755859375,0.1220703125,0.1220703125,0.0,0.4954833984375,-0.6966552734375,0.5213623046875,-239.0,221.0,-81.0,102300.0,-8.0910005569458,0,0
5900.622993066277,0.7142333984375,-0.489959716796875,-0.00384521484375,-0.499755859375,-0.06103515625,0.18310546875,-0.06103515625,0.49609375,-0.6973876953125,0.521240234375,-239.0,221.0,-81.0,102300.0,-8.0910005569458,0,0
5900.627993066277,0.7142333984375,-0.489959716796875,-0.00384521484375,-0.499755859375,0.06103515625,0.1220703125,0.06103515625,0.4937744140625,-0.695068359375,0.518310546875,-239.0,221.0,-81.0,102300.0,-8.0910005569458,0,0
5900.632993066277,0.7142333984375,-0.489959716796875,-0.00384521484375,-0.499755859375,-0.30517578125,0.244140625,0.06103515625,0.4962158203125,-0.6953125,0.5198974609375,-239.0,221.0,-81.0,102300.0,-8.0910005569458,0,0
5900.637994066277,0.7142333984375,-0.489959716796875,-0.00384521484375,-0.499755859375,0.0,0.42724609375,0.1220703125,0.494384765625,-0.6968994140625,0.5191650390625,-239.0,221.0,-81.0,102300.0,-8.0910005569458,0,0
5900.642996066277,0.7142333984375,-0.489959716796875,-0.00384521484375,-0.499755859375,0.244140625,0.244140625,0.06103515625,0.497314453125,-0.6966552734375,0.521484375,-239.0,221.0,-81.0,102300.0,-8.0910005569458,0,0
5900.647993066277,0.7142333984375,-0.489959716796875,-0.00384521484375,-0.499755859375,-0.1220703125,-0.18310546875,0.0,0.4935302734375,-0.69921875,0.5194091796875,-239.0,221.0,-81.0,102300.0,-8.0910005569458,0,0
