Time stamp(sec),quaternion_0,quaternion_1,quaternion_2,quaternion_3,roll_angular_rate,pitch_angular_rate,yaw_angular_rate,acc_X,acc_Y,acc_Z,mag_X,mag_Y,mag_Z,pressure,altitude
33.054997,0.0002465492289047688,3.784899672609754e-05,3.4260046959389e-05,0.9999842643737793,-0.1220703125,0.0,-0.1220703125,-0.0380859375,0.0902099609375,1.005859375,-155.0,80.0,-163.0,102058.0,-6.086000442504883,0,0
33.061994,0.0002465492289047688,3.784899672609754e-05,3.4260046959389e-05,0.9999842643737793,-0.3662109375,0.06103515625,-0.06103515625,-0.0374755859375,0.0921630859375,1.0045166015625,-155.0,80.0,-163.0,102058.0,-6.086000442504883,0,0
33.069019,0.0002465492289047688,3.784899672609754e-05,3.4260046959389e-05,0.9999842643737793,0.0,0.0,0.0,-0.0364990234375,0.0860595703125,1.005126953125,-155.0,80.0,-163.0,102058.0,-6.086000442504883,0,0
33.076003,0.0002465492289047688,3.784899672609754e-05,3.4260046959389e-05,0.9999842643737793,-0.06103515625,0.1220703125,-0.06103515625,-0.0384521484375,0.0894775390625,1.005615234375,-155.0,80.0,-163.0,102058.0,-6.086000442504883,0,0
33.083018,0.0002450808242429048,6.44233514321968e-05,1.9325358152855188e-05,0.999984085559845,0.1220703125,0.18310546875,-0.18310546875,-0.0391845703125,0.089599609375,1.0059814453125,-155.0,80.0,-163.0,102058.0,-6.086000442504883,0,0
33.089997,0.0002450808242429048,6.44233514321968e-05,1.9325358152855188e-05,0.999984085559845,-0.1220703125,0.06103515625,0.0,-0.0367431640625,0.0916748046875,1.0042724609375,-155.0,80.0,-163.0,102058.0,-6.086000442504883,0,0
33.096996,0.0002450808242429048,6.44233514321968e-05,1.9325358152855188e-05,0.999984085559845,0.1220703125,-0.18310546875,0.0,-0.0369873046875,0.091064453125,1.0042724609375,-155.0,80.0,-163.0,102058.0,-6.086000442504883,0,0
33.104016,0.0002450808242429048,6.44233514321968e-05,1.9325358152855188e-05,0.999984085559845,-0.06103515625,0.0,0.0,-0.033935546875,0.0921630859375,1.006103515625,-155.0,80.0,-163.0,102058.0,-6.086000442504883,0,0
33.110049,0.0002450808242429048,6.44233514321968e-05,1.9325358152855188e-05,0.999984085559845,-0.06103515625,0.0,0.0,-0.033935546875,0.0921630859375,1.006103515625,-155.0,80.0,-163.0,102058.0,-6.086000442504883,0,0
33.116998,0.0002450808242429048,6.44233514321968e-05,1.9325358152855188e-05,0.999984085559845,-0.06103515625,0.06103515625,-0.18310546875,-0.0367431640625,0.092041015625,1.0057373046875,-155.0,80.0,-163.0,102058.0,-6.086000442504883,0,0
33.124022,0.0002450808242429048,6.44233514321968e-05,1.9325358152855188e-05,0.999984085559845,-0.1220703125,0.18310546875,-0.30517578125,-0.0369873046875,0.0914306640625,1.004638671875,-155.0,80.0,-163.0,102058.0,-6.086000442504883,0,0
33.145,0.0004922736552543938,4.736331175081432e-05,2.7049032723880373e-05,0.9999825358390808,0.06103515625,0.1220703125,-0.1220703125,-0.0355224609375,0.0899658203125,1.0040283203125,-156.0,80.0,-164.0,102058.0,-6.086000442504883,0,0
33.152,0.0004922736552543938,4.736331175081432e-05,2.7049032723880373e-05,0.9999825358390808,0.0,-0.06103515625,-0.3662109375,-0.0380859375,0.091064453125,1.0054931640625,-156.0,80.0,-164.0,102058.0,-6.086000442504883,0,0
33.159021,0.0004922736552543938,4.736331175081432e-05,2.7049032723880373e-05,0.9999825358390808,-0.1220703125,-0.1220703125,-0.18310546875,-0.0361328125,0.0902099609375,1.00390625,-156.0,80.0,-164.0,102058.0,-6.086000442504883,0,0
33.166003,0.0004922736552543938,4.736331175081432e-05,2.7049032723880373e-05,0.9999825358390808,-0.30517578125,0.18310546875,-0.30517578125,-0.03759765625,0.0899658203125,1.0052490234375,-156.0,80.0,-164.0,102058.0,-6.086000442504883,0,0
33.173019,0.0004922736552543938,4.736331175081432e-05,2.7049032723880373e-05,0.9999825358390808,0.18310546875,0.1220703125,-0.30517578125,-0.034912109375,0.0933837890625,1.0068359375,-156.0,80.0,-164.0,102058.0,-6.086000442504883,0,0
33.179997,0.0004922736552543938,4.736331175081432e-05,2.7049032723880373e-05,0.9999825358390808,0.06103515625,0.06103515625,0.30517578125,-0.0361328125,0.0902099609375,1.0062255859375,-156.0,80.0,-164.0,102058.0,-6.086000442504883,0,0
33.186996,0.0004908053088001907,7.393767009489238e-05,1.211434391734656e-05,0.9999823570251465,-0.30517578125,0.1220703125,-0.244140625,-0.0389404296875,0.0916748046875,1.003173828125,-156.0,80.0,-164.0,102058.0,-6.086000442504883,0,0
33.194017,0.0004908053088001907,7.393767009489238e-05,1.211434391734656e-05,0.9999823570251465,-0.18310546875,0.06103515625,-0.06103515625,-0.035888671875,0.08984375,1.0040283203125,-156.0,80.0,-164.0,102058.0,-6.086000442504883,0,0
33.200051,0.0004908053088001907,7.393767009489238e-05,1.211434391734656e-05,0.9999823570251465,-0.18310546875,0.06103515625,-0.06103515625,-0.035888671875,0.08984375,1.0040283203125,-156.0,80.0,-164.0,102058.0,-6.086000442504883,0,0
33.206997,0.0004908053088001907,7.393767009489238e-05,1.211434391734656e-05,0.9999823570251465,0.0,0.06103515625,-0.3662109375,-0.0355224609375,0.0877685546875,1.0047607421875,-156.0,80.0,-164.0,102058.0,-6.086000442504883,0,0
33.214022,0.0004908053088001907,7.393767009489238e-05,1.211434391734656e-05,0.9999823570251465,-0.3662109375,0.18310546875,-0.3662109375,-0.0382080078125,0.091552734375,1.003662109375,-156.0,80.0,-164.0,102058.0,-6.086000442504883,0,0
33.221001,0.0005173889803700149,7.540636579506099e-05,1.1923288184334524e-05,0.9999972581863403,-0.06103515625,0.0,0.0,-0.0379638671875,0.0897216796875,1.0050048828125,-156.0,80.0,-164.0,102058.0,-6.086000442504883,0,0
33.228015,0.0005173889803700149,7.540636579506099e-05,1.1923288184334524e-05,0.9999972581863403,-0.3662109375,0.06103515625,-0.1220703125,-0.03564453125,0.088134765625,1.004638671875,-156.0,80.0,-164.0,102058.0,-6.086000442504883,0,0
33.234996,0.0007780752493999898,8.472962508676574e-05,3.2440448194392957e-06,0.999968945980072,-0.06103515625,-0.1220703125,-0.244140625,-0.0364990234375,0.0908203125,1.0062255859375,-158.0,81.0,-165.0,102058.0,-6.086000442504883,0,0
33.241995,0.0007780752493999898,8.472962508676574e-05,3.2440448194392957e-06,0.999968945980072,-0.30517578125,0.0,-0.244140625,-0.037841796875,0.0904541015625,1.0050048828125,-158.0,81.0,-165.0,102058.0,-6.086000442504883,0,0
33.24902,0.0007780752493999898,8.472962508676574e-05,3.2440448194392957e-06,0.999968945980072,-0.06103515625,0.0,-0.18310546875,-0.0380859375,0.0914306640625,1.00439453125,-158.0,81.0,-165.0,102058.0,-6.086000442504883,0,0
33.256003,0.0007795437122695148,5.815526674268767e-05,1.817873453546781e-05,0.9999691247940063,-0.06103515625,0.1220703125,-0.244140625,-0.03369140625,0.091064453125,1.0018310546875,-158.0,81.0,-165.0,102058.0,-6.086000442504883,0,0
33.263019,0.0007795437122695148,5.815526674268767e-05,1.817873453546781e-05,0.9999691247940063,-0.1220703125,0.06103515625,0.0,-0.035400390625,0.090087890625,1.0040283203125,-158.0,81.0,-165.0,102058.0,-6.086000442504883,0,0
33.269997,0.0007795437122695148,5.815526674268767e-05,1.817873453546781e-05,0.9999691247940063,-0.30517578125,-0.06103515625,0.0,-0.0369873046875,0.091064453125,1.0050048828125,-158.0,81.0,-165.0,102058.0,-6.086000442504883,0,0
33.276996,0.0007795437122695148,5.815526674268767e-05,1.817873453546781e-05,0.9999691247940063,0.244140625,0.1220703125,-0.1220703125,-0.03662109375,0.0914306640625,1.00341796875,-158.0,81.0,-165.0,102058.0,-6.086000442504883,0,0
33.284016,0.0007793526747263968,4.322430322645232e-05,-8.393762072955724e-06,0.999970555305481,-0.06103515625,-0.06103515625,0.0,-0.035400390625,0.09228515625,1.0042724609375,-158.0,81.0,-165.0,102058.0,-6.086000442504883,0,0
33.291001,0.0007793526747263968,4.322430322645232e-05,-8.393762072955724e-06,0.999970555305481,0.0,-0.06103515625,0.0,-0.035888671875,0.0897216796875,1.003173828125,-158.0,81.0,-165.0,102058.0,-6.086000442504883,0,0
33.297033,0.0007793526747263968,4.322430322645232e-05,-8.393762072955724e-06,0.999970555305481,0.0,-0.06103515625,0.0,-0.035888671875,0.0897216796875,1.003173828125,-158.0,81.0,-165.0,102058.0,-6.086000442504883,0,0
33.339019,0.001162714441306889,3.165553425787948e-05,-4.374729996925453e-06,0.9999755024909973,0.0,-0.1220703125,-0.18310546875,-0.03662109375,0.089111328125,1.003173828125,-158.0,80.0,-166.0,102058.0,-6.087000370025635,0,0
33.346003,0.001162714441306889,3.165553425787948e-05,-4.374729996925453e-06,0.9999755024909973,0.1220703125,0.0,-0.06103515625,-0.0369873046875,0.089111328125,1.0052490234375,-158.0,80.0,-166.0,102058.0,-6.087000370025635,0,0
33.353018,0.001162714441306889,3.165553425787948e-05,-4.374729996925453e-06,0.9999755024909973,-0.06103515625,0.244140625,-0.244140625,-0.0377197265625,0.0892333984375,1.0054931640625,-158.0,80.0,-166.0,102058.0,-6.087000370025635,0,0
33.359998,0.001162714441306889,3.165553425787948e-05,-4.374729996925453e-06,0.9999755024909973,0.1220703125,0.0,-0.06103515625,-0.0367431640625,0.090576171875,1.0047607421875,-158.0,80.0,-166.0,102058.0,-6.087000370025635,0,0
33.366996,0.001162714441306889,3.165553425787948e-05,-4.374729996925453e-06,0.9999755024909973,-0.06103515625,0.1220703125,-0.42724609375,-0.03662109375,0.091552734375,1.0042724609375,-158.0,80.0,-166.0,102058.0,-6.087000370025635,0,0
33.374017,0.001162523403763771,1.6722709915484302e-05,-3.094722706009634e-05,0.9999769926071167,0.30517578125,0.0,-0.1220703125,-0.0362548828125,0.0914306640625,1.0047607421875,-158.0,80.0,-166.0,102058.0,-6.087000370025635,0,0
33.381,0.001162523403763771,1.6722709915484302e-05,-3.094722706009634e-05,0.9999769926071167,0.0,0.0,-0.1220703125,-0.0367431640625,0.091796875,1.0064697265625,-158.0,80.0,-166.0,102058.0,-6.087000370025635,0,0
33.387033,0.001162523403763771,1.6722709915484302e-05,-3.094722706009634e-05,0.9999769926071167,0.0,0.0,-0.1220703125,-0.0367431640625,0.091796875,1.0064697265625,-158.0,80.0,-166.0,102058.0,-6.087000370025635,0,0
33.408015,0.001162523403763771,1.6722709915484302e-05,-3.094722706009634e-05,0.9999769926071167,-0.244140625,0.1220703125,-0.1220703125,-0.036376953125,0.0892333984375,1.00244140625,-158.0,80.0,-166.0,102058.0,-6.088000297546387,0,0
33.414996,0.001162523403763771,1.6722709915484302e-05,-3.094722706009634e-05,0.9999769926071167,0.0,-0.06103515625,-0.18310546875,-0.03759765625,0.0916748046875,1.004150390625,-158.0,80.0,-166.0,102058.0,-6.088000297546387,0,0
33.421995,0.001162523403763771,1.6722709915484302e-05,-3.094722706009634e-05,0.9999769926071167,-0.06103515625,0.06103515625,-0.1220703125,-0.03466796875,0.09228515625,1.005615234375,-158.0,80.0,-166.0,102058.0,-6.088000297546387,0,0
33.42902,0.001162523403763771,1.6722709915484302e-05,-3.094722706009634e-05,0.9999769926071167,-0.18310546875,0.1220703125,-0.06103515625,-0.0389404296875,0.090576171875,1.0050048828125,-157.0,81.0,-165.0,102058.0,-6.088000297546387,0,0
33.436003,0.0012985012726858258,7.2834850470826495e-06,-6.122436752775684e-05,0.9999850988388062,0.06103515625,0.30517578125,0.0,-0.039306640625,0.0928955078125,1.0057373046875,-157.0,81.0,-165.0,102058.0,-6.088000297546387,0,0
33.443018,0.0012985012726858258,7.2834850470826495e-06,-6.122436752775684e-05,0.9999850988388062,-0.30517578125,0.0,0.06103515625,-0.036376953125,0.091796875,1.0052490234375,-157.0,81.0,-165.0,102058.0,-6.088000297546387,0,0
33.449997,0.0012986923102289438,2.221444810857065e-05,-3.464814290055074e-05,0.9999836087226868,-0.1220703125,0.244140625,0.0,-0.0357666015625,0.0908203125,1.0029296875,-157.0,81.0,-165.0,102058.0,-6.088000297546387,0,0
33.456996,0.0012986923102289438,2.221444810857065e-05,-3.464814290055074e-05,0.9999836087226868,-0.1220703125,0.18310546875,-0.1220703125,-0.037841796875,0.0906982421875,1.0054931640625,-157.0,81.0,-165.0,102058.0,-6.088000297546387,0,0
33.464018,0.0012986923102289438,2.221444810857065e-05,-3.464814290055074e-05,0.9999836087226868,0.0,0.0,-0.244140625,-0.0361328125,0.09033203125,1.0035400390625,-157.0,81.0,-165.0,102058.0,-6.088000297546387,0,0
33.471,0.0012986923102289438,2.221444810857065e-05,-3.464814290055074e-05,0.9999836087226868,-0.1220703125,0.244140625,-0.06103515625,-0.0361328125,0.0916748046875,1.00439453125,-157.0,81.0,-165.0,102058.0,-6.088000297546387,0,0
33.478019,0.0012986923102289438,2.221444810857065e-05,-3.464814290055074e-05,0.9999836087226868,-0.1220703125,-0.06103515625,0.18310546875,-0.0369873046875,0.0921630859375,1.00439453125,-157.0,81.0,-165.0,102058.0,-6.088000297546387,0,0
33.484053,0.0012986923102289438,2.221444810857065e-05,-3.464814290055074e-05,0.9999836087226868,-0.1220703125,-0.06103515625,0.18310546875,-0.0369873046875,0.0921630859375,1.00439453125,-157.0,81.0,-165.0,102058.0,-6.088000297546387,0,0
33.491001,0.0012986923102289438,2.221444810857065e-05,-3.464814290055074e-05,0.9999836087226868,0.244140625,0.06103515625,-0.30517578125,-0.037353515625,0.09033203125,1.00341796875,-157.0,81.0,-165.0,102058.0,-6.088000297546387,0,0
33.498015,0.0012986923102289438,2.221444810857065e-05,-3.464814290055074e-05,0.9999836087226868,-0.1220703125,-0.06103515625,0.1220703125,-0.03662109375,0.0887451171875,1.0050048828125,-157.0,81.0,-165.0,102058.0,-6.088000297546387,0,0
33.505001,0.0012985012726858258,7.2834850470826495e-06,-6.122436752775684e-05,0.9999850988388062,0.244140625,-0.244140625,-0.1220703125,-0.0379638671875,0.0908203125,1.0037841796875,-157.0,81.0,-165.0,102058.0,-6.088000297546387,0,0
33.512,0.0012986923102289438,2.221444810857065e-05,-3.464814290055074e-05,0.9999836087226868,0.0,-0.1220703125,0.06103515625,-0.0380859375,0.0888671875,1.0042724609375,-157.0,81.0,-165.0,102058.0,-6.088000297546387,0,0
33.51902,0.0012986923102289438,2.221444810857065e-05,-3.464814290055074e-05,0.9999836087226868,-0.06103515625,0.18310546875,-0.244140625,-0.0377197265625,0.090576171875,1.0040283203125,-157.0,81.0,-165.0,102058.0,-6.088000297546387,0,0
33.526003,0.0012986923102289438,2.221444810857065e-05,-3.464814290055074e-05,0.9999836087226868,0.0,-0.06103515625,-0.18310546875,-0.0361328125,0.0897216796875,1.00341796875,-157.0,81.0,-165.0,102058.0,-6.088000297546387,0,0
33.533019,0.0012986923102289438,2.221444810857065e-05,-3.464814290055074e-05,0.9999836087226868,-0.244140625,0.1220703125,-0.18310546875,-0.035400390625,0.0911865234375,1.00439453125,-157.0,81.0,-164.0,102058.0,-6.088000297546387,0,0
33.539997,0.0014348315307870507,2.7705722459359095e-05,-3.83492952096276e-05,0.9999901652336121,0.1220703125,0.0,-0.48828125,-0.0369873046875,0.0916748046875,1.00439453125,-157.0,81.0,-164.0,102058.0,-6.088000297546387,0,0
33.546996,0.0014348315307870507,2.7705722459359095e-05,-3.83492952096276e-05,0.9999901652336121,0.0,0.1220703125,-0.30517578125,-0.0374755859375,0.0887451171875,1.0052490234375,-157.0,81.0,-164.0,102058.0,-6.088000297546387,0,0
33.554016,0.0014348315307870507,2.7705722459359095e-05,-3.83492952096276e-05,0.9999901652336121,-0.1220703125,0.18310546875,-0.42724609375,-0.0369873046875,0.09130859375,1.0037841796875,-157.0,81.0,-164.0,102058.0,-6.088000297546387,0,0
33.561001,0.0014348315307870507,2.7705722459359095e-05,-3.83492952096276e-05,0.9999901652336121,0.0,0.06103515625,-0.30517578125,-0.0391845703125,0.09033203125,1.0035400390625,-157.0,81.0,-164.0,102058.0,-6.088000297546387,0,0
33.581001,0.0014346404932439327,1.2774758033629041e-05,-6.49255161988549e-05,0.9999916553497314,-0.244140625,0.06103515625,0.0,-0.038330078125,0.092041015625,1.00341796875,-157.0,81.0,-164.0,102058.0,-6.088000297546387,0,0
33.588015,0.0014481041580438614,3.915806155418977e-05,-8.132470975397155e-05,0.9999648928642273,-0.42724609375,0.1220703125,0.06103515625,-0.0386962890625,0.091064453125,1.003173828125,-157.0,81.0,-164.0,102058.0,-6.088000297546387,0,0
33.594996,0.0014481041580438614,3.915806155418977e-05,-8.132470975397155e-05,0.9999648928642273,0.1220703125,0.18310546875,-0.1220703125,-0.037353515625,0.0919189453125,1.003662109375,-157.0,81.0,-164.0,102058.0,-6.088000297546387,0,0
33.601995,0.0014495725044980645,1.2583701391122304e-05,-6.63937462377362e-05,0.9999650716781616,0.0,-0.1220703125,0.0,-0.0360107421875,0.09326171875,1.0045166015625,-157.0,81.0,-164.0,102058.0,-6.088000297546387,0,0
33.609019,0.0014493814669549465,-2.3491243155149277e-06,-9.296624193666503e-05,0.9999665021896362,-0.06103515625,0.0,-0.18310546875,-0.0361328125,0.0914306640625,1.004638671875,-157.0,81.0,-164.0,102058.0,-6.089000225067139,0,0
33.616004,0.0014493814669549465,-2.3491243155149277e-06,-9.296624193666503e-05,0.9999665021896362,0.1220703125,0.06103515625,-0.06103515625,-0.036865234375,0.0908203125,1.0032958984375,-157.0,81.0,-164.0,102058.0,-6.089000225067139,0,0
33.623019,0.0014493814669549465,-2.3491243155149277e-06,-9.296624193666503e-05,0.9999665021896362,-0.18310546875,0.0,0.0,-0.036376953125,0.091796875,1.0047607421875,-157.0,81.0,-164.0,102058.0,-6.089000225067139,0,0
33.629997,0.0014493814669549465,-2.3491243155149277e-06,-9.296624193666503e-05,0.9999665021896362,0.0,0.1220703125,-0.06103515625,-0.0362548828125,0.091552734375,1.003662109375,-157.0,81.0,-163.0,102058.0,-6.089000225067139,0,0
33.636996,0.0015855504898354411,3.1421488984051393e-06,-9.666715777711943e-05,0.9999731183052063,0.06103515625,0.0,-0.06103515625,-0.0374755859375,0.091796875,1.0042724609375,-157.0,81.0,-163.0,102058.0,-6.089000225067139,0,0
33.644016,0.0015857415273785591,1.8074975741910748e-05,-7.00946620781906e-05,0.9999716877937317,0.0,0.06103515625,-0.3662109375,-0.0362548828125,0.0897216796875,1.00390625,-157.0,81.0,-163.0,102058.0,-6.089000225067139,0,0
33.651001,0.0015857415273785591,1.8074975741910748e-05,-7.00946620781906e-05,0.9999716877937317,-0.244140625,0.0,-0.244140625,-0.03564453125,0.0924072265625,1.00146484375,-157.0,81.0,-163.0,102058.0,-6.089000225067139,0,0
33.671022,0.0015855504898354411,3.1421488984051393e-06,-9.666715777711943e-05,0.9999731183052063,0.0,0.06103515625,-0.244140625,-0.03759765625,0.091064453125,1.00439453125,-157.0,81.0,-163.0,102058.0,-6.089000225067139,0,0
33.678015,0.0015855504898354411,3.1421488984051393e-06,-9.666715777711943e-05,0.9999731183052063,0.1220703125,0.06103515625,-0.1220703125,-0.0357666015625,0.0911865234375,1.005615234375,-157.0,81.0,-163.0,102058.0,-6.089000225067139,0,0
33.684996,0.0015855504898354411,3.1421488984051393e-06,-9.666715777711943e-05,0.9999731183052063,-0.244140625,-0.1220703125,0.06103515625,-0.0352783203125,0.0909423828125,1.0035400390625,-157.0,81.0,-163.0,102058.0,-6.089000225067139,0,0
33.691994,0.0015855504898354411,3.1421488984051393e-06,-9.666715777711943e-05,0.9999731183052063,-0.06103515625,0.06103515625,-0.244140625,-0.0384521484375,0.091064453125,1.0040283203125,-157.0,81.0,-163.0,102058.0,-6.089000225067139,0,0
33.69902,0.0015855504898354411,3.1421488984051393e-06,-9.666715777711943e-05,0.9999731183052063,0.06103515625,0.0,-0.244140625,-0.036865234375,0.0919189453125,1.0042724609375,-157.0,81.0,-163.0,102058.0,-6.089000225067139,0,0
33.706003,0.0015855504898354411,3.1421488984051393e-06,-9.666715777711943e-05,0.9999731183052063,-0.18310546875,0.06103515625,-0.18310546875,-0.0361328125,0.0909423828125,1.00439453125,-157.0,81.0,-163.0,102058.0,-6.089000225067139,0,0
33.713018,0.0015855504898354411,3.1421488984051393e-06,-9.666715777711943e-05,0.9999731183052063,0.06103515625,-0.18310546875,-0.06103515625,-0.03662109375,0.08935546875,1.004150390625,-157.0,81.0,-163.0,102058.0,-6.088000297546387,0,0
33.719997,0.0015855504898354411,3.1421488984051393e-06,-9.666715777711943e-05,0.9999731183052063,-0.06103515625,0.0,-0.30517578125,-0.036865234375,0.0904541015625,1.0052490234375,-157.0,81.0,-163.0,102058.0,-6.088000297546387,0,0
33.726996,0.0015855504898354411,3.1421488984051393e-06,-9.666715777711943e-05,0.9999731183052063,-0.1220703125,0.1220703125,-0.1220703125,-0.037353515625,0.0899658203125,1.0050048828125,-157.0,81.0,-163.0,102058.0,-6.088000297546387,0,0
33.734017,0.0015855504898354411,3.1421488984051393e-06,-9.666715777711943e-05,0.9999731183052063,0.0,0.06103515625,-0.1220703125,-0.0362548828125,0.09130859375,1.00439453125,-157.0,82.0,-164.0,102058.0,-6.088000297546387,0,0
33.741,0.001584082143381238,2.971650792460423e-05,-0.00011159812129335478,0.999972939491272,-0.244140625,0.1220703125,0.06103515625,-0.037841796875,0.0889892578125,1.0047607421875,-157.0,82.0,-164.0,102058.0,-6.088000297546387,0,0
33.748019,0.001584082143381238,2.971650792460423e-05,-0.00011159812129335478,0.999972939491272,-0.1220703125,0.0,-0.18310546875,-0.0374755859375,0.091064453125,1.0042724609375,-157.0,82.0,-164.0,102058.0,-6.088000297546387,0,0
33.754999,0.001584082143381238,2.971650792460423e-05,-0.00011159812129335478,0.999972939491272,0.1220703125,-0.1220703125,-0.30517578125,-0.037109375,0.0906982421875,1.0035400390625,-157.0,82.0,-164.0,102058.0,-6.088000297546387,0,0
33.761033,0.001584082143381238,2.971650792460423e-05,-0.00011159812129335478,0.999972939491272,0.1220703125,-0.1220703125,-0.30517578125,-0.037109375,0.0906982421875,1.0035400390625,-157.0,82.0,-164.0,102058.0,-6.088000297546387,0,0
33.768015,0.001584082143381238,2.971650792460423e-05,-0.00011159812129335478,0.999972939491272,-0.244140625,-0.244140625,0.0,-0.037841796875,0.09033203125,1.00390625,-157.0,82.0,-164.0,102058.0,-6.088000297546387,0,0
33.775,0.001584082143381238,2.971650792460423e-05,-0.00011159812129335478,0.999972939491272,-0.06103515625,0.0,-0.06103515625,-0.037841796875,0.08984375,1.0042724609375,-157.0,82.0,-164.0,102058.0,-6.088000297546387,0,0
33.782,0.001584082143381238,2.971650792460423e-05,-0.00011159812129335478,0.999972939491272,-0.1220703125,0.06103515625,-0.18310546875,-0.0357666015625,0.091796875,1.00537109375,-157.0,82.0,-164.0,102058.0,-6.088000297546387,0,0
33.789021,0.0015826137969270349,5.628900180454366e-05,-0.0001265328173758462,0.9999727606773376,0.0,-0.06103515625,0.0,-0.0364990234375,0.0904541015625,1.0050048828125,-157.0,82.0,-164.0,102058.0,-6.088000297546387,0,0
33.796003,0.0015826137969270349,5.628900180454366e-05,-0.0001265328173758462,0.9999727606773376,-0.1220703125,0.1220703125,-0.06103515625,-0.037109375,0.091796875,1.00390625,-157.0,82.0,-164.0,102058.0,-6.088000297546387,0,0
33.803018,0.0015826137969270349,5.628900180454366e-05,-0.0001265328173758462,0.9999727606773376,-0.244140625,0.06103515625,-0.18310546875,-0.0372314453125,0.088134765625,1.004150390625,-157.0,82.0,-164.0,102058.0,-6.088000297546387,0,0
33.809997,0.0015828048344701529,7.122183160390705e-05,-9.996031440095976e-05,0.999971330165863,0.1220703125,0.18310546875,0.0,-0.0355224609375,0.088623046875,1.004150390625,-157.0,82.0,-164.0,102058.0,-6.089000225067139,0,0
33.816996,0.0015828048344701529,7.122183160390705e-05,-9.996031440095976e-05,0.999971330165863,0.30517578125,-0.30517578125,-0.244140625,-0.037109375,0.0911865234375,1.0054931640625,-157.0,82.0,-164.0,102058.0,-6.089000225067139,0,0
33.824017,0.001584273180924356,4.464933226699941e-05,-8.502562559442595e-05,0.9999715089797974,-0.06103515625,-0.1220703125,-0.1220703125,-0.0364990234375,0.090576171875,1.0018310546875,-157.0,82.0,-164.0,102058.0,-6.089000225067139,0,0
33.844995,0.001584273180924356,4.464933226699941e-05,-8.502562559442595e-05,0.9999715089797974,-0.18310546875,0.06103515625,-0.1220703125,-0.038330078125,0.0908203125,1.00390625,-158.0,83.0,-165.0,102058.0,-6.089000225067139,0,0
33.851994,0.001584082143381238,2.971650792460423e-05,-0.00011159812129335478,0.999972939491272,0.06103515625,0.18310546875,-0.1220703125,-0.0377197265625,0.09326171875,1.00439453125,-158.0,83.0,-165.0,102058.0,-6.089000225067139,0,0
33.858026,0.001584082143381238,2.971650792460423e-05,-0.00011159812129335478,0.999972939491272,0.06103515625,0.18310546875,-0.1220703125,-0.0377197265625,0.09326171875,1.00439453125,-158.0,83.0,-165.0,102058.0,-6.089000225067139,0,0
33.864996,0.001584273180924356,4.464933226699941e-05,-8.502562559442595e-05,0.9999715089797974,0.0,0.18310546875,-0.18310546875,-0.03564453125,0.08935546875,1.0042724609375,-158.0,83.0,-165.0,102058.0,-6.089000225067139,0,0
33.871994,0.001584273180924356,4.464933226699941e-05,-8.502562559442595e-05,0.9999715089797974,-0.1220703125,-0.1220703125,-0.06103515625,-0.0360107421875,0.090087890625,1.00341796875,-158.0,83.0,-165.0,102058.0,-6.089000225067139,0,0
33.87902,0.001584082143381238,2.971650792460423e-05,-0.00011159812129335478,0.999972939491272,-0.1220703125,0.1220703125,-0.18310546875,-0.0386962890625,0.0906982421875,1.0048828125,-158.0,83.0,-165.0,102058.0,-6.089000225067139,0,0
33.886003,0.001584082143381238,2.971650792460423e-05,-0.00011159812129335478,0.999972939491272,-0.06103515625,0.1220703125,-0.18310546875,-0.0372314453125,0.091796875,1.005859375,-158.0,83.0,-165.0,102058.0,-6.089000225067139,0,0
33.893019,0.0015826137969270349,5.628900180454366e-05,-0.0001265328173758462,0.9999727606773376,-0.244140625,0.06103515625,-0.1220703125,-0.038330078125,0.09033203125,1.0037841796875,-158.0,83.0,-165.0,102058.0,-6.089000225067139,0,0
33.899997,0.0015826137969270349,5.628900180454366e-05,-0.0001265328173758462,0.9999727606773376,0.06103515625,0.244140625,0.18310546875,-0.0382080078125,0.0916748046875,1.0054931640625,-158.0,83.0,-165.0,102058.0,-6.089000225067139,0,0
33.906997,0.0015826137969270349,5.628900180454366e-05,-0.0001265328173758462,0.9999727606773376,-0.06103515625,0.1220703125,-0.1220703125,-0.0379638671875,0.09130859375,1.004150390625,-158.0,83.0,-165.0,102058.0,-6.089000225067139,0,0
33.928019,0.00158389110583812,1.4783680853724945e-05,-0.00013817062426824123,0.9999744296073914,-0.1220703125,-0.06103515625,-0.42724609375,-0.0364990234375,0.09130859375,1.00439453125,-158.0,83.0,-165.0,102058.0,-6.087000370025635,0,0
33.934995,0.00158389110583812,1.4783680853724945e-05,-0.00013817062426824123,0.9999744296073914,-0.18310546875,0.0,-0.06103515625,-0.037841796875,0.0906982421875,1.0064697265625,-158.0,83.0,-165.0,102058.0,-6.087000370025635,0,0
33.941995,0.00158389110583812,1.4783680853724945e-05,-0.00013817062426824123,0.9999744296073914,0.06103515625,0.0,-0.06103515625,-0.035400390625,0.09228515625,1.0045166015625,-158.0,83.0,-165.0,102058.0,-6.087000370025635,0,0
33.948026,0.00158389110583812,1.4783680853724945e-05,-0.00013817062426824123,0.9999744296073914,0.06103515625,0.0,-0.06103515625,-0.035400390625,0.09228515625,1.0045166015625,-158.0,83.0,-165.0,102058.0,-6.087000370025635,0,0
33.954996,0.00158389110583812,1.4783680853724945e-05,-0.00013817062426824123,0.9999744296073914,-0.06103515625,-0.06103515625,-0.18310546875,-0.0362548828125,0.091552734375,1.0050048828125,-158.0,83.0,-165.0,102058.0,-6.087000370025635,0,0
33.961994,0.00158389110583812,1.4783680853724945e-05,-0.00013817062426824123,0.9999744296073914,-0.18310546875,-0.06103515625,-0.18310546875,-0.03759765625,0.091796875,1.0032958984375,-158.0,83.0,-165.0,102058.0,-6.087000370025635,0,0
33.969019,0.00158389110583812,1.4783680853724945e-05,-0.00013817062426824123,0.9999744296073914,-0.30517578125,0.244140625,-0.18310546875,-0.035888671875,0.089599609375,1.00390625,-158.0,83.0,-165.0,102058.0,-6.087000370025635,0,0
33.976003,0.0015824227593839169,4.135803828830831e-05,-0.00015310531307477504,0.999974250793457,-0.18310546875,-0.06103515625,-0.244140625,-0.0374755859375,0.0911865234375,1.004638671875,-158.0,83.0,-165.0,102058.0,-6.087000370025635,0,0
33.983019,0.0015824227593839169,4.135803828830831e-05,-0.00015310531307477504,0.999974250793457,0.06103515625,0.0,-0.1220703125,-0.0369873046875,0.09033203125,1.004638671875,-158.0,83.0,-165.0,102058.0,-6.087000370025635,0,0
33.989998,0.00158389110583812,1.4783680853724945e-05,-0.00013817062426824123,0.9999744296073914,-0.1220703125,0.18310546875,-0.18310546875,-0.0352783203125,0.09033203125,1.001953125,-158.0,83.0,-165.0,102058.0,-6.087000370025635,0,0
33.996996,0.001584082143381238,2.971650792460423e-05,-0.00011159812129335478,0.999972939491272,-0.06103515625,0.1220703125,-0.18310546875,-0.0335693359375,0.091796875,1.0045166015625,-158.0,83.0,-165.0,102058.0,-6.087000370025635,0,0
34.018019,0.001584082143381238,2.971650792460423e-05,-0.00011159812129335478,0.999972939491272,-0.1220703125,0.1220703125,-0.06103515625,-0.0384521484375,0.0894775390625,1.00341796875,-158.0,83.0,-165.0,102058.0,-6.087000370025635,0,0
34.024995,0.001584082143381238,2.971650792460423e-05,-0.00011159812129335478,0.999972939491272,0.0,0.0,-0.1220703125,-0.0372314453125,0.0909423828125,1.004150390625,-158.0,83.0,-165.0,102058.0,-6.087000370025635,0,0
34.031995,0.001584082143381238,2.971650792460423e-05,-0.00011159812129335478,0.999972939491272,0.244140625,0.30517578125,-0.06103515625,-0.038330078125,0.091064453125,1.0057373046875,-157.0,83.0,-165.0,102058.0,-6.087000370025635,0,0
34.03902,0.00158389110583812,1.4783680853724945e-05,-0.00013817062426824123,0.9999744296073914,0.0,0.06103515625,0.06103515625,-0.0382080078125,0.091552734375,1.0037841796875,-157.0,83.0,-165.0,102058.0,-6.087000370025635,0,0
34.045056,0.00158389110583812,1.4783680853724945e-05,-0.00013817062426824123,0.9999744296073914,0.0,0.06103515625,0.06103515625,-0.0382080078125,0.091552734375,1.0037841796875,-157.0,83.0,-165.0,102058.0,-6.087000370025635,0,0
34.051999,0.0015826137969270349,5.628900180454366e-05,-0.0001265328173758462,0.9999727606773376,0.06103515625,-0.06103515625,0.0,-0.03857421875,0.088623046875,1.005126953125,-157.0,83.0,-165.0,102058.0,-6.087000370025635,0,0
34.05902,0.0015826137969270349,5.628900180454366e-05,-0.0001265328173758462,0.9999727606773376,-0.18310546875,0.0,0.0,-0.037841796875,0.0894775390625,1.003662109375,-157.0,83.0,-165.0,102058.0,-6.087000370025635,0,0
34.066003,0.0015826137969270349,5.628900180454366e-05,-0.0001265328173758462,0.9999727606773376,-0.1220703125,0.244140625,-0.3662109375,-0.03759765625,0.091552734375,1.0042724609375,-157.0,83.0,-165.0,102058.0,-6.087000370025635,0,0
34.073018,0.00158114533405751,8.286336378660053e-05,-0.00014146378089208156,0.9999725818634033,0.0,-0.06103515625,-0.244140625,-0.0377197265625,0.090576171875,1.0035400390625,-157.0,83.0,-165.0,102058.0,-6.087000370025635,0,0
34.079998,0.00158114533405751,8.286336378660053e-05,-0.00014146378089208156,0.9999725818634033,-0.30517578125,0.1220703125,0.06103515625,-0.0382080078125,0.091552734375,1.004150390625,-157.0,83.0,-165.0,102058.0,-6.087000370025635,0,0
34.101,0.0015824227593839169,4.135803828830831e-05,-0.00015310531307477504,0.999974250793457,0.1220703125,0.0,-0.18310546875,-0.0350341796875,0.090576171875,1.002685546875,-157.0,83.0,-165.0,102058.0,-6.087000370025635,0,0
34.108019,0.0015824227593839169,4.135803828830831e-05,-0.00015310531307477504,0.999974250793457,-0.1220703125,0.1220703125,-0.1220703125,-0.036865234375,0.091064453125,1.006591796875,-157.0,83.0,-165.0,102058.0,-6.089000225067139,0,0
34.114999,0.0015824227593839169,4.135803828830831e-05,-0.00015310531307477504,0.999974250793457,-0.244140625,0.06103515625,-0.06103515625,-0.0367431640625,0.0904541015625,1.0045166015625,-157.0,83.0,-165.0,102058.0,-6.089000225067139,0,0
34.121995,0.0015826137969270349,5.628900180454366e-05,-0.0001265328173758462,0.9999727606773376,-0.1220703125,0.06103515625,-0.18310546875,-0.034423828125,0.0902099609375,1.0032958984375,-157.0,83.0,-165.0,102058.0,-6.089000225067139,0,0
34.129019,0.0015826137969270349,5.628900180454366e-05,-0.0001265328173758462,0.9999727606773376,-0.18310546875,-0.06103515625,-0.1220703125,-0.0390625,0.0919189453125,1.0048828125,-156.0,82.0,-165.0,102058.0,-6.089000225067139,0,0
34.135051,0.0015826137969270349,5.628900180454366e-05,-0.0001265328173758462,0.9999727606773376,-0.18310546875,-0.06103515625,-0.1220703125,-0.0390625,0.0919189453125,1.0048828125,-156.0,82.0,-165.0,102058.0,-6.089000225067139,0,0
34.141994,0.0015824227593839169,4.135803828830831e-05,-0.00015310531307477504,0.999974250793457,0.1220703125,0.18310546875,0.0,-0.0364990234375,0.0914306640625,1.0040283203125,-156.0,82.0,-165.0,102058.0,-6.089000225067139,0,0
34.14902,0.0015826137969270349,5.628900180454366e-05,-0.0001265328173758462,0.9999727606773376,-0.1220703125,0.0,-0.18310546875,-0.0355224609375,0.0904541015625,1.004638671875,-156.0,82.0,-165.0,102058.0,-6.089000225067139,0,0
34.156003,0.001584082143381238,2.971650792460423e-05,-0.00011159812129335478,0.999972939491272,0.0,-0.06103515625,-0.1220703125,-0.0361328125,0.092041015625,1.0042724609375,-156.0,82.0,-165.0,102058.0,-6.089000225067139,0,0
34.163018,0.001584082143381238,2.971650792460423e-05,-0.00011159812129335478,0.999972939491272,-0.06103515625,0.0,0.06103515625,-0.0350341796875,0.0906982421875,1.0048828125,-156.0,82.0,-165.0,102058.0,-6.089000225067139,0,0
34.169997,0.00158389110583812,1.4783680853724945e-05,-0.00013817062426824123,0.9999744296073914,-0.06103515625,0.244140625,0.0,-0.0364990234375,0.091796875,1.003173828125,-156.0,82.0,-165.0,102058.0,-6.089000225067139,0,0
34.176996,0.001584082143381238,2.971650792460423e-05,-0.00011159812129335478,0.999972939491272,0.1220703125,0.1220703125,-0.1220703125,-0.035888671875,0.0904541015625,1.0052490234375,-156.0,82.0,-165.0,102058.0,-6.089000225067139,0,0
34.184017,0.00158389110583812,1.4783680853724945e-05,-0.00013817062426824123,0.9999744296073914,-0.1220703125,0.06103515625,-0.18310546875,-0.036376953125,0.0916748046875,1.0028076171875,-156.0,82.0,-165.0,102058.0,-6.089000225067139,0,0
34.191,0.001584082143381238,2.971650792460423e-05,-0.00011159812129335478,0.999972939491272,-0.244140625,0.18310546875,0.0,-0.0360107421875,0.0906982421875,1.004638671875,-156.0,82.0,-165.0,102058.0,-6.089000225067139,0,0
34.198019,0.001584082143381238,2.971650792460423e-05,-0.00011159812129335478,0.999972939491272,-0.06103515625,-0.18310546875,0.0,-0.036376953125,0.0892333984375,1.0029296875,-156.0,82.0,-165.0,102058.0,-6.089000225067139,0,0
34.204994,0.001584082143381238,2.971650792460423e-05,-0.00011159812129335478,0.999972939491272,0.1220703125,0.1220703125,-0.1220703125,-0.03759765625,0.088623046875,1.00244140625,-156.0,82.0,-165.0,102058.0,-6.089000225067139,0,0
34.211994,0.001584082143381238,2.971650792460423e-05,-0.00011159812129335478,0.999972939491272,-0.3662109375,0.0,-0.244140625,-0.036865234375,0.09130859375,1.003662109375,-156.0,82.0,-165.0,102058.0,-6.089000225067139,0,0
34.219015,0.001584082143381238,2.971650792460423e-05,-0.00011159812129335478,0.999972939491272,0.06103515625,0.1220703125,0.244140625,-0.0355224609375,0.087890625,1.0023193359375,-156.0,82.0,-165.0,102058.0,-6.089000225067139,0,0
34.225998,0.001584082143381238,2.971650792460423e-05,-0.00011159812129335478,0.999972939491272,-0.06103515625,0.0,-0.244140625,-0.036865234375,0.0909423828125,1.002197265625,-156.0,82.0,-165.0,102058.0,-6.089000225067139,0,0
34.23203,0.001584082143381238,2.971650792460423e-05,-0.00011159812129335478,0.999972939491272,-0.06103515625,0.0,-0.244140625,-0.036865234375,0.0909423828125,1.002197265625,-156.0,82.0,-165.0,102058.0,-6.089000225067139,0,0
34.239019,0.001584082143381238,2.971650792460423e-05,-0.00011159812129335478,0.999972939491272,0.06103515625,-0.06103515625,0.0,-0.03759765625,0.091552734375,1.0030517578125,-156.0,83.0,-164.0,102058.0,-6.089000225067139,0,0
34.246003,0.0015855504898354411,3.1421488984051393e-06,-9.666715777711943e-05,0.9999731183052063,0.06103515625,0.06103515625,-0.06103515625,-0.034423828125,0.0916748046875,1.004638671875,-156.0,83.0,-164.0,102058.0,-6.089000225067139,0,0
34.253019,0.0015855504898354411,3.1421488984051393e-06,-9.666715777711943e-05,0.9999731183052063,-0.06103515625,-0.18310546875,-0.30517578125,-0.0361328125,0.0924072265625,1.002685546875,-156.0,83.0,-164.0,102058.0,-6.089000225067139,0,0
34.274017,0.0015855504898354411,3.1421488984051393e-06,-9.666715777711943e-05,0.9999731183052063,-0.18310546875,0.0,-0.18310546875,-0.0367431640625,0.0916748046875,1.001708984375,-156.0,83.0,-164.0,102058.0,-6.089000225067139,0,0
34.281002,0.0015855504898354411,3.1421488984051393e-06,-9.666715777711943e-05,0.9999731183052063,-0.06103515625,0.244140625,0.0,-0.034912109375,0.0902099609375,1.001953125,-156.0,83.0,-164.0,102058.0,-6.089000225067139,0,0
34.288019,0.0015855504898354411,3.1421488984051393e-06,-9.666715777711943e-05,0.9999731183052063,-0.06103515625,0.18310546875,-0.06103515625,-0.0372314453125,0.092041015625,1.0048828125,-156.0,83.0,-164.0,102058.0,-6.089000225067139,0,0
34.294995,0.0015855504898354411,3.1421488984051393e-06,-9.666715777711943e-05,0.9999731183052063,-0.3662109375,-0.06103515625,-0.1220703125,-0.0352783203125,0.09033203125,1.004150390625,-156.0,83.0,-164.0,102058.0,-6.089000225067139,0,0
34.301994,0.001587018952704966,-2.3432208763551898e-05,-8.173619426088408e-05,0.9999733567237854,-0.06103515625,0.30517578125,-0.18310546875,-0.035400390625,0.09130859375,1.0025634765625,-156.0,83.0,-164.0,102058.0,-6.089000225067139,0,0
34.309015,0.0015855504898354411,3.1421488984051393e-06,-9.666715777711943e-05,0.9999731183052063,0.0,-0.1220703125,-0.1220703125,-0.0361328125,0.089599609375,1.0054931640625,-156.0,83.0,-164.0,102058.0,-6.087000370025635,0,0
34.315997,0.0015855504898354411,3.1421488984051393e-06,-9.666715777711943e-05,0.9999731183052063,-0.18310546875,0.1220703125,-0.1220703125,-0.0364990234375,0.0892333984375,1.003173828125,-156.0,83.0,-164.0,102058.0,-6.087000370025635,0,0
34.32203,0.0015855504898354411,3.1421488984051393e-06,-9.666715777711943e-05,0.9999731183052063,-0.18310546875,0.1220703125,-0.1220703125,-0.0364990234375,0.0892333984375,1.003173828125,-156.0,83.0,-164.0,102058.0,-6.087000370025635,0,0
34.32902,0.0015855504898354411,3.1421488984051393e-06,-9.666715777711943e-05,0.9999731183052063,-0.06103515625,-0.06103515625,0.06103515625,-0.03759765625,0.09130859375,1.0037841796875,-157.0,82.0,-163.0,102058.0,-6.087000370025635,0,0
34.336003,0.0015855504898354411,3.1421488984051393e-06,-9.666715777711943e-05,0.9999731183052063,0.06103515625,-0.1220703125,-0.244140625,-0.035888671875,0.08984375,1.0048828125,-157.0,82.0,-163.0,102058.0,-6.087000370025635,0,0
34.343019,0.0015855504898354411,3.1421488984051393e-06,-9.666715777711943e-05,0.9999731183052063,-0.18310546875,0.1220703125,-0.18310546875,-0.0355224609375,0.0909423828125,1.0037841796875,-157.0,82.0,-163.0,102058.0,-6.087000370025635,0,0
34.364017,0.0015855504898354411,3.1421488984051393e-06,-9.666715777711943e-05,0.9999731183052063,0.06103515625,0.1220703125,-0.3662109375,-0.038818359375,0.0926513671875,1.0035400390625,-157.0,82.0,-163.0,102058.0,-6.087000370025635,0,0
34.371001,0.0015855504898354411,3.1421488984051393e-06,-9.666715777711943e-05,0.9999731183052063,-0.1220703125,-0.1220703125,-0.1220703125,-0.03759765625,0.093994140625,1.00244140625,-157.0,82.0,-163.0,102058.0,-6.087000370025635,0,0
34.378019,0.0015855504898354411,3.1421488984051393e-06,-9.666715777711943e-05,0.9999731183052063,0.1220703125,0.1220703125,0.06103515625,-0.037353515625,0.08984375,1.0045166015625,-157.0,82.0,-163.0,102058.0,-6.087000370025635,0,0
34.385,0.00158389110583812,1.4783680853724945e-05,-0.00013817062426824123,0.9999744296073914,-0.06103515625,-0.06103515625,-0.06103515625,-0.0382080078125,0.09228515625,1.0037841796875,-157.0,82.0,-163.0,102058.0,-6.087000370025635,0,0
34.391995,0.0015853594522923231,-1.1788814845203888e-05,-0.00012323966075200588,0.9999746084213257,0.06103515625,-0.1220703125,-0.06103515625,-0.035888671875,0.0926513671875,1.0035400390625,-157.0,82.0,-163.0,102058.0,-6.087000370025635,0,0
34.39902,0.0015853594522923231,-1.1788814845203888e-05,-0.00012323966075200588,0.9999746084213257,0.1220703125,0.0,-0.06103515625,-0.038818359375,0.0924072265625,1.0037841796875,-157.0,82.0,-163.0,102058.0,-6.087000370025635,0,0
34.405999,0.0015853594522923231,-1.1788814845203888e-05,-0.00012323966075200588,0.9999746084213257,-0.06103515625,0.06103515625,0.1220703125,-0.035888671875,0.0908203125,1.0037841796875,-157.0,82.0,-163.0,102058.0,-6.087000370025635,0,0
34.413018,0.0015851684147492051,-2.672164009709377e-05,-0.00014981588174123317,0.9999760389328003,0.0,0.0,-0.30517578125,-0.0362548828125,0.0911865234375,1.0035400390625,-157.0,82.0,-163.0,102058.0,-6.087000370025635,0,0
34.419052,0.0015851684147492051,-2.672164009709377e-05,-0.00014981588174123317,0.9999760389328003,0.0,0.0,-0.30517578125,-0.0362548828125,0.0911865234375,1.0035400390625,-157.0,82.0,-163.0,102058.0,-6.087000370025635,0,0
34.426003,0.0015851684147492051,-2.672164009709377e-05,-0.00014981588174123317,0.9999760389328003,0.0,0.06103515625,-0.06103515625,-0.035400390625,0.0919189453125,1.0025634765625,-157.0,82.0,-162.0,102058.0,-6.087000370025635,0,0
34.433018,0.0015851684147492051,-2.672164009709377e-05,-0.00014981588174123317,0.9999760389328003,0.0,0.06103515625,-0.06103515625,-0.0362548828125,0.0908203125,1.0032958984375,-157.0,82.0,-162.0,102058.0,-6.087000370025635,0,0
34.439998,0.0015851684147492051,-2.672164009709377e-05,-0.00014981588174123317,0.9999760389328003,-0.1220703125,0.0,-0.30517578125,-0.03759765625,0.0916748046875,1.004638671875,-157.0,82.0,-162.0,102058.0,-6.087000370025635,0,0
34.446996,0.0015851684147492051,-2.672164009709377e-05,-0.00014981588174123317,0.9999760389328003,0.1220703125,-0.1220703125,0.244140625,-0.0372314453125,0.092529296875,1.004638671875,-157.0,82.0,-162.0,102058.0,-6.087000370025635,0,0
34.454016,0.00158663687761873,-5.3296000260161236e-05,-0.00013488491822499782,0.9999762773513794,0.06103515625,0.06103515625,-0.30517578125,-0.0340576171875,0.0908203125,1.0029296875,-157.0,82.0,-162.0,102058.0,-6.087000370025635,0,0
34.461,0.0015851684147492051,-2.672164009709377e-05,-0.00014981588174123317,0.9999760389328003,-0.1220703125,0.06103515625,-0.06103515625,-0.0380859375,0.092529296875,1.0032958984375,-157.0,82.0,-162.0,102058.0,-6.087000370025635,0,0
34.468019,0.0015851684147492051,-2.672164009709377e-05,-0.00014981588174123317,0.9999760389328003,0.0,0.06103515625,-0.18310546875,-0.037109375,0.0904541015625,1.00341796875,-157.0,82.0,-162.0,102058.0,-6.087000370025635,0,0
34.474995,0.0015851684147492051,-2.672164009709377e-05,-0.00014981588174123317,0.9999760389328003,-0.06103515625,0.0,-0.1220703125,-0.035400390625,0.090576171875,1.005126953125,-157.0,82.0,-162.0,102058.0,-6.087000370025635,0,0
34.481994,0.0015851684147492051,-2.672164009709377e-05,-0.00014981588174123317,0.9999760389328003,0.18310546875,0.06103515625,-0.06103515625,-0.0377197265625,0.09130859375,1.0040283203125,-157.0,82.0,-162.0,102058.0,-6.087000370025635,0,0
34.489015,0.0015851684147492051,-2.672164009709377e-05,-0.00014981588174123317,0.9999760389328003,-0.18310546875,0.0,0.06103515625,-0.0362548828125,0.089599609375,1.003662109375,-157.0,82.0,-162.0,102058.0,-6.087000370025635,0,0
34.495998,0.0015851684147492051,-2.672164009709377e-05,-0.00014981588174123317,0.9999760389328003,-0.244140625,0.06103515625,0.0,-0.03515625,0.0902099609375,1.0037841796875,-157.0,82.0,-162.0,102058.0,-6.087000370025635,0,0
34.503018,0.0015851684147492051,-2.672164009709377e-05,-0.00014981588174123317,0.9999760389328003,-0.06103515625,-0.06103515625,-0.06103515625,-0.035888671875,0.0921630859375,1.0035400390625,-157.0,82.0,-162.0,102058.0,-6.087000370025635,0,0
34.50905,0.0015851684147492051,-2.672164009709377e-05,-0.00014981588174123317,0.9999760389328003,-0.06103515625,-0.06103515625,-0.06103515625,-0.035888671875,0.0921630859375,1.0035400390625,-157.0,82.0,-162.0,102058.0,-6.087000370025635,0,0
34.516003,0.0015851684147492051,-2.672164009709377e-05,-0.00014981588174123317,0.9999760389328003,0.244140625,0.06103515625,-0.42724609375,-0.0362548828125,0.0909423828125,1.0035400390625,-157.0,82.0,-162.0,102058.0,-6.088000297546387,0,0
34.536997,0.00158663687761873,-5.3296000260161236e-05,-0.00013488491822499782,0.9999762773513794,-0.06103515625,-0.1220703125,0.0,-0.038330078125,0.0911865234375,1.00390625,-157.0,82.0,-163.0,102058.0,-6.088000297546387,0,0
34.544017,0.00158663687761873,-5.3296000260161236e-05,-0.00013488491822499782,0.9999762773513794,-0.30517578125,0.0,-0.1220703125,-0.037353515625,0.0941162109375,1.0028076171875,-157.0,82.0,-163.0,102058.0,-6.088000297546387,0,0
34.551,0.00158663687761873,-5.3296000260161236e-05,-0.00013488491822499782,0.9999762773513794,0.42724609375,-0.1220703125,-0.18310546875,-0.0379638671875,0.0906982421875,1.00390625,-157.0,82.0,-163.0,102058.0,-6.088000297546387,0,0
34.558019,0.00158663687761873,-5.3296000260161236e-05,-0.00013488491822499782,0.9999762773513794,-0.06103515625,0.0,0.0,-0.0399169921875,0.092529296875,1.003662109375,-157.0,82.0,-163.0,102058.0,-6.088000297546387,0,0
34.564995,0.001586445840075612,-6.822696013841778e-05,-0.00016145741392392665,0.9999777674674988,-0.1220703125,0.1220703125,-0.1220703125,-0.0367431640625,0.0906982421875,1.00390625,-157.0,82.0,-163.0,102058.0,-6.088000297546387,0,0
34.571994,0.001586445840075612,-6.822696013841778e-05,-0.00016145741392392665,0.9999777674674988,-0.06103515625,0.0,-0.18310546875,-0.037109375,0.0924072265625,1.003662109375,-157.0,82.0,-163.0,102058.0,-6.088000297546387,0,0
34.579015,0.001586445840075612,-6.822696013841778e-05,-0.00016145741392392665,0.9999777674674988,-0.18310546875,-0.06103515625,-0.06103515625,-0.03662109375,0.091796875,1.0040283203125,-157.0,82.0,-163.0,102058.0,-6.088000297546387,0,0
34.585998,0.001586445840075612,-6.822696013841778e-05,-0.00016145741392392665,0.9999777674674988,0.0,0.1220703125,-0.06103515625,-0.037109375,0.0914306640625,1.0059814453125,-157.0,82.0,-163.0,102058.0,-6.088000297546387,0,0
34.593018,0.0015849773772060871,-4.1654468077467754e-05,-0.000176388377440162,0.9999775290489197,0.1220703125,-0.06103515625,-0.1220703125,-0.0372314453125,0.089599609375,1.0042724609375,-157.0,82.0,-163.0,102058.0,-6.088000297546387,0,0
34.59905,0.0015849773772060871,-4.1654468077467754e-05,-0.000176388377440162,0.9999775290489197,0.1220703125,-0.06103515625,-0.1220703125,-0.0372314453125,0.089599609375,1.0042724609375,-157.0,82.0,-163.0,102058.0,-6.088000297546387,0,0
34.606004,0.001586445840075612,-6.822696013841778e-05,-0.00016145741392392665,0.9999777674674988,-0.06103515625,0.18310546875,0.0,-0.035888671875,0.091796875,1.00390625,-157.0,82.0,-163.0,102058.0,-6.088000297546387,0,0
34.626996,0.001586445840075612,-6.822696013841778e-05,-0.00016145741392392665,0.9999777674674988,0.0,-0.1220703125,-0.06103515625,-0.0364990234375,0.0889892578125,1.0035400390625,-157.0,82.0,-162.0,102058.0,-6.088000297546387,0,0
34.634017,0.0015849773772060871,-4.1654468077467754e-05,-0.000176388377440162,0.9999775290489197,0.0,0.18310546875,-0.18310546875,-0.0390625,0.089599609375,1.002685546875,-157.0,82.0,-162.0,102058.0,-6.088000297546387,0,0
34.641,0.0015851684147492051,-2.672164009709377e-05,-0.00014981588174123317,0.9999760389328003,0.0,0.3662109375,-0.06103515625,-0.0357666015625,0.0889892578125,1.003662109375,-157.0,82.0,-162.0,102058.0,-6.088000297546387,0,0
34.648019,0.0015851684147492051,-2.672164009709377e-05,-0.00014981588174123317,0.9999760389328003,-0.244140625,-0.1220703125,-0.06103515625,-0.036865234375,0.0909423828125,1.0029296875,-157.0,82.0,-162.0,102058.0,-6.088000297546387,0,0
34.654999,0.0015851684147492051,-2.672164009709377e-05,-0.00014981588174123317,0.9999760389328003,-0.06103515625,0.0,-0.18310546875,-0.0362548828125,0.0894775390625,1.0029296875,-157.0,82.0,-162.0,102058.0,-6.088000297546387,0,0
34.661996,0.0015851684147492051,-2.672164009709377e-05,-0.00014981588174123317,0.9999760389328003,-0.06103515625,0.0,0.06103515625,-0.038330078125,0.0936279296875,1.0040283203125,-157.0,82.0,-162.0,102058.0,-6.088000297546387,0,0
34.669021,0.0015851684147492051,-2.672164009709377e-05,-0.00014981588174123317,0.9999760389328003,-0.244140625,-0.06103515625,-0.244140625,-0.036376953125,0.0894775390625,1.0045166015625,-157.0,82.0,-162.0,102058.0,-6.088000297546387,0,0
34.675999,0.0015851684147492051,-2.672164009709377e-05,-0.00014981588174123317,0.9999760389328003,0.244140625,-0.06103515625,-0.1220703125,-0.0379638671875,0.08984375,1.0037841796875,-157.0,82.0,-162.0,102058.0,-6.088000297546387,0,0
34.683018,0.0015851684147492051,-2.672164009709377e-05,-0.00014981588174123317,0.9999760389328003,-0.1220703125,-0.06103515625,-0.1220703125,-0.0355224609375,0.091552734375,1.0050048828125,-157.0,82.0,-162.0,102058.0,-6.088000297546387,0,0
34.689996,0.00158663687761873,-5.3296000260161236e-05,-0.00013488491822499782,0.9999762773513794,-0.18310546875,0.0,-0.1220703125,-0.033447265625,0.0909423828125,1.0045166015625,-157.0,82.0,-162.0,102058.0,-6.088000297546387,0,0
34.696029,0.00158663687761873,-5.3296000260161236e-05,-0.00013488491822499782,0.9999762773513794,-0.18310546875,0.0,-0.1220703125,-0.033447265625,0.0909423828125,1.0045166015625,-157.0,82.0,-162.0,102058.0,-6.088000297546387,0,0
34.703019,0.00158663687761873,-5.3296000260161236e-05,-0.00013488491822499782,0.9999762773513794,-0.244140625,0.0,0.0,-0.03515625,0.0911865234375,1.005126953125,-157.0,82.0,-162.0,102058.0,-6.088000297546387,0,0
34.709998,0.00158663687761873,-5.3296000260161236e-05,-0.00013488491822499782,0.9999762773513794,0.0,0.06103515625,0.1220703125,-0.0360107421875,0.0904541015625,1.0035400390625,-157.0,82.0,-162.0,102058.0,-6.088000297546387,0,0
34.716996,0.00158663687761873,-5.3296000260161236e-05,-0.00013488491822499782,0.9999762773513794,-0.06103515625,0.06103515625,-0.30517578125,-0.037353515625,0.0921630859375,1.00390625,-157.0,82.0,-162.0,102058.0,-6.088000297546387,0,0
34.724016,0.00158663687761873,-5.3296000260161236e-05,-0.00013488491822499782,0.9999762773513794,0.1220703125,0.244140625,-0.1220703125,-0.0357666015625,0.0902099609375,1.00439453125,-157.0,82.0,-162.0,102058.0,-6.088000297546387,0,0
34.731001,0.00158663687761873,-5.3296000260161236e-05,-0.00013488491822499782,0.9999762773513794,0.0,0.1220703125,-0.18310546875,-0.0362548828125,0.0921630859375,1.0037841796875,-157.0,82.0,-162.0,102058.0,-6.088000297546387,0,0
34.738019,0.001586827915161848,-3.8363174098776653e-05,-0.00010830868995981291,0.9999748468399048,0.0,-0.244140625,-0.06103515625,-0.0360107421875,0.0894775390625,1.00341796875,-157.0,82.0,-162.0,102058.0,-6.088000297546387,0,0
34.744994,0.001586827915161848,-3.8363174098776653e-05,-0.00010830868995981291,0.9999748468399048,-0.1220703125,0.06103515625,0.244140625,-0.036376953125,0.08935546875,1.00390625,-157.0,82.0,-162.0,102058.0,-6.088000297546387,0,0
34.751994,0.001586827915161848,-3.8363174098776653e-05,-0.00010830868995981291,0.9999748468399048,0.06103515625,0.0,-0.3662109375,-0.036376953125,0.09033203125,1.0040283203125,-157.0,82.0,-162.0,102058.0,-6.088000297546387,0,0
34.759015,0.001586827915161848,-3.8363174098776653e-05,-0.00010830868995981291,0.9999748468399048,0.18310546875,0.06103515625,-0.18310546875,-0.034912109375,0.0906982421875,1.003662109375,-157.0,82.0,-162.0,102058.0,-6.089000225067139,0,0
34.765997,0.001586827915161848,-3.8363174098776653e-05,-0.00010830868995981291,0.9999748468399048,0.0,0.0,-0.06103515625,-0.036865234375,0.0908203125,1.0040283203125,-157.0,82.0,-162.0,102058.0,-6.089000225067139,0,0
34.773018,0.001586827915161848,-3.8363174098776653e-05,-0.00010830868995981291,0.9999748468399048,0.0,-0.1220703125,0.1220703125,-0.03662109375,0.089111328125,1.00341796875,-157.0,82.0,-162.0,102058.0,-6.089000225067139,0,0
34.779996,0.001586827915161848,-3.8363174098776653e-05,-0.00010830868995981291,0.9999748468399048,-0.06103515625,0.30517578125,-0.1220703125,-0.0355224609375,0.0889892578125,1.0048828125,-157.0,82.0,-162.0,102058.0,-6.089000225067139,0,0
34.799997,0.001587018952704966,-2.3432208763551898e-05,-8.173619426088408e-05,0.9999733567237854,-0.244140625,0.3662109375,0.0,-0.0362548828125,0.092041015625,1.00390625,-157.0,82.0,-162.0,102058.0,-6.089000225067139,0,0
34.806996,0.001587018952704966,-2.3432208763551898e-05,-8.173619426088408e-05,0.9999733567237854,-0.06103515625,-0.18310546875,-0.1220703125,-0.0362548828125,0.091796875,1.005126953125,-157.0,82.0,-162.0,102058.0,-6.089000225067139,0,0
34.814016,0.001587018952704966,-2.3432208763551898e-05,-8.173619426088408e-05,0.9999733567237854,-0.1220703125,0.06103515625,-0.3662109375,-0.034912109375,0.0909423828125,1.0042724609375,-157.0,82.0,-162.0,102058.0,-6.089000225067139,0,0
34.821001,0.001587018952704966,-2.3432208763551898e-05,-8.173619426088408e-05,0.9999733567237854,0.0,0.18310546875,-0.06103515625,-0.037841796875,0.0919189453125,1.003662109375,-157.0,82.0,-162.0,102058.0,-6.089000225067139,0,0
34.828019,0.001587018952704966,-2.3432208763551898e-05,-8.173619426088408e-05,0.9999733567237854,-0.3662109375,0.06103515625,0.0,-0.0394287109375,0.0927734375,1.0035400390625,-156.0,82.0,-161.0,102058.0,-6.089000225067139,0,0
34.834994,0.001587018952704966,-2.3432208763551898e-05,-8.173619426088408e-05,0.9999733567237854,0.1220703125,-0.18310546875,-0.18310546875,-0.03564453125,0.0908203125,1.0028076171875,-156.0,82.0,-161.0,102058.0,-6.089000225067139,0,0
34.841994,0.001587018952704966,-2.3432208763551898e-05,-8.173619426088408e-05,0.9999733567237854,0.0,-0.06103515625,-0.1220703125,-0.0357666015625,0.090576171875,1.0028076171875,-156.0,82.0,-161.0,102058.0,-6.089000225067139,0,0
34.849015,0.001587018952704966,-2.3432208763551898e-05,-8.173619426088408e-05,0.9999733567237854,-0.244140625,-0.1220703125,-0.30517578125,-0.0367431640625,0.091796875,1.003173828125,-156.0,82.0,-161.0,102058.0,-6.089000225067139,0,0
34.855997,0.001587018952704966,-2.3432208763551898e-05,-8.173619426088408e-05,0.9999733567237854,-0.06103515625,0.0,0.06103515625,-0.0367431640625,0.0899658203125,1.004150390625,-156.0,82.0,-161.0,102058.0,-6.087000370025635,0,0
34.863018,0.001587209990248084,-8.499383511662018e-06,-5.516370219993405e-05,0.9999719262123108,0.1220703125,0.0,-0.06103515625,-0.0333251953125,0.090576171875,1.00341796875,-156.0,82.0,-161.0,102058.0,-6.087000370025635,0,0
34.869996,0.001587018952704966,-2.3432208763551898e-05,-8.173619426088408e-05,0.9999733567237854,-0.06103515625,-0.06103515625,-0.244140625,-0.038818359375,0.0909423828125,1.0040283203125,-156.0,82.0,-161.0,102058.0,-6.087000370025635,0,0
34.889997,0.001587018952704966,-2.3432208763551898e-05,-8.173619426088408e-05,0.9999733567237854,-0.1220703125,0.0,-0.1220703125,-0.0364990234375,0.09228515625,1.004638671875,-156.0,82.0,-161.0,102058.0,-6.087000370025635,0,0
34.896996,0.001587018952704966,-2.3432208763551898e-05,-8.173619426088408e-05,0.9999733567237854,0.0,-0.06103515625,-0.244140625,-0.0382080078125,0.092041015625,1.00390625,-156.0,82.0,-161.0,102058.0,-6.087000370025635,0,0
34.904016,0.001587018952704966,-2.3432208763551898e-05,-8.173619426088408e-05,0.9999733567237854,0.0,0.0,-0.06103515625,-0.03662109375,0.0909423828125,1.00439453125,-156.0,82.0,-161.0,102058.0,-6.087000370025635,0,0
34.911,0.001587018952704966,-2.3432208763551898e-05,-8.173619426088408e-05,0.9999733567237854,-0.244140625,-0.06103515625,-0.244140625,-0.036376953125,0.0904541015625,1.0040283203125,-156.0,82.0,-161.0,102058.0,-6.087000370025635,0,0
34.918019,0.001587209990248084,-8.499383511662018e-06,-5.516370219993405e-05,0.9999719262123108,-0.1220703125,-0.06103515625,-0.3662109375,-0.03369140625,0.0889892578125,1.003173828125,-156.0,82.0,-161.0,102058.0,-6.087000370025635,0,0
34.924999,0.0015886783367022872,-3.507188012008555e-05,-4.022901339340024e-05,0.9999721050262451,-0.06103515625,-0.30517578125,-0.06103515625,-0.0341796875,0.0909423828125,1.0040283203125,-156.0,82.0,-161.0,102058.0,-6.087000370025635,0,0
34.931995,0.0016982635715976357,-3.104883580817841e-05,-4.3739106331486255e-05,0.9999637007713318,0.0,0.0,-0.1220703125,-0.0350341796875,0.08935546875,1.00439453125,-157.0,81.0,-161.0,102058.0,-6.087000370025635,0,0
34.93902,0.0016982635715976357,-3.104883580817841e-05,-4.3739106331486255e-05,0.9999637007713318,0.1220703125,0.0,0.1220703125,-0.0360107421875,0.092041015625,1.003662109375,-157.0,81.0,-161.0,102058.0,-6.087000370025635,0,0
34.945998,0.0016982635715976357,-3.104883580817841e-05,-4.3739106331486255e-05,0.9999637007713318,-0.244140625,-0.30517578125,-0.1220703125,-0.0362548828125,0.090576171875,1.0050048828125,-157.0,81.0,-161.0,102058.0,-6.087000370025635,0,0
34.953018,0.0016980725340545177,-4.598166196956299e-05,-7.031160203041509e-05,0.9999651312828064,-0.1220703125,0.0,-0.1220703125,-0.03759765625,0.092529296875,1.0030517578125,-157.0,81.0,-161.0,102058.0,-6.087000370025635,0,0
34.959996,0.0016980725340545177,-4.598166196956299e-05,-7.031160203041509e-05,0.9999651312828064,0.244140625,-0.18310546875,-0.30517578125,-0.037109375,0.0921630859375,1.005859375,-157.0,81.0,-161.0,102058.0,-6.088000297546387,0,0
34.966996,0.0016980725340545177,-4.598166196956299e-05,-7.031160203041509e-05,0.9999651312828064,-0.06103515625,0.06103515625,-0.244140625,-0.035888671875,0.091796875,1.0047607421875,-157.0,81.0,-161.0,102058.0,-6.088000297546387,0,0
34.973029,0.0016980725340545177,-4.598166196956299e-05,-7.031160203041509e-05,0.9999651312828064,-0.06103515625,0.06103515625,-0.244140625,-0.035888671875,0.091796875,1.0047607421875,-157.0,81.0,-161.0,102058.0,-6.088000297546387,0,0
34.979998,0.0016980725340545177,-4.598166196956299e-05,-7.031160203041509e-05,0.9999651312828064,-0.06103515625,0.06103515625,0.0,-0.036376953125,0.093994140625,1.003173828125,-157.0,81.0,-161.0,102058.0,-6.088000297546387,0,0
34.986996,0.0016980725340545177,-4.598166196956299e-05,-7.031160203041509e-05,0.9999651312828064,-0.06103515625,0.06103515625,0.0,-0.0372314453125,0.089111328125,1.00439453125,-157.0,81.0,-161.0,102058.0,-6.088000297546387,0,0
34.994017,0.0016980725340545177,-4.598166196956299e-05,-7.031160203041509e-05,0.9999651312828064,0.06103515625,0.244140625,-0.30517578125,-0.0367431640625,0.0889892578125,1.0032958984375,-157.0,81.0,-161.0,102058.0,-6.088000297546387,0,0
35.001,0.0016980725340545177,-4.598166196956299e-05,-7.031160203041509e-05,0.9999651312828064,-0.06103515625,-0.06103515625,0.0,-0.035888671875,0.0906982421875,1.0028076171875,-157.0,81.0,-161.0,102058.0,-6.088000297546387,0,0
35.008019,0.0016997320344671607,-5.7623194152256474e-05,-2.8808142815250903e-05,0.9999638795852661,-0.06103515625,0.1220703125,-0.06103515625,-0.03515625,0.090087890625,1.005126953125,-157.0,81.0,-161.0,102058.0,-6.088000297546387,0,0
35.015,0.0016982635715976357,-3.104883580817841e-05,-4.3739106331486255e-05,0.9999637007713318,-0.06103515625,0.0,-0.06103515625,-0.035888671875,0.0908203125,1.0048828125,-157.0,81.0,-161.0,102058.0,-6.088000297546387,0,0
35.021996,0.0016982635715976357,-3.104883580817841e-05,-4.3739106331486255e-05,0.9999637007713318,-0.18310546875,0.06103515625,-0.18310546875,-0.0357666015625,0.0888671875,1.005126953125,-157.0,81.0,-161.0,102058.0,-6.088000297546387,0,0
35.029015,0.0016982635715976357,-3.104883580817841e-05,-4.3739106331486255e-05,0.9999637007713318,-0.244140625,0.0,-0.244140625,-0.038330078125,0.09228515625,1.0028076171875,-157.0,82.0,-162.0,102058.0,-6.088000297546387,0,0
35.035998,0.0016982635715976357,-3.104883580817841e-05,-4.3739106331486255e-05,0.9999637007713318,-0.18310546875,-0.06103515625,-0.06103515625,-0.0369873046875,0.0919189453125,1.0023193359375,-157.0,82.0,-162.0,102058.0,-6.088000297546387,0,0
35.043018,0.0016982635715976357,-3.104883580817841e-05,-4.3739106331486255e-05,0.9999637007713318,-0.244140625,0.0,-0.30517578125,-0.03759765625,0.0906982421875,1.0037841796875,-157.0,82.0,-162.0,102058.0,-6.088000297546387,0,0
35.064021,0.0016982635715976357,-3.104883580817841e-05,-4.3739106331486255e-05,0.9999637007713318,-0.18310546875,-0.06103515625,-0.244140625,-0.03759765625,0.0887451171875,1.004150390625,-157.0,82.0,-162.0,102058.0,-6.088000297546387,0,0
35.07005,0.0016982635715976357,-3.104883580817841e-05,-4.3739106331486255e-05,0.9999637007713318,-0.18310546875,-0.06103515625,-0.244140625,-0.03759765625,0.0887451171875,1.004150390625,-157.0,82.0,-162.0,102058.0,-6.088000297546387,0,0
35.076996,0.0016982635715976357,-3.104883580817841e-05,-4.3739106331486255e-05,0.9999637007713318,-0.18310546875,-0.1220703125,0.0,-0.0345458984375,0.090576171875,1.003662109375,-157.0,82.0,-162.0,102058.0,-6.088000297546387,0,0
35.084016,0.0016984546091407537,-1.611787229194306e-05,-1.716288534225896e-05,0.9999622106552124,0.06103515625,-0.1220703125,-0.30517578125,-0.0345458984375,0.09033203125,1.005126953125,-157.0,82.0,-162.0,102058.0,-6.088000297546387,0,0
35.091001,0.0016999230720102787,-4.269223063602112e-05,-2.2319222807709593e-06,0.9999623894691467,-0.1220703125,-0.1220703125,-0.244140625,-0.0345458984375,0.091064453125,1.0048828125,-157.0,82.0,-162.0,102058.0,-6.088000297546387,0,0
35.098019,0.0016999230720102787,-4.269223063602112e-05,-2.2319222807709593e-06,0.9999623894691467,0.0,0.06103515625,-0.1220703125,-0.036376953125,0.0911865234375,1.0035400390625,-157.0,82.0,-162.0,102058.0,-6.088000297546387,0,0
35.104994,0.0016999230720102787,-4.269223063602112e-05,-2.2319222807709593e-06,0.9999623894691467,-0.06103515625,0.18310546875,0.0,-0.037109375,0.09130859375,1.0050048828125,-157.0,82.0,-162.0,102058.0,-6.088000297546387,0,0
35.111994,0.0016982635715976357,-3.104883580817841e-05,-4.3739106331486255e-05,0.9999637007713318,-0.18310546875,0.0,0.0,-0.038818359375,0.09130859375,1.0059814453125,-157.0,82.0,-162.0,102058.0,-6.088000297546387,0,0
35.119015,0.0016997320344671607,-5.7623194152256474e-05,-2.8808142815250903e-05,0.9999638795852661,0.0,-0.06103515625,0.0,-0.0361328125,0.09375,1.00146484375,-157.0,82.0,-162.0,102058.0,-6.088000297546387,0,0
35.125997,0.0016982635715976357,-3.104883580817841e-05,-4.3739106331486255e-05,0.9999637007713318,-0.1220703125,0.0,-0.42724609375,-0.037353515625,0.091064453125,1.004150390625,-157.0,82.0,-162.0,102058.0,-6.088000297546387,0,0
35.146996,0.0016997320344671607,-5.7623194152256474e-05,-2.8808142815250903e-05,0.9999638795852661,-0.1220703125,0.0,-0.3662109375,-0.0374755859375,0.0919189453125,1.00341796875,-158.0,83.0,-161.0,102058.0,-6.088000297546387,0,0
35.154021,0.0016982635715976357,-3.104883580817841e-05,-4.3739106331486255e-05,0.9999637007713318,0.1220703125,0.06103515625,-0.06103515625,-0.03955078125,0.092529296875,1.0040283203125,-158.0,83.0,-161.0,102058.0,-6.088000297546387,0,0
35.160049,0.0016982635715976357,-3.104883580817841e-05,-4.3739106331486255e-05,0.9999637007713318,0.1220703125,0.06103515625,-0.06103515625,-0.03955078125,0.092529296875,1.0040283203125,-158.0,83.0,-161.0,102058.0,-6.088000297546387,0,0
35.166996,0.0016997320344671607,-5.7623194152256474e-05,-2.8808142815250903e-05,0.9999638795852661,-0.06103515625,0.0,-0.06103515625,-0.0350341796875,0.0906982421875,1.00341796875,-158.0,83.0,-161.0,102058.0,-6.088000297546387,0,0
35.174017,0.0016982635715976357,-3.104883580817841e-05,-4.3739106331486255e-05,0.9999637007713318,-0.06103515625,0.1220703125,-0.18310546875,-0.0377197265625,0.090576171875,1.004150390625,-158.0,83.0,-161.0,102058.0,-6.088000297546387,0,0
35.181001,0.0016982635715976357,-3.104883580817841e-05,-4.3739106331486255e-05,0.9999637007713318,-0.244140625,-0.1220703125,-0.244140625,-0.0364990234375,0.092041015625,1.0054931640625,-158.0,83.0,-161.0,102058.0,-6.088000297546387,0,0
35.188019,0.0016995409969240427,-7.255602395161986e-05,-5.5380638514179736e-05,0.9999653100967407,0.0,-0.06103515625,-0.18310546875,-0.038330078125,0.093994140625,1.001708984375,-158.0,83.0,-161.0,102058.0,-6.088000297546387,0,0
35.194995,0.0016995409969240427,-7.255602395161986e-05,-5.5380638514179736e-05,0.9999653100967407,-0.18310546875,-0.1220703125,-0.18310546875,-0.036376953125,0.0916748046875,1.0040283203125,-158.0,83.0,-161.0,102058.0,-6.088000297546387,0,0
35.201995,0.0016995409969240427,-7.255602395161986e-05,-5.5380638514179736e-05,0.9999653100967407,-0.1220703125,0.0,-0.18310546875,-0.03564453125,0.091552734375,1.005126953125,-158.0,83.0,-161.0,102058.0,-6.088000297546387,0,0
35.209015,0.0016995409969240427,-7.255602395161986e-05,-5.5380638514179736e-05,0.9999653100967407,0.0,0.244140625,-0.1220703125,-0.0352783203125,0.0919189453125,1.0023193359375,-158.0,83.0,-161.0,102058.0,-6.088000297546387,0,0
35.215997,0.0016995409969240427,-7.255602395161986e-05,-5.5380638514179736e-05,0.9999653100967407,-0.30517578125,0.06103515625,0.0,-0.035888671875,0.091552734375,1.00341796875,-158.0,83.0,-161.0,102058.0,-6.088000297546387,0,0
35.223018,0.0016995409969240427,-7.255602395161986e-05,-5.5380638514179736e-05,0.9999653100967407,0.0,0.0,-0.244140625,-0.03515625,0.0906982421875,1.00390625,-158.0,83.0,-161.0,102058.0,-6.088000297546387,0,0
35.229996,0.0015899556456133723,-7.657906098756939e-05,-5.187054557609372e-05,0.999973714351654,0.0,0.06103515625,-0.06103515625,-0.03369140625,0.090576171875,1.0050048828125,-158.0,84.0,-160.0,102058.0,-6.088000297546387,0,0
35.236996,0.0015899556456133723,-7.657906098756939e-05,-5.187054557609372e-05,0.999973714351654,-0.06103515625,0.3662109375,-0.06103515625,-0.0372314453125,0.0897216796875,1.00341796875,-158.0,84.0,-160.0,102058.0,-6.088000297546387,0,0
35.244021,0.0015914239920675755,-0.00010315341933164746,-3.693958205985837e-05,0.9999738931655884,0.0,0.1220703125,-0.30517578125,-0.0357666015625,0.0924072265625,1.0025634765625,-158.0,84.0,-160.0,102058.0,-6.088000297546387,0,0
35.251001,0.0015912329545244575,-0.00011808438284788281,-6.351207412080839e-05,0.9999753832817078,-0.06103515625,0.0,-0.06103515625,-0.036865234375,0.0916748046875,1.003662109375,-158.0,84.0,-160.0,102058.0,-6.088000297546387,0,0
35.257037,0.0015912329545244575,-0.00011808438284788281,-6.351207412080839e-05,0.9999753832817078,-0.06103515625,0.0,-0.06103515625,-0.036865234375,0.0916748046875,1.003662109375,-158.0,84.0,-160.0,102058.0,-6.088000297546387,0,0
35.264017,0.0015897646080702543,-9.151002450380474e-05,-7.844303763704374e-05,0.9999752044677734,-0.1220703125,-0.06103515625,-0.30517578125,-0.0362548828125,0.0908203125,1.00439453125,-158.0,84.0,-160.0,102058.0,-6.089000225067139,0,0
35.271001,0.0015912329545244575,-0.00011808438284788281,-6.351207412080839e-05,0.9999753832817078,-0.18310546875,0.1220703125,0.06103515625,-0.0357666015625,0.0911865234375,1.0050048828125,-158.0,84.0,-160.0,102058.0,-6.089000225067139,0,0
35.278019,0.0015897646080702543,-9.151002450380474e-05,-7.844303763704374e-05,0.9999752044677734,-0.06103515625,-0.244140625,0.06103515625,-0.035888671875,0.088623046875,1.00341796875,-158.0,84.0,-160.0,102058.0,-6.089000225067139,0,0
35.284999,0.0015897646080702543,-9.151002450380474e-05,-7.844303763704374e-05,0.9999752044677734,-0.1220703125,-0.06103515625,-0.06103515625,-0.0364990234375,0.091552734375,1.0025634765625,-158.0,84.0,-160.0,102058.0,-6.089000225067139,0,0
35.291995,0.0015897646080702543,-9.151002450380474e-05,-7.844303763704374e-05,0.9999752044677734,-0.244140625,-0.06103515625,-0.244140625,-0.0380859375,0.09423828125,1.0037841796875,-158.0,84.0,-160.0,102058.0,-6.089000225067139,0,0
35.29902,0.0015897646080702543,-9.151002450380474e-05,-7.844303763704374e-05,0.9999752044677734,-0.06103515625,0.1220703125,0.06103515625,-0.03515625,0.0902099609375,1.005615234375,-158.0,84.0,-160.0,102058.0,-6.089000225067139,0,0
35.305998,0.0015897646080702543,-9.151002450380474e-05,-7.844303763704374e-05,0.9999752044677734,-0.1220703125,-0.06103515625,0.0,-0.037353515625,0.0924072265625,1.0029296875,-158.0,84.0,-160.0,102058.0,-6.089000225067139,0,0
35.326996,0.0015897646080702543,-9.151002450380474e-05,-7.844303763704374e-05,0.9999752044677734,0.06103515625,0.18310546875,-0.1220703125,-0.03662109375,0.08984375,1.0028076171875,-157.0,86.0,-161.0,102058.0,-6.089000225067139,0,0
35.334022,0.0011648871004581451,-8.122075814753771e-05,-8.080278348643333e-05,0.9999818205833435,0.0,0.06103515625,0.0,-0.03564453125,0.0916748046875,1.0035400390625,-157.0,86.0,-161.0,102058.0,-6.089000225067139,0,0
35.341001,0.0011648871004581451,-8.122075814753771e-05,-8.080278348643333e-05,0.9999818205833435,0.0,-0.1220703125,-0.1220703125,-0.03515625,0.08837890625,1.0030517578125,-157.0,86.0,-161.0,102058.0,-6.089000225067139,0,0
35.347032,0.0011648871004581451,-8.122075814753771e-05,-8.080278348643333e-05,0.9999818205833435,0.0,-0.1220703125,-0.1220703125,-0.03515625,0.08837890625,1.0030517578125,-157.0,86.0,-161.0,102058.0,-6.089000225067139,0,0
35.354017,0.0011665464844554663,-9.286229033023119e-05,-3.929932790924795e-05,0.9999805092811584,-0.06103515625,0.0,-0.1220703125,-0.0341796875,0.0909423828125,1.0042724609375,-157.0,86.0,-161.0,102058.0,-6.090000152587891,0,0
35.361,0.0011663554469123483,-0.00010779325384646654,-6.587181997019798e-05,0.9999819993972778,-0.244140625,0.18310546875,-0.18310546875,-0.0374755859375,0.0926513671875,1.005126953125,-157.0,86.0,-161.0,102058.0,-6.090000152587891,0,0
35.368019,0.0011663554469123483,-0.00010779325384646654,-6.587181997019798e-05,0.9999819993972778,-0.18310546875,0.244140625,0.1220703125,-0.0372314453125,0.08984375,1.0047607421875,-157.0,86.0,-161.0,102058.0,-6.090000152587891,0,0
35.374994,0.0011663554469123483,-0.00010779325384646654,-6.587181997019798e-05,0.9999819993972778,-0.06103515625,-0.1220703125,-0.1220703125,-0.0374755859375,0.091552734375,1.004150390625,-157.0,86.0,-161.0,102058.0,-6.090000152587891,0,0
35.381994,0.0011663554469123483,-0.00010779325384646654,-6.587181997019798e-05,0.9999819993972778,0.06103515625,0.30517578125,-0.18310546875,-0.037353515625,0.0914306640625,1.004638671875,-157.0,86.0,-161.0,102058.0,-6.090000152587891,0,0
35.389015,0.0011663554469123483,-0.00010779325384646654,-6.587181997019798e-05,0.9999819993972778,-0.1220703125,0.0,-0.244140625,-0.03759765625,0.0894775390625,1.0059814453125,-157.0,86.0,-161.0,102058.0,-6.090000152587891,0,0
35.409996,0.0011648871004581451,-8.122075814753771e-05,-8.080278348643333e-05,0.9999818205833435,0.18310546875,-0.18310546875,0.0,-0.0360107421875,0.0889892578125,1.0045166015625,-157.0,86.0,-161.0,102058.0,-6.090000152587891,0,0
35.416996,0.0011648871004581451,-8.122075814753771e-05,-8.080278348643333e-05,0.9999818205833435,-0.06103515625,0.18310546875,-0.18310546875,-0.0372314453125,0.09228515625,1.003662109375,-157.0,86.0,-161.0,102058.0,-6.090000152587891,0,0
35.424021,0.0011663554469123483,-0.00010779325384646654,-6.587181997019798e-05,0.9999819993972778,-0.30517578125,0.0,-0.30517578125,-0.0350341796875,0.092041015625,1.005859375,-157.0,86.0,-160.0,102058.0,-6.090000152587891,0,0
35.431002,0.0007831845432519913,-8.129352499963716e-05,-4.331835953053087e-05,0.9999755620956421,-0.30517578125,0.06103515625,-0.06103515625,-0.0362548828125,0.087158203125,1.0029296875,-157.0,86.0,-160.0,102058.0,-6.090000152587891,0,0
35.438015,0.0007831845432519913,-8.129352499963716e-05,-4.331835953053087e-05,0.9999755620956421,0.0,-0.06103515625,-0.06103515625,-0.0389404296875,0.089599609375,1.004638671875,-157.0,86.0,-160.0,102058.0,-6.090000152587891,0,0
35.444047,0.0007831845432519913,-8.129352499963716e-05,-4.331835953053087e-05,0.9999755620956421,0.0,-0.06103515625,-0.06103515625,-0.0389404296875,0.089599609375,1.004638671875,-157.0,86.0,-160.0,102058.0,-6.090000152587891,0,0
35.451002,0.0007831845432519913,-8.129352499963716e-05,-4.331835953053087e-05,0.9999755620956421,0.18310546875,-0.06103515625,0.0,-0.03515625,0.0919189453125,1.00341796875,-157.0,86.0,-160.0,102058.0,-6.090000152587891,0,0
35.458019,0.0007831845432519913,-8.129352499963716e-05,-4.331835953053087e-05,0.9999755620956421,0.18310546875,0.06103515625,-0.1220703125,-0.03369140625,0.089111328125,1.00439453125,-157.0,86.0,-160.0,102058.0,-6.089000225067139,0,0
35.464994,0.0007831845432519913,-8.129352499963716e-05,-4.331835953053087e-05,0.9999755620956421,-0.06103515625,0.244140625,-0.06103515625,-0.0364990234375,0.09130859375,1.003173828125,-157.0,86.0,-160.0,102058.0,-6.089000225067139,0,0
35.471995,0.0007831845432519913,-8.129352499963716e-05,-4.331835953053087e-05,0.9999755620956421,-0.1220703125,0.0,0.06103515625,-0.0379638671875,0.090576171875,1.0050048828125,-157.0,86.0,-160.0,102058.0,-6.089000225067139,0,0
35.493018,0.0007831845432519913,-8.129352499963716e-05,-4.331835953053087e-05,0.9999755620956421,0.0,0.1220703125,-0.06103515625,-0.03759765625,0.0924072265625,1.003173828125,-157.0,86.0,-160.0,102058.0,-6.089000225067139,0,0
35.499996,0.0007831845432519913,-8.129352499963716e-05,-4.331835953053087e-05,0.9999755620956421,0.1220703125,0.06103515625,-0.1220703125,-0.03564453125,0.091064453125,1.002685546875,-157.0,86.0,-160.0,102058.0,-6.089000225067139,0,0
35.506996,0.0007831845432519913,-8.129352499963716e-05,-4.331835953053087e-05,0.9999755620956421,-0.1220703125,0.18310546875,0.06103515625,-0.03759765625,0.0892333984375,1.0054931640625,-157.0,86.0,-160.0,102058.0,-6.089000225067139,0,0
35.514021,0.0007831845432519913,-8.129352499963716e-05,-4.331835953053087e-05,0.9999755620956421,0.0,0.06103515625,-0.3662109375,-0.036376953125,0.092041015625,1.005859375,-157.0,86.0,-160.0,102058.0,-6.089000225067139,0,0
35.521002,0.0007831845432519913,-8.129352499963716e-05,-4.331835953053087e-05,0.9999755620956421,-0.06103515625,0.0,-0.18310546875,-0.0360107421875,0.090576171875,1.003173828125,-157.0,86.0,-160.0,102058.0,-6.089000225067139,0,0
35.528015,0.0007831845432519913,-8.129352499963716e-05,-4.331835953053087e-05,0.9999755620956421,-0.18310546875,0.06103515625,-0.06103515625,-0.0362548828125,0.09033203125,1.00341796875,-157.0,86.0,-160.0,102058.0,-6.089000225067139,0,0
35.534047,0.0007831845432519913,-8.129352499963716e-05,-4.331835953053087e-05,0.9999755620956421,-0.18310546875,0.06103515625,-0.06103515625,-0.0362548828125,0.09033203125,1.00341796875,-157.0,86.0,-160.0,102058.0,-6.089000225067139,0,0
35.541001,0.000535961939021945,-6.42353406874463e-05,-5.104226875118911e-05,0.9999771118164062,0.06103515625,0.3662109375,-0.18310546875,-0.0360107421875,0.089599609375,1.00244140625,-157.0,86.0,-160.0,102058.0,-6.089000225067139,0,0
35.548019,0.000535961939021945,-6.42353406874463e-05,-5.104226875118911e-05,0.9999771118164062,0.1220703125,-0.06103515625,0.06103515625,-0.03759765625,0.09228515625,1.002197265625,-157.0,86.0,-160.0,102058.0,-6.089000225067139,0,0
35.554999,0.000535961939021945,-6.42353406874463e-05,-5.104226875118911e-05,0.9999771118164062,0.1220703125,0.244140625,0.0,-0.03564453125,0.0919189453125,1.0047607421875,-157.0,86.0,-160.0,102058.0,-6.088000297546387,0,0
35.561996,0.000537430343683809,-9.080783638637513e-05,-3.61075799446553e-05,0.9999772906303406,0.06103515625,0.0,-0.244140625,-0.035400390625,0.089599609375,1.00537109375,-157.0,86.0,-160.0,102058.0,-6.088000297546387,0,0
35.583018,0.000535961939021945,-6.42353406874463e-05,-5.104226875118911e-05,0.9999771118164062,0.0,0.1220703125,-0.06103515625,-0.0361328125,0.08935546875,1.002685546875,-157.0,86.0,-160.0,102058.0,-6.088000297546387,0,0
35.589996,0.000535961939021945,-6.42353406874463e-05,-5.104226875118911e-05,0.9999771118164062,-0.244140625,0.0,-0.1220703125,-0.0362548828125,0.0909423828125,1.004150390625,-157.0,86.0,-160.0,102058.0,-6.088000297546387,0,0
35.596996,0.000535961939021945,-6.42353406874463e-05,-5.104226875118911e-05,0.9999771118164062,-0.1220703125,0.0,-0.06103515625,-0.038818359375,0.0911865234375,1.00537109375,-157.0,86.0,-160.0,102058.0,-6.088000297546387,0,0
35.604022,0.000535961939021945,-6.42353406874463e-05,-5.104226875118911e-05,0.9999771118164062,-0.18310546875,0.06103515625,0.06103515625,-0.03759765625,0.09130859375,1.004638671875,-157.0,86.0,-160.0,102058.0,-6.088000297546387,0,0
35.611002,0.000535961939021945,-6.42353406874463e-05,-5.104226875118911e-05,0.9999771118164062,-0.06103515625,0.0,0.06103515625,-0.03662109375,0.0889892578125,1.004638671875,-157.0,86.0,-160.0,102058.0,-6.088000297546387,0,0
35.618015,0.000536152976565063,-4.930251816404052e-05,-2.4469771233270876e-05,0.9999756813049316,0.06103515625,0.0,-0.18310546875,-0.035888671875,0.090087890625,1.0057373046875,-157.0,86.0,-160.0,102058.0,-6.088000297546387,0,0
35.624995,0.000536152976565063,-4.930251816404052e-05,-2.4469771233270876e-05,0.9999756813049316,-0.06103515625,0.06103515625,-0.3662109375,-0.036865234375,0.0892333984375,1.00537109375,-156.0,87.0,-161.0,102058.0,-6.088000297546387,0,0
35.631026,0.000536152976565063,-4.930251816404052e-05,-2.4469771233270876e-05,0.9999756813049316,-0.06103515625,0.06103515625,-0.3662109375,-0.036865234375,0.0892333984375,1.00537109375,-156.0,87.0,-161.0,102058.0,-6.088000297546387,0,0
35.638019,0.00011127542529720813,-3.9011389162624255e-05,-2.6829284252016805e-05,0.9999822974205017,0.06103515625,-0.18310546875,-0.1220703125,-0.03369140625,0.0902099609375,1.0030517578125,-156.0,87.0,-161.0,102058.0,-6.088000297546387,0,0
35.644995,0.00011274380085524172,-6.558574386872351e-05,-1.1898320735781454e-05,0.9999825358390808,-0.06103515625,-0.1220703125,-0.06103515625,-0.0338134765625,0.092041015625,1.004638671875,-156.0,87.0,-161.0,102058.0,-6.088000297546387,0,0
35.651994,0.00011274380085524172,-6.558574386872351e-05,-1.1898320735781454e-05,0.9999825358390808,-0.1220703125,0.18310546875,-0.244140625,-0.036865234375,0.091796875,1.00390625,-156.0,87.0,-161.0,102058.0,-6.088000297546387,0,0
35.659016,0.00011274380085524172,-6.558574386872351e-05,-1.1898320735781454e-05,0.9999825358390808,-0.06103515625,-0.06103515625,-0.18310546875,-0.035400390625,0.0921630859375,1.0029296875,-156.0,87.0,-161.0,102058.0,-6.088000297546387,0,0
35.665998,0.00011274380085524172,-6.558574386872351e-05,-1.1898320735781454e-05,0.9999825358390808,-0.06103515625,-0.06103515625,-0.1220703125,-0.0362548828125,0.092529296875,1.00341796875,-156.0,87.0,-161.0,102058.0,-6.088000297546387,0,0
35.673018,0.00011274380085524172,-6.558574386872351e-05,-1.1898320735781454e-05,0.9999825358390808,-0.06103515625,0.18310546875,0.06103515625,-0.0380859375,0.0931396484375,1.0029296875,-156.0,87.0,-161.0,102058.0,-6.088000297546387,0,0
35.679996,0.00011274380085524172,-6.558574386872351e-05,-1.1898320735781454e-05,0.9999825358390808,0.0,0.0,-0.30517578125,-0.034423828125,0.093505859375,1.002685546875,-156.0,87.0,-161.0,102058.0,-6.088000297546387,0,0
35.686996,0.00011255274876020849,-8.05185700301081e-05,-3.847081825369969e-05,0.9999839663505554,0.0,0.1220703125,-0.06103515625,-0.0389404296875,0.0911865234375,1.0032958984375,-156.0,87.0,-161.0,102058.0,-6.088000297546387,0,0
35.694021,0.00011255274876020849,-8.05185700301081e-05,-3.847081825369969e-05,0.9999839663505554,-0.18310546875,0.18310546875,-0.1220703125,-0.040283203125,0.0904541015625,1.002685546875,-156.0,87.0,-161.0,102058.0,-6.088000297546387,0,0
35.701001,0.00011255274876020849,-8.05185700301081e-05,-3.847081825369969e-05,0.9999839663505554,-0.18310546875,-0.06103515625,-0.1220703125,-0.03564453125,0.0899658203125,1.005615234375,-156.0,87.0,-161.0,102058.0,-6.088000297546387,0,0
35.708015,0.00011255274876020849,-8.05185700301081e-05,-3.847081825369969e-05,0.9999839663505554,-0.1220703125,0.3662109375,-0.244140625,-0.037353515625,0.09130859375,1.0048828125,-156.0,87.0,-161.0,102058.0,-6.088000297546387,0,0
35.714994,0.00011127542529720813,-3.9011389162624255e-05,-2.6829284252016805e-05,0.9999822974205017,0.1220703125,0.0,-0.42724609375,-0.0367431640625,0.0888671875,1.00341796875,-156.0,87.0,-161.0,102058.0,-6.088000297546387,0,0
35.721026,0.00011127542529720813,-3.9011389162624255e-05,-2.6829284252016805e-05,0.9999822974205017,0.1220703125,0.0,-0.42724609375,-0.0367431640625,0.0888671875,1.00341796875,-156.0,87.0,-161.0,102058.0,-6.088000297546387,0,0
35.728019,-0.0001346699136774987,-6.345853034872562e-05,-4.6190998546080664e-05,0.9999854564666748,-0.1220703125,-0.06103515625,-0.06103515625,-0.0364990234375,0.091552734375,1.0048828125,-157.0,87.0,-161.0,102058.0,-6.088000297546387,0,0
35.734994,-0.0001346699136774987,-6.345853034872562e-05,-4.6190998546080664e-05,0.9999854564666748,-0.18310546875,0.18310546875,-0.18310546875,-0.035888671875,0.0921630859375,1.0054931640625,-157.0,87.0,-161.0,102058.0,-6.088000297546387,0,0
35.755998,-0.0001346699136774987,-6.345853034872562e-05,-4.6190998546080664e-05,0.9999854564666748,0.3662109375,0.1220703125,-0.244140625,-0.0374755859375,0.0914306640625,1.0025634765625,-157.0,87.0,-161.0,102058.0,-6.088000297546387,0,0
35.763018,-0.0001346699136774987,-6.345853034872562e-05,-4.6190998546080664e-05,0.9999854564666748,-0.1220703125,0.1220703125,-0.1220703125,-0.0350341796875,0.09130859375,1.0032958984375,-157.0,87.0,-161.0,102058.0,-6.088000297546387,0,0
35.769996,-0.0001346699136774987,-6.345853034872562e-05,-4.6190998546080664e-05,0.9999854564666748,0.0,0.1220703125,-0.06103515625,-0.0335693359375,0.0927734375,1.0054931640625,-157.0,87.0,-161.0,102058.0,-6.088000297546387,0,0
35.776997,-0.0001332015381194651,-9.003288869280368e-05,-3.126003502984531e-05,0.9999856948852539,-0.1220703125,0.06103515625,-0.30517578125,-0.037109375,0.09130859375,1.0035400390625,-157.0,87.0,-161.0,102058.0,-6.088000297546387,0,0
35.784022,-0.0001332015381194651,-9.003288869280368e-05,-3.126003502984531e-05,0.9999856948852539,-0.1220703125,0.0,-0.06103515625,-0.037109375,0.0908203125,1.0042724609375,-157.0,87.0,-161.0,102058.0,-6.088000297546387,0,0
35.791001,-0.0001332015381194651,-9.003288869280368e-05,-3.126003502984531e-05,0.9999856948852539,-0.1220703125,0.3662109375,-0.1220703125,-0.03564453125,0.0906982421875,1.0045166015625,-157.0,87.0,-161.0,102058.0,-6.088000297546387,0,0
35.798015,-0.0001332015381194651,-9.003288869280368e-05,-3.126003502984531e-05,0.9999856948852539,-0.3662109375,0.1220703125,-0.18310546875,-0.03515625,0.0914306640625,1.0037841796875,-157.0,87.0,-161.0,102058.0,-6.088000297546387,0,0
35.845999,-0.0005165633629076183,-7.846458902349696e-05,-3.527907028910704e-05,0.9999806880950928,-0.06103515625,-0.06103515625,-0.1220703125,-0.036865234375,0.09033203125,1.0050048828125,-156.0,88.0,-162.0,102058.0,-6.088000297546387,0,0
35.853018,-0.0005163723253645003,-6.353176286211237e-05,-8.706572771188803e-06,0.9999792575836182,-0.1220703125,0.0,0.0,-0.0389404296875,0.0889892578125,1.006103515625,-156.0,88.0,-162.0,102058.0,-6.088000297546387,0,0
35.859996,-0.0005163723253645003,-6.353176286211237e-05,-8.706572771188803e-06,0.9999792575836182,-0.1220703125,0.0,-0.06103515625,-0.0362548828125,0.091064453125,1.0040283203125,-156.0,88.0,-162.0,102058.0,-6.088000297546387,0,0
35.866996,-0.0005178407300263643,-3.69574008800555e-05,-2.3637536287424155e-05,0.9999790787696838,-0.06103515625,-0.1220703125,0.0,-0.0380859375,0.08837890625,1.0040283203125,-156.0,88.0,-162.0,102058.0,-6.088000297546387,0,0
35.874022,-0.0005178407300263643,-3.69574008800555e-05,-2.3637536287424155e-05,0.9999790787696838,-0.18310546875,0.1220703125,-0.30517578125,-0.036865234375,0.09228515625,1.0059814453125,-156.0,88.0,-162.0,102058.0,-6.088000297546387,0,0
35.881001,-0.0005163723253645003,-6.353176286211237e-05,-8.706572771188803e-06,0.9999792575836182,0.06103515625,-0.06103515625,-0.06103515625,-0.0357666015625,0.091796875,1.00537109375,-156.0,88.0,-162.0,102058.0,-6.088000297546387,0,0
35.888015,-0.0005165633629076183,-7.846458902349696e-05,-3.527907028910704e-05,0.9999806880950928,0.06103515625,0.06103515625,0.0,-0.0379638671875,0.0916748046875,1.0030517578125,-156.0,88.0,-162.0,102058.0,-6.088000297546387,0,0
35.894995,-0.0005165633629076183,-7.846458902349696e-05,-3.527907028910704e-05,0.9999806880950928,-0.06103515625,0.18310546875,-0.18310546875,-0.03564453125,0.09326171875,1.0035400390625,-156.0,88.0,-162.0,102058.0,-6.088000297546387,0,0
35.901999,-0.0005165633629076183,-7.846458902349696e-05,-3.527907028910704e-05,0.9999806880950928,-0.18310546875,-0.1220703125,-0.1220703125,-0.0384521484375,0.0927734375,1.0048828125,-156.0,88.0,-162.0,102058.0,-6.087000370025635,0,0
35.908032,-0.0005165633629076183,-7.846458902349696e-05,-3.527907028910704e-05,0.9999806880950928,-0.18310546875,-0.1220703125,-0.1220703125,-0.0384521484375,0.0927734375,1.0048828125,-156.0,88.0,-162.0,102058.0,-6.087000370025635,0,0
35.914999,-0.0005167544586583972,-9.339555253973231e-05,-6.185156235005707e-05,0.9999821782112122,-0.244140625,-0.06103515625,-0.1220703125,-0.0369873046875,0.092529296875,1.003173828125,-156.0,88.0,-162.0,102058.0,-6.087000370025635,0,0
35.921996,-0.0005165633629076183,-7.846458902349696e-05,-3.527907028910704e-05,0.9999806880950928,0.0,0.18310546875,-0.18310546875,-0.0379638671875,0.0914306640625,1.0054931640625,-156.0,88.0,-162.0,102058.0,-6.087000370025635,0,0
35.929015,-0.0009266999550163746,-8.32973382784985e-05,-6.567953823832795e-05,0.9999622106552124,-0.18310546875,0.244140625,0.06103515625,-0.0364990234375,0.0909423828125,1.0042724609375,-157.0,88.0,-162.0,102058.0,-6.087000370025635,0,0
35.935998,-0.0009266999550163746,-8.32973382784985e-05,-6.567953823832795e-05,0.9999622106552124,-0.244140625,-0.06103515625,-0.244140625,-0.0364990234375,0.0921630859375,1.00244140625,-157.0,88.0,-162.0,102058.0,-6.087000370025635,0,0
35.943018,-0.0009266999550163746,-8.32973382784985e-05,-6.567953823832795e-05,0.9999622106552124,0.0,0.06103515625,-0.244140625,-0.0372314453125,0.090576171875,1.00390625,-157.0,88.0,-162.0,102058.0,-6.087000370025635,0,0
35.949996,-0.0009266999550163746,-8.32973382784985e-05,-6.567953823832795e-05,0.9999622106552124,0.1220703125,-0.18310546875,-0.244140625,-0.037109375,0.0897216796875,1.003173828125,-157.0,88.0,-162.0,102058.0,-6.087000370025635,0,0
35.956997,-0.0009265089174732566,-6.836451211711392e-05,-3.9107046177377924e-05,0.999960720539093,-0.244140625,0.244140625,-0.06103515625,-0.034423828125,0.0889892578125,1.00390625,-157.0,88.0,-162.0,102058.0,-6.087000370025635,0,0
35.964022,-0.0009265089174732566,-6.836451211711392e-05,-3.9107046177377924e-05,0.999960720539093,-0.1220703125,0.0,0.06103515625,-0.0350341796875,0.0880126953125,1.0045166015625,-157.0,88.0,-162.0,102058.0,-6.087000370025635,0,0
35.971001,-0.0009265089174732566,-6.836451211711392e-05,-3.9107046177377924e-05,0.999960720539093,-0.244140625,-0.1220703125,0.0,-0.034912109375,0.0885009765625,1.0045166015625,-157.0,88.0,-162.0,102058.0,-6.087000370025635,0,0
35.978015,-0.0009250405128113925,-9.493887046119198e-05,-2.417608084215317e-05,0.9999608993530273,0.0,-0.1220703125,-0.06103515625,-0.0341796875,0.09228515625,1.0040283203125,-157.0,88.0,-162.0,102058.0,-6.087000370025635,0,0
35.984994,-0.0009265089174732566,-6.836451211711392e-05,-3.9107046177377924e-05,0.999960720539093,0.06103515625,0.244140625,-0.1220703125,-0.0390625,0.0908203125,1.0045166015625,-157.0,88.0,-162.0,102058.0,-6.087000370025635,0,0
35.991994,-0.0009265089174732566,-6.836451211711392e-05,-3.9107046177377924e-05,0.999960720539093,-0.06103515625,0.1220703125,-0.1220703125,-0.037353515625,0.09326171875,1.0037841796875,-157.0,88.0,-162.0,102058.0,-6.087000370025635,0,0
35.999019,-0.0009265089174732566,-6.836451211711392e-05,-3.9107046177377924e-05,0.999960720539093,-0.06103515625,0.30517578125,-0.18310546875,-0.03564453125,0.08984375,1.0037841796875,-157.0,88.0,-162.0,102058.0,-6.087000370025635,0,0
36.019015,-0.0009265089174732566,-6.836451211711392e-05,-3.9107046177377924e-05,0.999960720539093,0.06103515625,-0.1220703125,-0.18310546875,-0.0390625,0.0919189453125,1.0040283203125,-157.0,88.0,-162.0,102058.0,-6.088000297546387,0,0
36.025999,-0.0009250405128113925,-9.493887046119198e-05,-2.417608084215317e-05,0.9999608993530273,0.0,0.0,-0.1220703125,-0.0347900390625,0.091552734375,1.0025634765625,-158.0,88.0,-162.0,102058.0,-6.088000297546387,0,0
36.033018,-0.0011871953029185534,-7.768777140881866e-05,-3.0427801902987994e-05,0.9999890923500061,-0.1220703125,0.18310546875,-0.42724609375,-0.0355224609375,0.089599609375,1.0028076171875,-158.0,88.0,-162.0,102058.0,-6.088000297546387,0,0
36.039996,-0.0011871953029185534,-7.768777140881866e-05,-3.0427801902987994e-05,0.9999890923500061,0.06103515625,0.1220703125,0.0,-0.0364990234375,0.0927734375,1.00390625,-158.0,88.0,-162.0,102058.0,-6.088000297546387,0,0
36.046996,-0.0011871953029185534,-7.768777140881866e-05,-3.0427801902987994e-05,0.9999890923500061,0.18310546875,0.06103515625,0.1220703125,-0.03857421875,0.0927734375,1.0045166015625,-158.0,88.0,-162.0,102058.0,-6.088000297546387,0,0
36.054021,-0.0011871953029185534,-7.768777140881866e-05,-3.0427801902987994e-05,0.9999890923500061,-0.1220703125,0.1220703125,-0.1220703125,-0.0352783203125,0.0931396484375,1.0037841796875,-158.0,88.0,-162.0,102058.0,-6.088000297546387,0,0
36.061001,-0.0011871953029185534,-7.768777140881866e-05,-3.0427801902987994e-05,0.9999890923500061,-0.06103515625,0.0,-0.1220703125,-0.0362548828125,0.092041015625,1.0042724609375,-158.0,88.0,-162.0,102058.0,-6.088000297546387,0,0
36.068015,-0.0011857269564643502,-0.00010426212975289673,-1.5496838386752643e-05,0.9999892711639404,0.06103515625,0.18310546875,-0.1220703125,-0.03466796875,0.0908203125,1.0040283203125,-158.0,88.0,-162.0,102058.0,-6.088000297546387,0,0
36.074994,-0.0011871953029185534,-7.768777140881866e-05,-3.0427801902987994e-05,0.9999890923500061,0.06103515625,0.1220703125,-0.244140625,-0.035888671875,0.0899658203125,1.00341796875,-158.0,88.0,-162.0,102058.0,-6.088000297546387,0,0
36.081995,-0.0011857269564643502,-0.00010426212975289673,-1.5496838386752643e-05,0.9999892711639404,0.1220703125,0.06103515625,0.06103515625,-0.037109375,0.0914306640625,1.004150390625,-158.0,88.0,-162.0,102058.0,-6.088000297546387,0,0
36.089019,-0.0011857269564643502,-0.00010426212975289673,-1.5496838386752643e-05,0.9999892711639404,-0.06103515625,0.0,-0.18310546875,-0.0362548828125,0.089599609375,1.00439453125,-158.0,88.0,-162.0,102058.0,-6.088000297546387,0,0
36.109015,-0.0011871953029185534,-7.768777140881866e-05,-3.0427801902987994e-05,0.9999890923500061,0.0,0.06103515625,-0.18310546875,-0.0357666015625,0.091796875,1.0029296875,-158.0,88.0,-162.0,102058.0,-6.089000225067139,0,0
36.115998,-0.0011871953029185534,-7.768777140881866e-05,-3.0427801902987994e-05,0.9999890923500061,-0.18310546875,-0.1220703125,-0.06103515625,-0.035888671875,0.09130859375,1.004150390625,-158.0,88.0,-162.0,102058.0,-6.089000225067139,0,0
36.123018,-0.0011857269564643502,-0.00010426212975289673,-1.5496838386752643e-05,0.9999892711639404,-0.18310546875,0.0,0.06103515625,-0.035400390625,0.090576171875,1.004638671875,-158.0,88.0,-162.0,102058.0,-6.089000225067139,0,0
36.129996,-0.001459503429941833,-8.867078577168286e-05,-2.302573193446733e-05,0.9999759793281555,0.18310546875,0.30517578125,-0.244140625,-0.03564453125,0.0914306640625,1.0064697265625,-158.0,87.0,-162.0,102058.0,-6.089000225067139,0,0
36.136996,-0.001459503429941833,-8.867078577168286e-05,-2.302573193446733e-05,0.9999759793281555,-0.06103515625,0.244140625,-0.244140625,-0.03564453125,0.0888671875,1.0052490234375,-158.0,87.0,-162.0,102058.0,-6.089000225067139,0,0
36.144022,-0.001459503429941833,-8.867078577168286e-05,-2.302573193446733e-05,0.9999759793281555,0.0,-0.18310546875,0.1220703125,-0.0382080078125,0.089111328125,1.0040283203125,-158.0,87.0,-162.0,102058.0,-6.089000225067139,0,0
36.151001,-0.0014609717763960361,-6.209829007275403e-05,-3.7960420741001144e-05,0.9999758005142212,-0.1220703125,0.18310546875,0.0,-0.0406494140625,0.09130859375,1.0040283203125,-158.0,87.0,-162.0,102058.0,-6.089000225067139,0,0
36.158015,-0.0014609717763960361,-6.209829007275403e-05,-3.7960420741001144e-05,0.9999758005142212,0.0,0.1220703125,-0.30517578125,-0.03857421875,0.0889892578125,1.0035400390625,-158.0,87.0,-162.0,102058.0,-6.089000225067139,0,0
36.164995,-0.0014609717763960361,-6.209829007275403e-05,-3.7960420741001144e-05,0.9999758005142212,0.06103515625,0.06103515625,-0.1220703125,-0.03564453125,0.0902099609375,1.0045166015625,-158.0,87.0,-162.0,102058.0,-6.089000225067139,0,0
36.171998,-0.0014609717763960361,-6.209829007275403e-05,-3.7960420741001144e-05,0.9999758005142212,0.244140625,0.18310546875,0.06103515625,-0.03759765625,0.0924072265625,1.005615234375,-158.0,87.0,-162.0,102058.0,-6.089000225067139,0,0
36.179023,-0.0014609717763960361,-6.209829007275403e-05,-3.7960420741001144e-05,0.9999758005142212,0.0,-0.06103515625,0.0,-0.0355224609375,0.09033203125,1.0052490234375,-158.0,87.0,-162.0,102058.0,-6.089000225067139,0,0
36.186002,-0.0014609717763960361,-6.209829007275403e-05,-3.7960420741001144e-05,0.9999758005142212,0.06103515625,0.1220703125,0.1220703125,-0.0360107421875,0.0880126953125,1.0047607421875,-158.0,87.0,-162.0,102058.0,-6.089000225067139,0,0
36.192035,-0.0014609717763960361,-6.209829007275403e-05,-3.7960420741001144e-05,0.9999758005142212,0.06103515625,0.1220703125,0.1220703125,-0.0360107421875,0.0880126953125,1.0047607421875,-158.0,87.0,-162.0,102058.0,-6.089000225067139,0,0
36.19902,-0.0014609717763960361,-6.209829007275403e-05,-3.7960420741001144e-05,0.9999758005142212,-0.06103515625,0.0,0.244140625,-0.0360107421875,0.09033203125,1.003173828125,-158.0,87.0,-162.0,102058.0,-6.089000225067139,0,0
36.205999,-0.0014609717763960361,-6.209829007275403e-05,-3.7960420741001144e-05,0.9999758005142212,-0.18310546875,0.0,-0.30517578125,-0.035888671875,0.0904541015625,1.0048828125,-158.0,87.0,-162.0,102058.0,-6.089000225067139,0,0
36.213018,-0.0014609717763960361,-6.209829007275403e-05,-3.7960420741001144e-05,0.9999758005142212,0.0,-0.1220703125,-0.244140625,-0.037353515625,0.0897216796875,1.0023193359375,-158.0,87.0,-162.0,102058.0,-6.089000225067139,0,0
36.219996,-0.0014609717763960361,-6.209829007275403e-05,-3.7960420741001144e-05,0.9999758005142212,-0.06103515625,0.06103515625,-0.18310546875,-0.0372314453125,0.09130859375,1.002685546875,-158.0,87.0,-162.0,102058.0,-6.089000225067139,0,0
36.226996,-0.0017067260341718793,-7.1612601459492e-05,-3.074964115512557e-05,0.9999775290489197,0.0,0.0,-0.244140625,-0.03662109375,0.093017578125,1.0048828125,-156.0,86.0,-163.0,102058.0,-6.089000225067139,0,0
36.234021,-0.0017067260341718793,-7.1612601459492e-05,-3.074964115512557e-05,0.9999775290489197,0.06103515625,-0.06103515625,-0.18310546875,-0.0347900390625,0.0906982421875,1.0045166015625,-156.0,86.0,-163.0,102058.0,-6.089000225067139,0,0
36.241002,-0.0017067260341718793,-7.1612601459492e-05,-3.074964115512557e-05,0.9999775290489197,0.18310546875,-0.06103515625,0.06103515625,-0.0361328125,0.091064453125,1.004638671875,-156.0,86.0,-163.0,102058.0,-6.089000225067139,0,0
36.248015,-0.0017065349966287613,-5.667977893608622e-05,-4.1771445467020385e-06,0.9999760985374451,-0.18310546875,0.1220703125,-0.06103515625,-0.0357666015625,0.0885009765625,1.006103515625,-156.0,86.0,-163.0,102058.0,-6.089000225067139,0,0
36.254994,-0.0017065349966287613,-5.667977893608622e-05,-4.1771445467020385e-06,0.9999760985374451,0.06103515625,0.06103515625,-0.244140625,-0.03759765625,0.0892333984375,1.00341796875,-156.0,86.0,-163.0,102058.0,-6.089000225067139,0,0
36.261994,-0.0017080034594982862,-3.010542059200816e-05,-1.9108108972432092e-05,0.9999759197235107,-0.18310546875,0.06103515625,-0.30517578125,-0.0382080078125,0.089599609375,1.0052490234375,-156.0,86.0,-163.0,102058.0,-6.089000225067139,0,0
36.269019,2.22479490856965e-38,4.699703039829612e-36,1.4329291337809426e-38,-1.0836214105775625e+24,-7.188923146945832e+23,-1.2166208301400263e+35,-5.101689248343534e+29,-2.2298753960239305e+34,-1.6896564729715966e+24,-1.0352960882833804e+35,-2.679320916334849e+34,-1.0719495101847067e-22,6.166428555448488e-36,-2.2298756436119384e+34,3.572259879461895e-28,7739,24907
36.28203,-0.0017065349966287613,-5.667977893608622e-05,-4.1771445467020385e-06,0.9999760985374451,-0.1220703125,0.18310546875,-0.06103515625,-0.0357666015625,0.091796875,1.0045166015625,-156.0,86.0,-163.0,102058.0,-6.089000225067139,0,0
36.289016,-0.0017080034594982862,-3.010542059200816e-05,-1.9108108972432092e-05,0.9999759197235107,0.30517578125,0.18310546875,0.06103515625,-0.036865234375,0.0904541015625,1.0040283203125,-156.0,86.0,-163.0,102058.0,-6.089000225067139,0,0
36.295997,-0.0017080034594982862,-3.010542059200816e-05,-1.9108108972432092e-05,0.9999759197235107,-0.244140625,0.18310546875,-0.1220703125,-0.03759765625,0.0899658203125,1.0035400390625,-156.0,86.0,-163.0,102058.0,-6.089000225067139,0,0
36.303018,-0.0017080034594982862,-3.010542059200816e-05,-1.9108108972432092e-05,0.9999759197235107,-0.06103515625,0.0,0.0,-0.0362548828125,0.0902099609375,1.0048828125,-156.0,86.0,-163.0,102058.0,-6.089000225067139,0,0
36.309997,-0.0017080034594982862,-3.010542059200816e-05,-1.9108108972432092e-05,0.9999759197235107,-0.1220703125,-0.1220703125,0.0,-0.037353515625,0.09033203125,1.0050048828125,-156.0,86.0,-163.0,102058.0,-6.089000225067139,0,0
36.316996,-0.0017080034594982862,-3.010542059200816e-05,-1.9108108972432092e-05,0.9999759197235107,0.06103515625,0.06103515625,-0.1220703125,-0.0357666015625,0.0924072265625,1.004638671875,-156.0,86.0,-163.0,102058.0,-6.089000225067139,0,0
36.324021,-0.0017080034594982862,-3.010542059200816e-05,-1.9108108972432092e-05,0.9999759197235107,-0.18310546875,-0.06103515625,-0.06103515625,-0.037841796875,0.092529296875,1.0035400390625,-157.0,85.0,-162.0,102058.0,-6.089000225067139,0,0
36.331001,-0.0017080034594982862,-3.010542059200816e-05,-1.9108108972432092e-05,0.9999759197235107,0.18310546875,0.1220703125,-0.18310546875,-0.0382080078125,0.089599609375,1.0037841796875,-157.0,85.0,-162.0,102058.0,-6.089000225067139,0,0
36.338015,-0.0017080034594982862,-3.010542059200816e-05,-1.9108108972432092e-05,0.9999759197235107,-0.06103515625,0.0,-0.18310546875,-0.0372314453125,0.092041015625,1.004638671875,-157.0,85.0,-162.0,102058.0,-6.089000225067139,0,0
36.344994,-0.0017080034594982862,-3.010542059200816e-05,-1.9108108972432092e-05,0.9999759197235107,0.0,0.06103515625,-0.1220703125,-0.0379638671875,0.08984375,1.00341796875,-157.0,85.0,-162.0,102058.0,-6.089000225067139,0,0
36.351994,-0.0017080034594982862,-3.010542059200816e-05,-1.9108108972432092e-05,0.9999759197235107,-0.1220703125,0.0,-0.18310546875,-0.0372314453125,0.0902099609375,1.0030517578125,-157.0,85.0,-162.0,102058.0,-6.089000225067139,0,0
36.37203,-0.0017081944970414042,-4.503824675339274e-05,-4.5680604671360925e-05,0.9999773502349854,-0.3662109375,0.0,0.1220703125,-0.035400390625,0.0914306640625,1.0047607421875,-157.0,85.0,-162.0,102058.0,-6.089000225067139,0,0
36.379015,-0.0017081944970414042,-4.503824675339274e-05,-4.5680604671360925e-05,0.9999773502349854,0.1220703125,0.1220703125,-0.18310546875,-0.0355224609375,0.09033203125,1.0042724609375,-157.0,85.0,-162.0,102058.0,-6.089000225067139,0,0
36.385997,-0.0017081944970414042,-4.503824675339274e-05,-4.5680604671360925e-05,0.9999773502349854,0.0,0.0,-0.1220703125,-0.036865234375,0.089111328125,1.0048828125,-157.0,85.0,-162.0,102058.0,-6.089000225067139,0,0
36.393018,-0.0017081944970414042,-4.503824675339274e-05,-4.5680604671360925e-05,0.9999773502349854,-0.1220703125,0.1220703125,-0.1220703125,-0.0350341796875,0.091064453125,1.0035400390625,-157.0,85.0,-162.0,102058.0,-6.089000225067139,0,0
36.399996,-0.0017081944970414042,-4.503824675339274e-05,-4.5680604671360925e-05,0.9999773502349854,0.0,0.06103515625,-0.18310546875,-0.0362548828125,0.0892333984375,1.0059814453125,-157.0,85.0,-162.0,102058.0,-6.089000225067139,0,0
36.406996,-0.0017080034594982862,-3.010542059200816e-05,-1.9108108972432092e-05,0.9999759197235107,0.0,0.0,-0.1220703125,-0.0347900390625,0.09033203125,1.00341796875,-157.0,85.0,-162.0,102058.0,-6.089000225067139,0,0
36.414021,-0.0017080034594982862,-3.010542059200816e-05,-1.9108108972432092e-05,0.9999759197235107,0.0,0.06103515625,-0.30517578125,-0.036376953125,0.090576171875,1.0035400390625,-157.0,85.0,-162.0,102058.0,-6.089000225067139,0,0
36.421002,-0.0017080034594982862,-3.010542059200816e-05,-1.9108108972432092e-05,0.9999759197235107,0.06103515625,-0.1220703125,-0.18310546875,-0.037353515625,0.0894775390625,1.0052490234375,-157.0,85.0,-162.0,102058.0,-6.089000225067139,0,0
36.428015,-0.0017080034594982862,-3.010542059200816e-05,-1.9108108972432092e-05,0.9999759197235107,-0.1220703125,0.0,-0.06103515625,-0.037109375,0.0921630859375,1.00341796875,-158.0,85.0,-162.0,102058.0,-6.089000225067139,0,0
36.434995,-0.0017080034594982862,-3.010542059200816e-05,-1.9108108972432092e-05,0.9999759197235107,0.06103515625,0.1220703125,-0.244140625,-0.034423828125,0.0894775390625,1.004150390625,-158.0,85.0,-162.0,102058.0,-6.089000225067139,0,0
36.441998,-0.0017080034594982862,-3.010542059200816e-05,-1.9108108972432092e-05,0.9999759197235107,0.18310546875,-0.1220703125,-0.06103515625,-0.036376953125,0.0888671875,1.0032958984375,-158.0,85.0,-162.0,102058.0,-6.089000225067139,0,0
36.449023,-0.0017080034594982862,-3.010542059200816e-05,-1.9108108972432092e-05,0.9999759197235107,-0.1220703125,0.06103515625,-0.1220703125,-0.035400390625,0.091552734375,1.0023193359375,-158.0,85.0,-162.0,102058.0,-6.089000225067139,0,0
36.456003,-0.0017080034594982862,-3.010542059200816e-05,-1.9108108972432092e-05,0.9999759197235107,0.18310546875,0.1220703125,-0.1220703125,-0.036376953125,0.0924072265625,1.005126953125,-158.0,85.0,-162.0,102058.0,-6.089000225067139,0,0
36.463019,-0.0017065349966287613,-5.667977893608622e-05,-4.1771445467020385e-06,0.9999760985374451,0.1220703125,0.0,-0.06103515625,-0.0357666015625,0.09326171875,1.003173828125,-158.0,85.0,-162.0,102058.0,-6.089000225067139,0,0
36.46905,-0.0017065349966287613,-5.667977893608622e-05,-4.1771445467020385e-06,0.9999760985374451,0.1220703125,0.0,-0.06103515625,-0.0357666015625,0.09326171875,1.003173828125,-158.0,85.0,-162.0,102058.0,-6.089000225067139,0,0
36.475998,-0.0017065349966287613,-5.667977893608622e-05,-4.1771445467020385e-06,0.9999760985374451,-0.1220703125,-0.06103515625,-0.3662109375,-0.0377197265625,0.092041015625,1.0052490234375,-158.0,85.0,-162.0,102058.0,-6.089000225067139,0,0
36.483018,-0.0017080034594982862,-3.010542059200816e-05,-1.9108108972432092e-05,0.9999759197235107,-0.06103515625,0.06103515625,0.0,-0.0360107421875,0.0908203125,1.0018310546875,-158.0,85.0,-162.0,102058.0,-6.089000225067139,0,0
36.489996,-0.0017080034594982862,-3.010542059200816e-05,-1.9108108972432092e-05,0.9999759197235107,-0.1220703125,-0.06103515625,-0.244140625,-0.035888671875,0.0928955078125,1.005126953125,-158.0,85.0,-162.0,102058.0,-6.089000225067139,0,0
36.496996,-0.0017081944970414042,-4.503824675339274e-05,-4.5680604671360925e-05,0.9999773502349854,0.0,0.18310546875,-0.18310546875,-0.0384521484375,0.09130859375,1.0045166015625,-158.0,85.0,-162.0,102058.0,-6.089000225067139,0,0
36.504021,-0.0017081944970414042,-4.503824675339274e-05,-4.5680604671360925e-05,0.9999773502349854,-0.1220703125,0.06103515625,-0.18310546875,-0.0380859375,0.0899658203125,1.005615234375,-158.0,85.0,-162.0,102058.0,-6.088000297546387,0,0
36.511001,-0.0017081944970414042,-4.503824675339274e-05,-4.5680604671360925e-05,0.9999773502349854,-0.3662109375,0.06103515625,-0.1220703125,-0.036865234375,0.090576171875,1.003662109375,-158.0,85.0,-162.0,102058.0,-6.088000297546387,0,0
36.518015,-0.0017081944970414042,-4.503824675339274e-05,-4.5680604671360925e-05,0.9999773502349854,0.06103515625,0.0,-0.1220703125,-0.036865234375,0.08984375,1.00537109375,-158.0,85.0,-162.0,102058.0,-6.088000297546387,0,0
36.524994,-0.0017081944970414042,-4.503824675339274e-05,-4.5680604671360925e-05,0.9999773502349854,0.06103515625,0.06103515625,0.0,-0.0364990234375,0.0904541015625,1.00390625,-158.0,85.0,-163.0,102058.0,-6.088000297546387,0,0
36.546002,-0.0017096628434956074,-1.8463888409314677e-05,-6.0611568187596276e-05,0.9999771118164062,0.06103515625,0.1220703125,-0.1220703125,-0.037353515625,0.0899658203125,1.00537109375,-158.0,85.0,-163.0,102058.0,-6.088000297546387,0,0
36.553018,-0.0017096628434956074,-1.8463888409314677e-05,-6.0611568187596276e-05,0.9999771118164062,-0.1220703125,0.06103515625,-0.30517578125,-0.0380859375,0.0902099609375,1.0045166015625,-158.0,85.0,-163.0,102058.0,-6.088000297546387,0,0
36.559049,-0.0017096628434956074,-1.8463888409314677e-05,-6.0611568187596276e-05,0.9999771118164062,-0.1220703125,0.06103515625,-0.30517578125,-0.0380859375,0.0902099609375,1.0045166015625,-158.0,85.0,-163.0,102058.0,-6.088000297546387,0,0
36.565998,-0.0017094718059524894,-3.5310615658090683e-06,-3.4039072488667443e-05,0.9999756813049316,-0.18310546875,0.30517578125,-0.18310546875,-0.0379638671875,0.092041015625,1.0057373046875,-158.0,85.0,-163.0,102058.0,-6.088000297546387,0,0
36.573018,-0.0017094718059524894,-3.5310615658090683e-06,-3.4039072488667443e-05,0.9999756813049316,0.06103515625,0.1220703125,-0.3662109375,-0.036865234375,0.0914306640625,1.004638671875,-158.0,85.0,-163.0,102058.0,-6.088000297546387,0,0
36.579996,-0.0017080034594982862,-3.010542059200816e-05,-1.9108108972432092e-05,0.9999759197235107,-0.1220703125,0.1220703125,-0.06103515625,-0.034423828125,0.091064453125,1.0052490234375,-158.0,85.0,-163.0,102058.0,-6.088000297546387,0,0
36.586996,-0.0017094718059524894,-3.5310615658090683e-06,-3.4039072488667443e-05,0.9999756813049316,0.06103515625,0.0,0.0,-0.0361328125,0.0897216796875,1.00390625,-158.0,85.0,-163.0,102058.0,-6.088000297546387,0,0
36.594021,-0.0017080034594982862,-3.010542059200816e-05,-1.9108108972432092e-05,0.9999759197235107,-0.1220703125,0.0,0.06103515625,-0.0362548828125,0.0909423828125,1.0047607421875,-158.0,85.0,-163.0,102058.0,-6.088000297546387,0,0
36.601002,-0.0017080034594982862,-3.010542059200816e-05,-1.9108108972432092e-05,0.9999759197235107,-0.1220703125,0.1220703125,-0.1220703125,-0.0362548828125,0.0904541015625,1.003173828125,-158.0,85.0,-163.0,102058.0,-6.088000297546387,0,0
36.608015,-0.0017094718059524894,-3.5310615658090683e-06,-3.4039072488667443e-05,0.9999756813049316,0.1220703125,-0.1220703125,0.1220703125,-0.038330078125,0.091064453125,1.0028076171875,-158.0,85.0,-163.0,102058.0,-6.089000225067139,0,0
36.629019,-0.0015718344366177917,-2.4614146241219714e-05,-2.2809026631875895e-05,0.999982476234436,-0.06103515625,0.1220703125,-0.30517578125,-0.0357666015625,0.0909423828125,1.004638671875,-159.0,84.0,-162.0,102058.0,-6.089000225067139,0,0
36.636002,-0.0015718344366177917,-2.4614146241219714e-05,-2.2809026631875895e-05,0.999982476234436,-0.1220703125,0.06103515625,-0.06103515625,-0.036376953125,0.091552734375,1.005126953125,-159.0,84.0,-162.0,102058.0,-6.089000225067139,0,0
36.643018,-0.0015718344366177917,-2.4614146241219714e-05,-2.2809026631875895e-05,0.999982476234436,0.06103515625,0.06103515625,-0.244140625,-0.0360107421875,0.0899658203125,1.0057373046875,-159.0,84.0,-162.0,102058.0,-6.089000225067139,0,0
36.649996,-0.0015718344366177917,-2.4614146241219714e-05,-2.2809026631875895e-05,0.999982476234436,-0.1220703125,-0.06103515625,-0.1220703125,-0.0369873046875,0.092529296875,1.0048828125,-159.0,84.0,-162.0,102058.0,-6.089000225067139,0,0
36.656028,-0.0015718344366177917,-2.4614146241219714e-05,-2.2809026631875895e-05,0.999982476234436,-0.1220703125,-0.06103515625,-0.1220703125,-0.0369873046875,0.092529296875,1.0048828125,-159.0,84.0,-162.0,102058.0,-6.089000225067139,0,0
36.663018,-0.0015718344366177917,-2.4614146241219714e-05,-2.2809026631875895e-05,0.999982476234436,-0.06103515625,-0.1220703125,0.06103515625,-0.0362548828125,0.08935546875,1.0035400390625,-159.0,84.0,-162.0,102058.0,-6.089000225067139,0,0
36.669996,-0.0015716433990746737,-9.683183634479064e-06,3.7671943573514e-06,0.9999809861183167,0.06103515625,-0.06103515625,0.1220703125,-0.037109375,0.0897216796875,1.00439453125,-159.0,84.0,-162.0,102058.0,-6.089000225067139,0,0
36.676997,-0.0015716433990746737,-9.683183634479064e-06,3.7671943573514e-06,0.9999809861183167,0.06103515625,-0.06103515625,-0.06103515625,-0.0355224609375,0.0909423828125,1.0047607421875,-159.0,84.0,-162.0,102058.0,-6.089000225067139,0,0
36.684022,-0.0015718344366177917,-2.4614146241219714e-05,-2.2809026631875895e-05,0.999982476234436,-0.18310546875,0.1220703125,-0.18310546875,-0.0372314453125,0.08984375,1.0047607421875,-159.0,84.0,-162.0,102058.0,-6.089000225067139,0,0
36.691001,-0.0015718344366177917,-2.4614146241219714e-05,-2.2809026631875895e-05,0.999982476234436,-0.06103515625,0.1220703125,0.06103515625,-0.038330078125,0.091796875,1.0023193359375,-159.0,84.0,-162.0,102058.0,-6.089000225067139,0,0
36.698015,-0.0015718344366177917,-2.4614146241219714e-05,-2.2809026631875895e-05,0.999982476234436,0.06103515625,0.06103515625,-0.244140625,-0.03662109375,0.0931396484375,1.00537109375,-159.0,84.0,-162.0,102058.0,-6.089000225067139,0,0
36.704994,-0.0015718344366177917,-2.4614146241219714e-05,-2.2809026631875895e-05,0.999982476234436,-0.1220703125,0.244140625,-0.1220703125,-0.0355224609375,0.091552734375,1.005859375,-159.0,84.0,-162.0,102058.0,-6.090000152587891,0,0
36.711994,-0.0015718344366177917,-2.4614146241219714e-05,-2.2809026631875895e-05,0.999982476234436,-0.1220703125,0.244140625,-0.18310546875,-0.0374755859375,0.090087890625,1.004638671875,-159.0,84.0,-162.0,102058.0,-6.090000152587891,0,0
36.719023,-0.0015718344366177917,-2.4614146241219714e-05,-2.2809026631875895e-05,0.999982476234436,0.1220703125,0.0,0.0,-0.0377197265625,0.090576171875,1.0050048828125,-159.0,84.0,-162.0,102058.0,-6.090000152587891,0,0
36.726003,-0.0014356655301526189,-1.9122408048133366e-05,-2.6509944291319698e-05,0.9999890923500061,0.1220703125,0.18310546875,-0.48828125,-0.03662109375,0.0887451171875,1.005126953125,-159.0,83.0,-161.0,102058.0,-6.090000152587891,0,0
36.733019,-0.001437133876606822,7.451950295944698e-06,-4.144090780755505e-05,0.999988853931427,-0.1220703125,0.06103515625,-0.06103515625,-0.037841796875,0.09033203125,1.0048828125,-159.0,83.0,-161.0,102058.0,-6.090000152587891,0,0
36.739997,-0.0014356655301526189,-1.9122408048133366e-05,-2.6509944291319698e-05,0.9999890923500061,-0.1220703125,0.0,0.06103515625,-0.0345458984375,0.0904541015625,1.00390625,-159.0,83.0,-161.0,102058.0,-6.090000152587891,0,0
36.746029,-0.0014356655301526189,-1.9122408048133366e-05,-2.6509944291319698e-05,0.9999890923500061,-0.1220703125,0.0,0.06103515625,-0.0345458984375,0.0904541015625,1.00390625,-159.0,83.0,-161.0,102058.0,-6.090000152587891,0,0
36.753018,-0.001462249201722443,-2.0591103748301975e-05,-2.6318888558307663e-05,0.9999741911888123,-0.06103515625,-0.18310546875,-0.244140625,-0.03515625,0.0908203125,1.00341796875,-159.0,83.0,-161.0,102058.0,-6.090000152587891,0,0
36.759997,-0.001462249201722443,-2.0591103748301975e-05,-2.6318888558307663e-05,0.9999741911888123,-0.244140625,0.30517578125,-0.30517578125,-0.03515625,0.09130859375,1.00537109375,-159.0,83.0,-161.0,102058.0,-6.090000152587891,0,0
36.766996,-0.001462249201722443,-2.0591103748301975e-05,-2.6318888558307663e-05,0.9999741911888123,-0.18310546875,-0.06103515625,0.0,-0.0364990234375,0.0908203125,1.00341796875,-159.0,83.0,-161.0,102058.0,-6.090000152587891,0,0
36.774022,-0.001462249201722443,-2.0591103748301975e-05,-2.6318888558307663e-05,0.9999741911888123,-0.18310546875,-0.18310546875,0.06103515625,-0.0369873046875,0.0919189453125,1.0057373046875,-159.0,83.0,-161.0,102058.0,-6.090000152587891,0,0
36.781002,-0.001462249201722443,-2.0591103748301975e-05,-2.6318888558307663e-05,0.9999741911888123,0.0,-0.18310546875,-0.1220703125,-0.036376953125,0.089111328125,1.005126953125,-159.0,83.0,-161.0,102058.0,-6.090000152587891,0,0
36.801999,-0.001462249201722443,-2.0591103748301975e-05,-2.6318888558307663e-05,0.9999741911888123,0.0,0.1220703125,0.1220703125,-0.037109375,0.0927734375,1.00537109375,-159.0,83.0,-161.0,102058.0,-6.090000152587891,0,0
36.809023,-0.001462440239265561,-3.5523928090697154e-05,-5.2891384257236496e-05,0.9999756217002869,-0.3662109375,0.18310546875,-0.06103515625,-0.0377197265625,0.0916748046875,1.0059814453125,-159.0,83.0,-161.0,102058.0,-6.090000152587891,0,0
36.816002,-0.0014356655301526189,-1.9122408048133366e-05,-2.6509944291319698e-05,0.9999890923500061,-0.244140625,0.1220703125,-0.3662109375,-0.0369873046875,0.09033203125,1.004150390625,-159.0,83.0,-161.0,102058.0,-6.090000152587891,0,0
36.823019,-0.001437133876606822,7.451950295944698e-06,-4.144090780755505e-05,0.999988853931427,-0.06103515625,0.18310546875,-0.1220703125,-0.037109375,0.0882568359375,1.005126953125,-159.0,83.0,-161.0,102058.0,-6.090000152587891,0,0
36.829996,-0.0013260801788419485,-1.5099364645720925e-05,-3.0019806217751466e-05,0.9999807476997375,-0.18310546875,0.06103515625,0.06103515625,-0.0362548828125,0.093505859375,1.004150390625,-159.0,83.0,-161.0,102058.0,-6.090000152587891,0,0
36.836995,-0.0013260801788419485,-1.5099364645720925e-05,-3.0019806217751466e-05,0.9999807476997375,0.06103515625,-0.06103515625,-0.244140625,-0.036865234375,0.08984375,1.005615234375,-159.0,83.0,-161.0,102058.0,-6.090000152587891,0,0
36.843028,-0.0013260801788419485,-1.5099364645720925e-05,-3.0019806217751466e-05,0.9999807476997375,0.06103515625,-0.06103515625,-0.244140625,-0.036865234375,0.08984375,1.005615234375,-159.0,83.0,-161.0,102058.0,-6.090000152587891,0,0
36.849996,-0.0013260801788419485,-1.5099364645720925e-05,-3.0019806217751466e-05,0.9999807476997375,-0.06103515625,0.1220703125,-0.1220703125,-0.0341796875,0.0906982421875,1.0052490234375,-159.0,83.0,-161.0,102058.0,-6.090000152587891,0,0
36.856996,-0.0013260801788419485,-1.5099364645720925e-05,-3.0019806217751466e-05,0.9999807476997375,-0.18310546875,0.0,-0.1220703125,-0.0364990234375,0.09228515625,1.004150390625,-159.0,83.0,-161.0,102058.0,-6.090000152587891,0,0
36.864021,-0.0013260801788419485,-1.5099364645720925e-05,-3.0019806217751466e-05,0.9999807476997375,-0.06103515625,0.0,-0.1220703125,-0.0372314453125,0.0919189453125,1.0047607421875,-159.0,83.0,-161.0,102058.0,-6.090000152587891,0,0
36.871001,-0.0013260801788419485,-1.5099364645720925e-05,-3.0019806217751466e-05,0.9999807476997375,-0.06103515625,0.244140625,0.0,-0.0374755859375,0.090576171875,1.003662109375,-159.0,83.0,-161.0,102058.0,-6.090000152587891,0,0
36.891994,-0.0013260801788419485,-1.5099364645720925e-05,-3.0019806217751466e-05,0.9999807476997375,0.42724609375,-0.1220703125,-0.18310546875,-0.033935546875,0.0906982421875,1.00439453125,-159.0,83.0,-161.0,102058.0,-6.090000152587891,0,0
36.899019,-0.0013260801788419485,-1.5099364645720925e-05,-3.0019806217751466e-05,0.9999807476997375,-0.244140625,0.06103515625,-0.18310546875,-0.0350341796875,0.0897216796875,1.0025634765625,-159.0,83.0,-161.0,102058.0,-6.089000225067139,0,0
36.906002,-0.0013260801788419485,-1.5099364645720925e-05,-3.0019806217751466e-05,0.9999807476997375,0.0,0.18310546875,-0.30517578125,-0.036376953125,0.091552734375,1.00537109375,-159.0,83.0,-161.0,102058.0,-6.089000225067139,0,0
36.913018,-0.0013258891412988305,-1.684013852809585e-07,-3.443585910645197e-06,0.9999792575836182,0.1220703125,-0.18310546875,-0.06103515625,-0.0340576171875,0.0888671875,1.00341796875,-159.0,83.0,-161.0,102058.0,-6.089000225067139,0,0
36.919996,-0.0013244206784293056,-2.674089773790911e-05,1.1487377378216479e-05,0.9999794363975525,0.0,0.244140625,0.0,-0.0333251953125,0.0909423828125,1.003662109375,-159.0,83.0,-161.0,102058.0,-6.089000225067139,0,0
36.926995,-0.0011882815742865205,-2.1249623387120664e-05,7.786226888129022e-06,0.9999859929084778,0.06103515625,0.18310546875,0.06103515625,-0.0361328125,0.09033203125,1.0040283203125,-159.0,83.0,-160.0,102058.0,-6.089000225067139,0,0
36.933028,-0.0011882815742865205,-2.1249623387120664e-05,7.786226888129022e-06,0.9999859929084778,0.06103515625,0.18310546875,0.06103515625,-0.0361328125,0.09033203125,1.0040283203125,-159.0,83.0,-160.0,102058.0,-6.089000225067139,0,0
36.968015,-0.0011897499207407236,5.322871857060818e-06,-7.1447370828536805e-06,0.9999858140945435,-0.1220703125,0.06103515625,-0.18310546875,-0.037353515625,0.09130859375,1.0052490234375,-159.0,83.0,-160.0,102058.0,-6.089000225067139,0,0
36.974994,-0.0011897499207407236,5.322871857060818e-06,-7.1447370828536805e-06,0.9999858140945435,0.0,0.06103515625,0.0,-0.035888671875,0.0906982421875,1.004638671875,-159.0,83.0,-160.0,102058.0,-6.089000225067139,0,0
36.981994,-0.0011897499207407236,5.322871857060818e-06,-7.1447370828536805e-06,0.9999858140945435,0.0,-0.1220703125,-0.1220703125,-0.0379638671875,0.088623046875,1.0023193359375,-159.0,83.0,-160.0,102058.0,-6.089000225067139,0,0
36.989019,-0.0011897499207407236,5.322871857060818e-06,-7.1447370828536805e-06,0.9999858140945435,-0.18310546875,0.0,-0.30517578125,-0.039306640625,0.089599609375,1.0045166015625,-159.0,83.0,-160.0,102058.0,-6.089000225067139,0,0
36.996002,-0.0011897499207407236,5.322871857060818e-06,-7.1447370828536805e-06,0.9999858140945435,-0.06103515625,0.0,-0.30517578125,-0.034912109375,0.092529296875,1.0042724609375,-159.0,83.0,-160.0,102058.0,-6.089000225067139,0,0
37.003018,-0.0011897499207407236,5.322871857060818e-06,-7.1447370828536805e-06,0.9999858140945435,-0.1220703125,0.1220703125,-0.1220703125,-0.036865234375,0.0892333984375,1.00390625,-159.0,83.0,-160.0,102058.0,-6.087000370025635,0,0
37.009996,-0.0011897499207407236,5.322871857060818e-06,-7.1447370828536805e-06,0.9999858140945435,0.0,0.06103515625,0.0,-0.0360107421875,0.0889892578125,1.005615234375,-159.0,83.0,-160.0,102058.0,-6.087000370025635,0,0
37.016995,-0.0011895588831976056,2.025569847319275e-05,1.94277581613278e-05,0.9999843239784241,0.18310546875,-0.18310546875,-0.18310546875,-0.03564453125,0.088134765625,1.004638671875,-159.0,83.0,-160.0,102058.0,-6.087000370025635,0,0
37.02402,-0.0011910273460671306,4.6830056817270815e-05,4.496795099839801e-06,0.999984085559845,-0.18310546875,0.06103515625,0.0,-0.0379638671875,0.09130859375,1.0052490234375,-158.0,83.0,-159.0,102058.0,-6.087000370025635,0,0
37.030053,-0.0011910273460671306,4.6830056817270815e-05,4.496795099839801e-06,0.999984085559845,-0.18310546875,0.06103515625,0.0,-0.0379638671875,0.09130859375,1.0052490234375,-158.0,83.0,-159.0,102058.0,-6.087000370025635,0,0
37.036996,-0.001053580897860229,1.081414484360721e-05,-1.0845655197044834e-05,0.9999924302101135,0.0,-0.1220703125,0.06103515625,-0.0355224609375,0.0924072265625,1.0037841796875,-158.0,83.0,-159.0,102058.0,-6.087000370025635,0,0
37.044022,-0.001053580897860229,1.081414484360721e-05,-1.0845655197044834e-05,0.9999924302101135,-0.06103515625,0.1220703125,-0.1220703125,-0.03564453125,0.0902099609375,1.004150390625,-158.0,83.0,-159.0,102058.0,-6.087000370025635,0,0
37.064995,-0.0010521125514060259,-1.5758350855321623e-05,4.085308319190517e-06,0.9999926090240479,-0.18310546875,0.06103515625,-0.244140625,-0.037841796875,0.0916748046875,1.003173828125,-158.0,83.0,-159.0,102058.0,-6.087000370025635,0,0
37.071998,-0.0010521125514060259,-1.5758350855321623e-05,4.085308319190517e-06,0.9999926090240479,0.30517578125,0.06103515625,-0.1220703125,-0.03662109375,0.092041015625,1.00537109375,-158.0,83.0,-159.0,102058.0,-6.087000370025635,0,0
37.079024,-0.0010521125514060259,-1.5758350855321623e-05,4.085308319190517e-06,0.9999926090240479,-0.1220703125,0.244140625,-0.06103515625,-0.036865234375,0.0924072265625,1.0040283203125,-158.0,83.0,-159.0,102058.0,-6.087000370025635,0,0
37.086002,-0.0010521125514060259,-1.5758350855321623e-05,4.085308319190517e-06,0.9999926090240479,-0.244140625,0.1220703125,0.0,-0.03662109375,0.090087890625,1.0040283203125,-158.0,83.0,-159.0,102058.0,-6.087000370025635,0,0
37.093018,-0.0010521125514060259,-1.5758350855321623e-05,4.085308319190517e-06,0.9999926090240479,0.0,-0.1220703125,-0.18310546875,-0.0369873046875,0.090576171875,1.004638671875,-158.0,83.0,-159.0,102058.0,-6.087000370025635,0,0
37.099996,-0.001053580897860229,1.081414484360721e-05,-1.0845655197044834e-05,0.9999924302101135,-0.06103515625,0.30517578125,-0.1220703125,-0.0379638671875,0.091064453125,1.0029296875,-158.0,83.0,-159.0,102058.0,-6.087000370025635,0,0
37.106996,-0.0010521125514060259,-1.5758350855321623e-05,4.085308319190517e-06,0.9999926090240479,0.244140625,0.0,0.1220703125,-0.036376953125,0.0906982421875,1.0047607421875,-158.0,83.0,-159.0,102058.0,-6.087000370025635,0,0
37.114021,-0.0010521125514060259,-1.5758350855321623e-05,4.085308319190517e-06,0.9999926090240479,-0.244140625,0.0,-0.3662109375,-0.0345458984375,0.08935546875,1.004638671875,-158.0,83.0,-159.0,102058.0,-6.087000370025635,0,0
37.120053,-0.0010521125514060259,-1.5758350855321623e-05,4.085308319190517e-06,0.9999926090240479,-0.244140625,0.0,-0.3662109375,-0.0345458984375,0.08935546875,1.004638671875,-158.0,83.0,-159.0,102058.0,-6.087000370025635,0,0
37.126996,-0.0009010114590637386,-1.045766839524731e-05,-1.0840728918992681e-06,0.9999725818634033,0.0,0.06103515625,-0.244140625,-0.0380859375,0.0921630859375,1.0047607421875,-158.0,84.0,-160.0,102058.0,-6.087000370025635,0,0
37.134021,-0.0009010114590637386,-1.045766839524731e-05,-1.0840728918992681e-06,0.9999725818634033,0.1220703125,0.06103515625,0.0,-0.036865234375,0.0908203125,1.0023193359375,-158.0,84.0,-160.0,102058.0,-6.087000370025635,0,0
37.154994,-0.0009012025548145175,-2.5390494556631893e-05,-2.7660293199005537e-05,0.9999740719795227,-0.06103515625,0.06103515625,-0.1220703125,-0.0382080078125,0.0908203125,1.0047607421875,-158.0,84.0,-160.0,102058.0,-6.087000370025635,0,0
37.161994,-0.0009012025548145175,-2.5390494556631893e-05,-2.7660293199005537e-05,0.9999740719795227,0.1220703125,0.0,-0.1220703125,-0.0367431640625,0.0941162109375,1.004150390625,-158.0,84.0,-160.0,102058.0,-6.087000370025635,0,0
