Time stamp(sec),quaternion_0,quaternion_1,quaternion_2,quaternion_3,roll_angular_rate,pitch_angular_rate,yaw_angular_rate,acc_X,acc_Y,acc_Z,mag_X,mag_Y,mag_Z,pressure,altitude
230.650997,-0.009765625,0.182891845703125,0.98284912109375,0.01995849609375,-0.06103515625,0.18310546875,0.0,0.0274658203125,0.0357666015625,-1.0181884765625,122.0,297.0,-157.0,101448.0,-1.0260000228881836,0,0
230.657996,-0.009765625,0.182891845703125,0.98284912109375,0.01995849609375,0.0,0.1220703125,-0.18310546875,0.0277099609375,0.03857421875,-1.0184326171875,122.0,297.0,-157.0,101448.0,-1.0260000228881836,0,0
230.664996,-0.009765625,0.182891845703125,0.98284912109375,0.01995849609375,-0.06103515625,0.06103515625,-0.1220703125,0.02783203125,0.0382080078125,-1.017822265625,122.0,297.0,-157.0,101448.0,-1.0260000228881836,0,0
230.671996,-0.009765625,0.182891845703125,0.98284912109375,0.01995849609375,-0.244140625,-0.1220703125,-0.1220703125,0.0269775390625,0.0372314453125,-1.017578125,122.0,297.0,-157.0,101448.0,-1.0260000228881836,0,0
230.679,-0.009765625,0.182891845703125,0.98284912109375,0.01995849609375,-0.244140625,0.06103515625,0.0,0.027587890625,0.0382080078125,-1.0162353515625,122.0,297.0,-157.0,101448.0,-1.0260000228881836,0,0
230.685995,-0.009796142578125,0.182891845703125,0.98284912109375,0.01995849609375,0.0,-0.30517578125,0.06103515625,0.0284423828125,0.0362548828125,-1.017578125,122.0,297.0,-157.0,101448.0,-1.0260000228881836,0,0
230.692994,-0.009796142578125,0.182891845703125,0.98284912109375,0.01995849609375,-0.18310546875,0.42724609375,-0.06103515625,0.028076171875,0.0341796875,-1.0186767578125,122.0,297.0,-157.0,101448.0,-1.0260000228881836,0,0
230.699998,-0.009796142578125,0.182891845703125,0.98284912109375,0.01995849609375,-0.18310546875,0.244140625,0.0,0.02880859375,0.0362548828125,-1.0181884765625,122.0,297.0,-157.0,101448.0,-1.0260000228881836,0,0
230.706998,-0.009796142578125,0.182891845703125,0.98284912109375,0.01995849609375,-0.79345703125,0.0,-0.1220703125,0.02783203125,0.0367431640625,-1.01806640625,121.0,297.0,-157.0,101448.0,-1.0260000228881836,0,0
230.713997,-0.009796142578125,0.182891845703125,0.98284912109375,0.01995849609375,0.0,-0.1220703125,0.18310546875,0.02587890625,0.0374755859375,-1.0181884765625,121.0,297.0,-157.0,101448.0,-1.0260000228881836,0,0
230.720996,-0.009796142578125,0.182891845703125,0.98284912109375,0.01995849609375,0.06103515625,0.1220703125,-0.18310546875,0.0263671875,0.036865234375,-1.01806640625,121.0,297.0,-157.0,101448.0,-1.0260000228881836,0,0
230.727996,-0.009765625,0.182891845703125,0.98284912109375,0.01995849609375,-0.3662109375,-0.1220703125,0.0,0.0264892578125,0.036865234375,-1.017578125,121.0,297.0,-157.0,101448.0,-1.0260000228881836,0,0
230.734995,-0.009765625,0.182891845703125,0.98284912109375,0.01995849609375,-0.18310546875,0.06103515625,0.06103515625,0.025146484375,0.03662109375,-1.018310546875,121.0,297.0,-157.0,101448.0,-1.0260000228881836,0,0
230.741028,-0.009765625,0.182891845703125,0.98284912109375,0.01995849609375,-0.18310546875,0.06103515625,0.06103515625,0.025146484375,0.03662109375,-1.018310546875,121.0,297.0,-157.0,101448.0,-1.0260000228881836,0,0
230.747996,-0.009765625,0.182891845703125,0.98284912109375,0.01995849609375,-0.06103515625,0.0,0.0,0.0274658203125,0.0362548828125,-1.0189208984375,121.0,297.0,-157.0,101448.0,-1.0260000228881836,0,0
230.754996,-0.009765625,0.182891845703125,0.98284912109375,0.01995849609375,-0.18310546875,0.06103515625,0.1220703125,0.025634765625,0.0357666015625,-1.02001953125,121.0,297.0,-157.0,101448.0,-1.0260000228881836,0,0
230.761995,-0.009765625,0.182891845703125,0.98284912109375,0.01995849609375,0.0,0.06103515625,0.18310546875,0.027099609375,0.034423828125,-1.0189208984375,121.0,297.0,-157.0,101448.0,-1.0260000228881836,0,0
230.768996,-0.009765625,0.182891845703125,0.98284912109375,0.01995849609375,-0.48828125,-0.06103515625,-0.1220703125,0.0262451171875,0.034912109375,-1.01953125,121.0,297.0,-157.0,101448.0,-1.0250000953674316,0,0
230.775995,-0.009765625,0.182891845703125,0.98284912109375,0.01995849609375,-0.1220703125,-0.06103515625,0.06103515625,0.0257568359375,0.036865234375,-1.019287109375,121.0,297.0,-157.0,101448.0,-1.0250000953674316,0,0
230.782994,-0.009765625,0.182891845703125,0.98284912109375,0.019927978515625,0.9765625,0.0,0.1220703125,0.02490234375,0.03662109375,-1.016845703125,121.0,297.0,-157.0,101448.0,-1.0250000953674316,0,0
230.789998,-0.009765625,0.182891845703125,0.98284912109375,0.019927978515625,-0.06103515625,-0.30517578125,0.30517578125,0.02734375,0.037109375,-1.017333984375,121.0,297.0,-157.0,101448.0,-1.0250000953674316,0,0
230.796998,-0.009765625,0.182891845703125,0.98284912109375,0.019927978515625,0.0,0.1220703125,0.06103515625,0.0264892578125,0.0347900390625,-1.01611328125,121.0,297.0,-157.0,101448.0,-1.0250000953674316,0,0
230.803997,-0.009765625,0.182891845703125,0.98284912109375,0.0198974609375,0.1220703125,-0.06103515625,-0.1220703125,0.027099609375,0.0352783203125,-1.01953125,122.0,295.0,-157.0,101448.0,-1.0250000953674316,0,0
230.824995,-0.009765625,0.18304443359375,0.98284912109375,0.019927978515625,0.1220703125,0.1220703125,-0.244140625,0.0269775390625,0.0362548828125,-1.0185546875,122.0,295.0,-157.0,101448.0,-1.0250000953674316,0,0
230.831028,-0.009765625,0.18304443359375,0.98284912109375,0.019927978515625,0.1220703125,0.1220703125,-0.244140625,0.0269775390625,0.0362548828125,-1.0185546875,122.0,295.0,-157.0,101448.0,-1.0250000953674316,0,0
230.837996,-0.009765625,0.18304443359375,0.98284912109375,0.019927978515625,-0.30517578125,0.06103515625,0.0,0.029052734375,0.0357666015625,-1.0194091796875,122.0,295.0,-157.0,101448.0,-1.0250000953674316,0,0
230.844996,-0.009765625,0.18304443359375,0.98284912109375,0.019927978515625,0.1220703125,0.06103515625,0.0,0.0291748046875,0.03662109375,-1.017822265625,122.0,295.0,-157.0,101448.0,-1.0250000953674316,0,0
230.851995,-0.009765625,0.18304443359375,0.98284912109375,0.019927978515625,-0.1220703125,0.0,0.0,0.0260009765625,0.0374755859375,-1.0189208984375,122.0,295.0,-157.0,101448.0,-1.0250000953674316,0,0
230.858996,-0.009765625,0.18304443359375,0.98284912109375,0.019927978515625,-0.06103515625,-0.06103515625,0.0,0.02685546875,0.03564453125,-1.0169677734375,122.0,295.0,-157.0,101448.0,-1.0250000953674316,0,0
230.865995,-0.009765625,0.18304443359375,0.98284912109375,0.019927978515625,-0.18310546875,0.0,0.18310546875,0.028076171875,0.0369873046875,-1.018310546875,122.0,295.0,-157.0,101448.0,-1.0240000486373901,0,0
230.872994,-0.009765625,0.18304443359375,0.98284912109375,0.019927978515625,0.1220703125,0.06103515625,-0.06103515625,0.02734375,0.0364990234375,-1.0166015625,122.0,295.0,-157.0,101448.0,-1.0240000486373901,0,0
230.879998,-0.009765625,0.18304443359375,0.98284912109375,0.019927978515625,0.0,0.0,-0.06103515625,0.02490234375,0.0377197265625,-1.0184326171875,122.0,295.0,-157.0,101448.0,-1.0240000486373901,0,0
230.886998,-0.009765625,0.18304443359375,0.98284912109375,0.019927978515625,-0.244140625,0.1220703125,-0.1220703125,0.027587890625,0.0361328125,-1.0186767578125,122.0,295.0,-157.0,101448.0,-1.0240000486373901,0,0
230.907996,-0.009765625,0.18304443359375,0.98284912109375,0.019927978515625,-0.1220703125,-0.1220703125,0.1220703125,0.026611328125,0.0364990234375,-1.0166015625,122.0,296.0,-157.0,101448.0,-1.0240000486373901,0,0
230.914996,-0.009765625,0.18304443359375,0.98284912109375,0.019927978515625,-0.06103515625,-0.06103515625,-0.06103515625,0.027099609375,0.034912109375,-1.017822265625,122.0,296.0,-157.0,101448.0,-1.0240000486373901,0,0
230.922,-0.009765625,0.18304443359375,0.98284912109375,0.019927978515625,0.0,-0.06103515625,0.06103515625,0.0267333984375,0.034423828125,-1.019287109375,122.0,296.0,-157.0,101448.0,-1.0240000486373901,0,0
230.928032,-0.009765625,0.18304443359375,0.98284912109375,0.019927978515625,0.0,-0.06103515625,0.06103515625,0.0267333984375,0.034423828125,-1.019287109375,122.0,296.0,-157.0,101448.0,-1.0240000486373901,0,0
230.934996,-0.009765625,0.18304443359375,0.98284912109375,0.019927978515625,-0.06103515625,0.18310546875,0.1220703125,0.0255126953125,0.03662109375,-1.0185546875,122.0,296.0,-157.0,101448.0,-1.0240000486373901,0,0
230.941996,-0.009765625,0.18304443359375,0.98284912109375,0.01995849609375,-0.1220703125,0.06103515625,0.06103515625,0.0272216796875,0.0362548828125,-1.01708984375,122.0,296.0,-157.0,101448.0,-1.0240000486373901,0,0
230.949,-0.009765625,0.18304443359375,0.98284912109375,0.01995849609375,0.18310546875,0.30517578125,0.1220703125,0.0279541015625,0.0372314453125,-1.0189208984375,122.0,296.0,-157.0,101448.0,-1.0240000486373901,0,0
230.955999,-0.009765625,0.18304443359375,0.98284912109375,0.01995849609375,-0.06103515625,-0.06103515625,0.42724609375,0.0260009765625,0.0361328125,-1.017333984375,122.0,296.0,-157.0,101448.0,-1.0240000486373901,0,0
230.962999,-0.009765625,0.18304443359375,0.98284912109375,0.019927978515625,-0.18310546875,0.0,0.0,0.0277099609375,0.03466796875,-1.017822265625,122.0,296.0,-157.0,101448.0,-1.0240000486373901,0,0
230.969998,-0.009765625,0.18304443359375,0.98284912109375,0.019927978515625,0.6103515625,-0.06103515625,-0.06103515625,0.02685546875,0.0355224609375,-1.0189208984375,122.0,296.0,-157.0,101447.0,-1.0230000019073486,0,0
230.976998,-0.009765625,0.18304443359375,0.98284912109375,0.019927978515625,-0.30517578125,-0.06103515625,-0.06103515625,0.028564453125,0.0345458984375,-1.019287109375,122.0,296.0,-157.0,101447.0,-1.0230000019073486,0,0
230.983997,-0.009765625,0.18304443359375,0.98284912109375,0.019927978515625,-0.48828125,-0.06103515625,-0.1220703125,0.029296875,0.0364990234375,-1.016845703125,122.0,296.0,-157.0,101447.0,-1.0230000019073486,0,0
230.990996,-0.009765625,0.18304443359375,0.98284912109375,0.019927978515625,-0.42724609375,-0.1220703125,-0.42724609375,0.027099609375,0.03662109375,-1.018310546875,122.0,296.0,-157.0,101447.0,-1.0230000019073486,0,0
230.997996,-0.009796142578125,0.18304443359375,0.98284912109375,0.019927978515625,0.42724609375,0.0,-0.1220703125,0.0296630859375,0.037109375,-1.017578125,122.0,296.0,-157.0,101447.0,-1.0230000019073486,0,0
231.004995,-0.009796142578125,0.18304443359375,0.98284912109375,0.019927978515625,0.0,-0.1220703125,0.18310546875,0.027587890625,0.0367431640625,-1.017822265625,122.0,296.0,-157.0,101447.0,-1.0230000019073486,0,0
231.011996,-0.009796142578125,0.18304443359375,0.98284912109375,0.01995849609375,-0.6103515625,-0.18310546875,-0.06103515625,0.0263671875,0.0374755859375,-1.017578125,122.0,296.0,-157.0,101447.0,-1.0230000019073486,0,0
231.018027,-0.009796142578125,0.18304443359375,0.98284912109375,0.01995849609375,-0.6103515625,-0.18310546875,-0.06103515625,0.0263671875,0.0374755859375,-1.017578125,122.0,296.0,-157.0,101447.0,-1.0230000019073486,0,0
231.024996,-0.009796142578125,0.18304443359375,0.98284912109375,0.0198974609375,0.06103515625,-0.06103515625,0.0,0.02734375,0.0377197265625,-1.0191650390625,122.0,296.0,-157.0,101447.0,-1.0230000019073486,0,0
231.031995,-0.009796142578125,0.18304443359375,0.98284912109375,0.0198974609375,0.3662109375,0.1220703125,-0.30517578125,0.0272216796875,0.036376953125,-1.0172119140625,122.0,296.0,-157.0,101447.0,-1.0230000019073486,0,0
231.038996,-0.009796142578125,0.18304443359375,0.98284912109375,0.0198974609375,-0.1220703125,-0.1220703125,0.0,0.0252685546875,0.0350341796875,-1.0184326171875,122.0,296.0,-157.0,101447.0,-1.0230000019073486,0,0
231.045995,-0.009796142578125,0.18304443359375,0.98284912109375,0.0198974609375,0.0,0.06103515625,0.06103515625,0.0263671875,0.03564453125,-1.0181884765625,122.0,296.0,-157.0,101447.0,-1.0230000019073486,0,0
231.052994,-0.009765625,0.18304443359375,0.98284912109375,0.0198974609375,-0.18310546875,-0.1220703125,0.1220703125,0.0247802734375,0.03564453125,-1.0191650390625,122.0,296.0,-157.0,101447.0,-1.0230000019073486,0,0
231.059998,-0.009765625,0.18304443359375,0.98284912109375,0.0198974609375,-0.8544921875,0.18310546875,-0.244140625,0.026123046875,0.038330078125,-1.0181884765625,122.0,296.0,-157.0,101447.0,-1.0230000019073486,0,0
231.066998,-0.009765625,0.18304443359375,0.98284912109375,0.0198974609375,0.0,0.0,0.18310546875,0.025146484375,0.034912109375,-1.0186767578125,122.0,296.0,-157.0,101447.0,-1.0230000019073486,0,0
231.080996,-0.009765625,0.18304443359375,0.98284912109375,0.0198974609375,-0.244140625,0.18310546875,-0.18310546875,0.024658203125,0.0360107421875,-1.0172119140625,122.0,296.0,-157.0,101447.0,-1.0230000019073486,0,0
231.087996,-0.009765625,0.18304443359375,0.98284912109375,0.019866943359375,-0.1220703125,0.06103515625,0.0,0.02783203125,0.035400390625,-1.0181884765625,122.0,296.0,-157.0,101447.0,-1.0230000019073486,0,0
231.094995,-0.009765625,0.18304443359375,0.98284912109375,0.0198974609375,-0.1220703125,0.06103515625,0.06103515625,0.0289306640625,0.0372314453125,-1.0172119140625,122.0,296.0,-157.0,101447.0,-1.0230000019073486,0,0
231.101996,-0.009765625,0.18304443359375,0.98284912109375,0.019866943359375,0.244140625,0.0,0.1220703125,0.0274658203125,0.0357666015625,-1.0177001953125,122.0,296.0,-157.0,101447.0,-1.0230000019073486,0,0
231.108995,-0.009765625,0.18304443359375,0.98284912109375,0.0198974609375,-0.1220703125,-0.06103515625,0.1220703125,0.02783203125,0.037353515625,-1.01806640625,122.0,297.0,-156.0,101447.0,-1.0230000019073486,0,0
231.115022,-0.009765625,0.18304443359375,0.98284912109375,0.0198974609375,-0.1220703125,-0.06103515625,0.1220703125,0.02783203125,0.037353515625,-1.01806640625,122.0,297.0,-156.0,101447.0,-1.0230000019073486,0,0
231.121995,-0.009796142578125,0.18304443359375,0.98284912109375,0.0198974609375,-0.30517578125,-0.06103515625,-0.06103515625,0.0302734375,0.0379638671875,-1.0177001953125,122.0,297.0,-156.0,101447.0,-1.0230000019073486,0,0
231.128996,-0.009796142578125,0.18304443359375,0.98284912109375,0.0198974609375,-0.1220703125,-0.18310546875,0.0,0.0289306640625,0.0380859375,-1.0179443359375,122.0,297.0,-156.0,101447.0,-1.0230000019073486,0,0
231.135995,-0.009796142578125,0.18304443359375,0.98284912109375,0.0198974609375,-0.30517578125,0.18310546875,-0.06103515625,0.0269775390625,0.03759765625,-1.0181884765625,122.0,297.0,-156.0,101447.0,-1.0230000019073486,0,0
231.142994,-0.009796142578125,0.18304443359375,0.98284912109375,0.019927978515625,-0.18310546875,0.06103515625,-0.18310546875,0.0283203125,0.0374755859375,-1.018310546875,122.0,297.0,-156.0,101447.0,-1.0230000019073486,0,0
231.149998,-0.009796142578125,0.18304443359375,0.98284912109375,0.019927978515625,-0.3662109375,-0.18310546875,0.1220703125,0.025146484375,0.0362548828125,-1.016845703125,122.0,297.0,-156.0,101447.0,-1.0230000019073486,0,0
231.170996,-0.009796142578125,0.18304443359375,0.98284912109375,0.0198974609375,0.30517578125,0.1220703125,0.0,0.027099609375,0.03662109375,-1.0174560546875,122.0,297.0,-156.0,101448.0,-1.0250000953674316,0,0
231.177996,-0.009765625,0.18304443359375,0.98284912109375,0.0198974609375,-0.48828125,0.06103515625,-0.06103515625,0.0267333984375,0.035888671875,-1.0184326171875,122.0,297.0,-156.0,101448.0,-1.0250000953674316,0,0
231.184996,-0.009796142578125,0.18304443359375,0.98284912109375,0.0198974609375,0.1220703125,-0.06103515625,-0.18310546875,0.027099609375,0.0330810546875,-1.0191650390625,122.0,297.0,-156.0,101448.0,-1.0250000953674316,0,0
231.192,-0.009796142578125,0.18304443359375,0.98284912109375,0.0198974609375,-0.06103515625,0.18310546875,-0.06103515625,0.0264892578125,0.03466796875,-1.01953125,122.0,297.0,-156.0,101448.0,-1.0250000953674316,0,0
231.198999,-0.009796142578125,0.18304443359375,0.98284912109375,0.0198974609375,0.06103515625,0.06103515625,0.0,0.027587890625,0.0362548828125,-1.018310546875,122.0,297.0,-156.0,101448.0,-1.0250000953674316,0,0
231.205032,-0.009796142578125,0.18304443359375,0.98284912109375,0.0198974609375,0.06103515625,0.06103515625,0.0,0.027587890625,0.0362548828125,-1.018310546875,122.0,297.0,-156.0,101448.0,-1.0250000953674316,0,0
231.211996,-0.009796142578125,0.18304443359375,0.98284912109375,0.0198974609375,0.06103515625,0.1220703125,-0.30517578125,0.027587890625,0.0340576171875,-1.017822265625,120.0,299.0,-157.0,101448.0,-1.0250000953674316,0,0
231.219,-0.009765625,0.18304443359375,0.98284912109375,0.019866943359375,0.0,-0.1220703125,-0.18310546875,0.0234375,0.03515625,-1.0177001953125,120.0,299.0,-157.0,101448.0,-1.0250000953674316,0,0
231.225999,-0.009765625,0.18304443359375,0.98284912109375,0.019866943359375,0.06103515625,-0.1220703125,0.06103515625,0.0247802734375,0.036376953125,-1.019287109375,120.0,299.0,-157.0,101448.0,-1.0250000953674316,0,0
231.232999,-0.009765625,0.18304443359375,0.98284912109375,0.019866943359375,-0.30517578125,-0.1220703125,0.06103515625,0.0244140625,0.033203125,-1.018310546875,120.0,299.0,-157.0,101448.0,-1.0250000953674316,0,0
231.239998,-0.009765625,0.18304443359375,0.98284912109375,0.019866943359375,0.1220703125,-0.1220703125,-0.1220703125,0.027587890625,0.033935546875,-1.019775390625,120.0,299.0,-157.0,101448.0,-1.0250000953674316,0,0
231.246998,-0.009765625,0.18304443359375,0.98284912109375,0.019866943359375,-0.1220703125,0.1220703125,-0.244140625,0.027587890625,0.03662109375,-1.0174560546875,120.0,299.0,-157.0,101448.0,-1.0250000953674316,0,0
231.253997,-0.009765625,0.18304443359375,0.98284912109375,0.01983642578125,0.0,-0.30517578125,0.06103515625,0.024658203125,0.0341796875,-1.017333984375,120.0,299.0,-157.0,101448.0,-1.0250000953674316,0,0
231.260996,-0.009765625,0.18304443359375,0.98284912109375,0.01983642578125,0.0,0.06103515625,0.06103515625,0.02685546875,0.0352783203125,-1.0172119140625,120.0,299.0,-157.0,101448.0,-1.0250000953674316,0,0
231.267996,-0.009735107421875,0.18304443359375,0.98284912109375,0.01983642578125,0.0,0.0,-0.1220703125,0.0252685546875,0.037109375,-1.01708984375,120.0,299.0,-157.0,101448.0,-1.0250000953674316,0,0
231.274996,-0.009735107421875,0.18304443359375,0.98284912109375,0.019866943359375,-0.3662109375,-0.18310546875,-0.18310546875,0.0272216796875,0.03857421875,-1.018310546875,120.0,299.0,-157.0,101448.0,-1.0250000953674316,0,0
231.281996,-0.009765625,0.18304443359375,0.98284912109375,0.019866943359375,-0.30517578125,-0.06103515625,-0.06103515625,0.0303955078125,0.0374755859375,-1.0177001953125,120.0,299.0,-157.0,101448.0,-1.0250000953674316,0,0
231.288995,-0.009765625,0.18304443359375,0.98284912109375,0.0198974609375,-0.06103515625,0.1220703125,-0.06103515625,0.029541015625,0.039794921875,-1.0177001953125,120.0,299.0,-157.0,101448.0,-1.0250000953674316,0,0
231.295994,-0.009765625,0.18304443359375,0.98284912109375,0.0198974609375,-0.244140625,-0.1220703125,0.30517578125,0.0308837890625,0.0374755859375,-1.0194091796875,120.0,299.0,-157.0,101448.0,-1.0250000953674316,0,0
231.302026,-0.009765625,0.18304443359375,0.98284912109375,0.0198974609375,-0.244140625,-0.1220703125,0.30517578125,0.0308837890625,0.0374755859375,-1.0194091796875,120.0,299.0,-157.0,101448.0,-1.0250000953674316,0,0
231.308996,-0.00982666015625,0.18304443359375,0.98284912109375,0.0198974609375,0.48828125,0.1220703125,-0.1220703125,0.0322265625,0.0364990234375,-1.0189208984375,121.0,299.0,-157.0,101448.0,-1.0250000953674316,0,0
231.315995,-0.00982666015625,0.18304443359375,0.98284912109375,0.0198974609375,-0.1220703125,-0.06103515625,-0.244140625,0.031005859375,0.0350341796875,-1.017333984375,121.0,299.0,-157.0,101448.0,-1.0250000953674316,0,0
231.322994,-0.009857177734375,0.18304443359375,0.98284912109375,0.019866943359375,0.244140625,0.06103515625,0.06103515625,0.0286865234375,0.0355224609375,-1.0198974609375,121.0,299.0,-157.0,101448.0,-1.0250000953674316,0,0
231.343997,-0.009857177734375,0.18304443359375,0.98284912109375,0.019866943359375,-0.18310546875,-0.1220703125,-0.1220703125,0.0250244140625,0.0390625,-1.017822265625,121.0,299.0,-157.0,101448.0,-1.0250000953674316,0,0
231.350996,-0.009857177734375,0.18304443359375,0.98284912109375,0.019866943359375,-0.3662109375,0.06103515625,0.244140625,0.0252685546875,0.0374755859375,-1.0164794921875,121.0,299.0,-157.0,101448.0,-1.0250000953674316,0,0
231.357996,-0.00982666015625,0.18304443359375,0.98284912109375,0.019866943359375,-0.18310546875,0.06103515625,-0.06103515625,0.02490234375,0.0369873046875,-1.01708984375,121.0,299.0,-157.0,101448.0,-1.0250000953674316,0,0
231.364995,-0.00982666015625,0.18304443359375,0.98284912109375,0.019866943359375,-0.06103515625,0.06103515625,0.1220703125,0.024658203125,0.0352783203125,-1.0191650390625,121.0,299.0,-157.0,101448.0,-1.0250000953674316,0,0
231.371996,-0.009796142578125,0.18304443359375,0.98284912109375,0.019866943359375,0.06103515625,-0.06103515625,0.0,0.024658203125,0.0362548828125,-1.0203857421875,121.0,299.0,-157.0,101448.0,-1.0250000953674316,0,0
231.378995,-0.009796142578125,0.18304443359375,0.98284912109375,0.019866943359375,0.06103515625,-0.06103515625,0.0,0.0218505859375,0.034912109375,-1.018310546875,121.0,299.0,-157.0,101448.0,-1.0250000953674316,0,0
231.385994,-0.009765625,0.18304443359375,0.98284912109375,0.01983642578125,0.0,-0.1220703125,-0.1220703125,0.02294921875,0.0364990234375,-1.01806640625,121.0,299.0,-157.0,101448.0,-1.0250000953674316,0,0
231.392026,-0.009765625,0.18304443359375,0.98284912109375,0.01983642578125,0.0,-0.1220703125,-0.1220703125,0.02294921875,0.0364990234375,-1.01806640625,121.0,299.0,-157.0,101448.0,-1.0250000953674316,0,0
231.398996,-0.009765625,0.18304443359375,0.98284912109375,0.01983642578125,0.06103515625,0.30517578125,0.06103515625,0.0263671875,0.0367431640625,-1.01806640625,121.0,299.0,-157.0,101448.0,-1.0250000953674316,0,0
231.405995,-0.009735107421875,0.18304443359375,0.98284912109375,0.01983642578125,0.06103515625,0.06103515625,-0.3662109375,0.0262451171875,0.0372314453125,-1.0179443359375,122.0,298.0,-158.0,101448.0,-1.0250000953674316,0,0
231.412994,-0.009735107421875,0.18304443359375,0.98284912109375,0.019866943359375,-0.244140625,0.06103515625,0.06103515625,0.02783203125,0.037109375,-1.01806640625,122.0,298.0,-158.0,101448.0,-1.0250000953674316,0,0
231.433997,-0.009796142578125,0.18304443359375,0.98284912109375,0.019866943359375,0.3662109375,0.06103515625,0.1220703125,0.030517578125,0.037841796875,-1.0169677734375,122.0,298.0,-158.0,101448.0,-1.0250000953674316,0,0
231.440996,-0.009796142578125,0.18304443359375,0.98284912109375,0.019866943359375,0.0,-0.30517578125,0.06103515625,0.02978515625,0.037109375,-1.0164794921875,122.0,298.0,-158.0,101448.0,-1.0250000953674316,0,0
231.447996,-0.009796142578125,0.18304443359375,0.98284912109375,0.019866943359375,-0.244140625,0.06103515625,-0.06103515625,0.028076171875,0.03564453125,-1.0172119140625,122.0,298.0,-158.0,101448.0,-1.0250000953674316,0,0
231.454995,-0.009796142578125,0.18304443359375,0.98284912109375,0.019866943359375,0.06103515625,0.30517578125,-0.30517578125,0.02734375,0.0350341796875,-1.0179443359375,122.0,298.0,-158.0,101448.0,-1.0250000953674316,0,0
231.461996,-0.00982666015625,0.18304443359375,0.98284912109375,0.019866943359375,0.3662109375,-0.1220703125,0.0,0.029052734375,0.034423828125,-1.016357421875,122.0,298.0,-158.0,101448.0,-1.0250000953674316,0,0
231.468995,-0.00982666015625,0.18304443359375,0.98284912109375,0.019866943359375,0.1220703125,-0.1220703125,0.1220703125,0.0286865234375,0.0352783203125,-1.018798828125,122.0,298.0,-158.0,101448.0,-1.0240000486373901,0,0
231.475994,-0.00982666015625,0.18304443359375,0.98284912109375,0.019866943359375,-0.18310546875,0.06103515625,0.06103515625,0.02783203125,0.03662109375,-1.01904296875,122.0,298.0,-158.0,101448.0,-1.0240000486373901,0,0
231.482998,-0.00982666015625,0.18304443359375,0.98284912109375,0.0198974609375,-0.06103515625,0.3662109375,-0.30517578125,0.0272216796875,0.0369873046875,-1.01806640625,122.0,298.0,-158.0,101448.0,-1.0240000486373901,0,0
231.489027,-0.00982666015625,0.18304443359375,0.98284912109375,0.0198974609375,-0.06103515625,0.3662109375,-0.30517578125,0.0272216796875,0.0369873046875,-1.01806640625,122.0,298.0,-158.0,101448.0,-1.0240000486373901,0,0
231.495999,-0.009796142578125,0.18304443359375,0.98284912109375,0.0198974609375,-0.06103515625,0.1220703125,-0.1220703125,0.022705078125,0.036865234375,-1.0184326171875,122.0,298.0,-158.0,101448.0,-1.0240000486373901,0,0
231.502999,-0.009796142578125,0.18304443359375,0.98284912109375,0.0198974609375,0.18310546875,0.0,-0.1220703125,0.0269775390625,0.038330078125,-1.0169677734375,122.0,298.0,-158.0,101448.0,-1.0240000486373901,0,0
231.509998,-0.009796142578125,0.18304443359375,0.98284912109375,0.0198974609375,-0.06103515625,0.0,0.06103515625,0.025634765625,0.038330078125,-1.018798828125,122.0,298.0,-155.0,101448.0,-1.0240000486373901,0,0
231.516998,-0.009796142578125,0.18304443359375,0.98284912109375,0.0198974609375,0.42724609375,-0.1220703125,0.18310546875,0.026611328125,0.0360107421875,-1.01904296875,122.0,298.0,-155.0,101448.0,-1.0240000486373901,0,0
231.523997,-0.009796142578125,0.18304443359375,0.98284912109375,0.019927978515625,0.06103515625,-0.06103515625,-0.18310546875,0.0284423828125,0.037841796875,-1.0186767578125,122.0,298.0,-155.0,101448.0,-1.0240000486373901,0,0
231.530996,-0.009796142578125,0.18304443359375,0.98284912109375,0.019927978515625,-0.1220703125,0.244140625,0.0,0.0299072265625,0.0380859375,-1.0181884765625,122.0,298.0,-155.0,101448.0,-1.0240000486373901,0,0
231.537996,-0.00982666015625,0.18304443359375,0.98284912109375,0.019927978515625,-0.1220703125,-0.06103515625,0.1220703125,0.0289306640625,0.0380859375,-1.0194091796875,122.0,298.0,-155.0,101448.0,-1.0240000486373901,0,0
231.544996,-0.00982666015625,0.18304443359375,0.98284912109375,0.019927978515625,-0.06103515625,-0.244140625,-0.1220703125,0.0286865234375,0.0352783203125,-1.017822265625,122.0,298.0,-155.0,101448.0,-1.0240000486373901,0,0
231.552,-0.00982666015625,0.18304443359375,0.98284912109375,0.019927978515625,0.06103515625,0.1220703125,0.1220703125,0.0264892578125,0.034423828125,-1.01708984375,122.0,298.0,-155.0,101448.0,-1.0240000486373901,0,0
231.558999,-0.00982666015625,0.18304443359375,0.98284912109375,0.0198974609375,-0.06103515625,-0.244140625,-0.06103515625,0.0262451171875,0.03515625,-1.017578125,122.0,298.0,-155.0,101448.0,-1.0240000486373901,0,0
231.565999,-0.009796142578125,0.18304443359375,0.98284912109375,0.0198974609375,-0.30517578125,-0.1220703125,0.18310546875,0.02587890625,0.0360107421875,-1.0186767578125,122.0,298.0,-155.0,101448.0,-1.0240000486373901,0,0
231.572998,-0.009796142578125,0.18304443359375,0.98284912109375,0.0198974609375,-0.244140625,-0.18310546875,0.1220703125,0.0262451171875,0.0343017578125,-1.0177001953125,122.0,298.0,-155.0,101448.0,-1.0250000953674316,0,0
231.579026,-0.009796142578125,0.18304443359375,0.98284912109375,0.0198974609375,-0.244140625,-0.18310546875,0.1220703125,0.0262451171875,0.0343017578125,-1.0177001953125,122.0,298.0,-155.0,101448.0,-1.0250000953674316,0,0
231.585995,-0.009765625,0.18304443359375,0.98284912109375,0.019927978515625,0.0,-0.1220703125,0.18310546875,0.0252685546875,0.038818359375,-1.0179443359375,122.0,298.0,-155.0,101448.0,-1.0250000953674316,0,0
231.606998,-0.009735107421875,0.18304443359375,0.98284912109375,0.0198974609375,-0.30517578125,0.30517578125,-0.06103515625,0.0255126953125,0.0343017578125,-1.0177001953125,122.0,296.0,-156.0,101448.0,-1.0250000953674316,0,0
231.613997,-0.009735107421875,0.18304443359375,0.98284912109375,0.0198974609375,-0.244140625,0.30517578125,-0.06103515625,0.0274658203125,0.03466796875,-1.017333984375,122.0,296.0,-156.0,101448.0,-1.0250000953674316,0,0
231.620996,-0.009735107421875,0.18304443359375,0.98284912109375,0.0198974609375,-0.1220703125,-0.1220703125,-0.06103515625,0.026611328125,0.0367431640625,-1.018798828125,122.0,296.0,-156.0,101448.0,-1.0250000953674316,0,0
231.627996,-0.009765625,0.18304443359375,0.98284912109375,0.0198974609375,-0.244140625,-0.06103515625,0.18310546875,0.0303955078125,0.0360107421875,-1.0172119140625,122.0,296.0,-156.0,101448.0,-1.0250000953674316,0,0
231.634995,-0.009765625,0.18304443359375,0.98284912109375,0.0198974609375,-0.1220703125,0.0,-0.06103515625,0.0284423828125,0.037109375,-1.0189208984375,122.0,296.0,-156.0,101448.0,-1.0250000953674316,0,0
231.641996,-0.009765625,0.18304443359375,0.98284912109375,0.0198974609375,0.18310546875,0.06103515625,-0.06103515625,0.029541015625,0.03759765625,-1.0159912109375,122.0,296.0,-156.0,101448.0,-1.0250000953674316,0,0
231.648995,-0.009796142578125,0.18304443359375,0.98284912109375,0.019927978515625,0.06103515625,0.06103515625,-0.06103515625,0.030517578125,0.038818359375,-1.0177001953125,122.0,296.0,-156.0,101448.0,-1.0250000953674316,0,0
231.655994,-0.00982666015625,0.18304443359375,0.982818603515625,0.01995849609375,0.0,0.06103515625,0.0,0.0302734375,0.0389404296875,-1.015869140625,122.0,296.0,-156.0,101448.0,-1.0250000953674316,0,0
231.662998,-0.00982666015625,0.18304443359375,0.982818603515625,0.01995849609375,0.1220703125,0.06103515625,-0.18310546875,0.03271484375,0.039306640625,-1.017822265625,122.0,296.0,-156.0,101448.0,-1.0250000953674316,0,0
231.669998,-0.009857177734375,0.18304443359375,0.982818603515625,0.01995849609375,-0.18310546875,-0.30517578125,-0.06103515625,0.029296875,0.0369873046875,-1.0186767578125,122.0,296.0,-156.0,101448.0,-1.0250000953674316,0,0
231.67603,-0.009857177734375,0.18304443359375,0.982818603515625,0.01995849609375,-0.18310546875,-0.30517578125,-0.06103515625,0.029296875,0.0369873046875,-1.0186767578125,122.0,296.0,-156.0,101448.0,-1.0250000953674316,0,0
231.696998,-0.0098876953125,0.18304443359375,0.982818603515625,0.019927978515625,0.3662109375,0.18310546875,0.1220703125,0.0263671875,0.0345458984375,-1.0174560546875,122.0,296.0,-156.0,101448.0,-1.0250000953674316,0,0
231.703997,-0.0098876953125,0.18304443359375,0.982818603515625,0.019927978515625,0.0,-0.18310546875,0.1220703125,0.02685546875,0.0360107421875,-1.0185546875,122.0,296.0,-156.0,101448.0,-1.0250000953674316,0,0
231.710996,-0.009857177734375,0.18304443359375,0.982818603515625,0.019927978515625,0.0,-0.06103515625,-0.244140625,0.024169921875,0.03515625,-1.017822265625,121.0,297.0,-154.0,101448.0,-1.0250000953674316,0,0
231.717996,-0.009857177734375,0.18304443359375,0.982818603515625,0.019927978515625,-0.30517578125,0.0,0.1220703125,0.026123046875,0.0341796875,-1.0172119140625,121.0,297.0,-154.0,101448.0,-1.0250000953674316,0,0
231.724995,-0.009857177734375,0.18304443359375,0.982818603515625,0.019927978515625,0.244140625,0.0,0.0,0.025634765625,0.0380859375,-1.017578125,121.0,297.0,-154.0,101448.0,-1.0250000953674316,0,0
231.731996,-0.00982666015625,0.18304443359375,0.982818603515625,0.019927978515625,-0.1220703125,0.0,-0.1220703125,0.024169921875,0.036865234375,-1.0159912109375,121.0,297.0,-154.0,101448.0,-1.0250000953674316,0,0
231.738995,-0.00982666015625,0.18304443359375,0.98284912109375,0.019927978515625,0.244140625,-0.1220703125,0.0,0.021728515625,0.0372314453125,-1.0164794921875,121.0,297.0,-154.0,101448.0,-1.0250000953674316,0,0
231.745994,-0.009796142578125,0.18310546875,0.982818603515625,0.01995849609375,-0.79345703125,-0.06103515625,1.89208984375,0.0299072265625,0.0369873046875,-1.0167236328125,121.0,297.0,-154.0,101448.0,-1.0250000953674316,0,0
231.752998,-0.0098876953125,0.183441162109375,0.982757568359375,0.02001953125,-2.685546875,-0.244140625,9.27734375,0.0635986328125,0.02294921875,-1.023681640625,121.0,297.0,-154.0,101448.0,-1.0250000953674316,0,0
231.759998,-0.010284423828125,0.1851806640625,0.982421875,0.0203857421875,-5.79833984375,-0.30517578125,18.98193359375,0.1026611328125,0.0274658203125,-1.0216064453125,121.0,297.0,-154.0,101448.0,-1.0250000953674316,0,0
231.76603,-0.010284423828125,0.1851806640625,0.982421875,0.0203857421875,-5.79833984375,-0.30517578125,18.98193359375,0.1026611328125,0.0274658203125,-1.0216064453125,121.0,297.0,-154.0,101448.0,-1.0250000953674316,0,0
231.772994,-0.010711669921875,0.190277099609375,0.9814453125,0.020782470703125,-2.3193359375,-4.45556640625,56.2744140625,0.0654296875,0.04638671875,-1.011962890625,121.0,297.0,-154.0,101448.0,-1.0260000228881836,0,0
231.779998,-0.010711669921875,0.1947021484375,0.98052978515625,0.021636962890625,2.197265625,-14.0380859375,64.697265625,0.0828857421875,0.1143798828125,-0.9915771484375,121.0,297.0,-154.0,101448.0,-1.0260000228881836,0,0
231.786998,-0.0107421875,0.19927978515625,0.979644775390625,0.021026611328125,-4.39453125,-4.94384765625,64.51416015625,0.0380859375,0.0406494140625,-0.9869384765625,121.0,297.0,-154.0,101448.0,-1.0260000228881836,0,0
231.793997,-0.01068115234375,0.201080322265625,0.979248046875,0.021575927734375,-12.26806640625,0.0,52.8564453125,0.032958984375,0.0908203125,-1.0098876953125,121.0,297.0,-154.0,101448.0,-1.0260000228881836,0,0
231.800996,-0.010040283203125,0.2041015625,0.9786376953125,0.02166748046875,-3.0517578125,-4.21142578125,45.7763671875,-0.0494384765625,0.0638427734375,-1.0655517578125,121.0,297.0,-154.0,101448.0,-1.0260000228881836,0,0
231.807996,-0.009857177734375,0.205841064453125,0.978271484375,0.022430419921875,-6.40869140625,2.13623046875,19.04296875,-0.012451171875,0.0477294921875,-1.0113525390625,121.0,297.0,-154.0,101448.0,-1.0260000228881836,0,0
231.814996,-0.009735107421875,0.205108642578125,0.978424072265625,0.02252197265625,-4.21142578125,-0.30517578125,10.19287109375,-0.013427734375,0.0399169921875,-1.02978515625,119.0,297.0,-154.0,101448.0,-1.0260000228881836,0,0
231.822,-0.009552001953125,0.205078125,0.978424072265625,0.022491455078125,0.6103515625,-0.6103515625,1.89208984375,-0.0047607421875,0.052490234375,-1.002197265625,119.0,297.0,-154.0,101448.0,-1.0260000228881836,0,0
231.828999,-0.009246826171875,0.204925537109375,0.97845458984375,0.022369384765625,1.46484375,-0.1220703125,-2.74658203125,-0.0570068359375,0.0467529296875,-1.018310546875,119.0,297.0,-154.0,101448.0,-1.0260000228881836,0,0
231.835999,-0.009124755859375,0.204864501953125,0.978485107421875,0.022369384765625,-0.48828125,0.54931640625,-1.953125,-0.0150146484375,0.0391845703125,-1.0224609375,119.0,297.0,-154.0,101448.0,-1.0260000228881836,0,0
231.842998,-0.009124755859375,0.204864501953125,0.978485107421875,0.022369384765625,-0.42724609375,0.48828125,0.18310546875,0.0274658203125,0.0428466796875,-1.0177001953125,119.0,297.0,-154.0,101448.0,-1.0260000228881836,0,0
231.849998,-0.00909423828125,0.204864501953125,0.978485107421875,0.022369384765625,-0.18310546875,0.244140625,-0.18310546875,0.0262451171875,0.038818359375,-1.0167236328125,119.0,297.0,-154.0,101448.0,-1.0260000228881836,0,0
231.869998,-0.009063720703125,0.204864501953125,0.978485107421875,0.022003173828125,3.41796875,-1.28173828125,0.0,0.024658203125,0.0350341796875,-1.018798828125,119.0,297.0,-154.0,101448.0,-1.0260000228881836,0,0
231.876998,-0.009063720703125,0.204864501953125,0.978485107421875,0.02191162109375,1.3427734375,-0.48828125,-0.06103515625,0.0272216796875,0.036376953125,-1.0189208984375,119.0,297.0,-154.0,101448.0,-1.0260000228881836,0,0
231.883997,-0.009033203125,0.204864501953125,0.978485107421875,0.02191162109375,-0.9765625,0.18310546875,-0.6103515625,0.022216796875,0.0345458984375,-1.01806640625,119.0,297.0,-154.0,101448.0,-1.0260000228881836,0,0
231.890996,-0.009033203125,0.204345703125,0.97857666015625,0.021942138671875,-1.5869140625,0.18310546875,-5.06591796875,0.0213623046875,0.0234375,-1.01708984375,119.0,297.0,-154.0,101448.0,-1.0260000228881836,0,0
231.897996,-0.009002685546875,0.20404052734375,0.978668212890625,0.02203369140625,-3.60107421875,0.79345703125,-9.521484375,0.023681640625,0.026123046875,-1.017333984375,119.0,297.0,-154.0,101448.0,-1.0260000228881836,0,0
231.904995,-0.009002685546875,0.20367431640625,0.978729248046875,0.022125244140625,-3.662109375,0.91552734375,-10.1318359375,0.0252685546875,0.032470703125,-1.01904296875,119.0,297.0,-154.0,101448.0,-1.0260000228881836,0,0
231.911996,-0.00897216796875,0.20355224609375,0.978759765625,0.022064208984375,-2.25830078125,0.3662109375,-9.6435546875,0.02392578125,0.0299072265625,-1.01904296875,121.0,297.0,-153.0,101448.0,-1.0260000228881836,0,0
231.918995,-0.00897216796875,0.203277587890625,0.97882080078125,0.0220947265625,-0.67138671875,0.0,-7.87353515625,0.0286865234375,0.0399169921875,-1.015625,121.0,297.0,-153.0,101448.0,-1.0260000228881836,0,0
231.925994,-0.00897216796875,0.203033447265625,0.978851318359375,0.022064208984375,0.244140625,0.0,-7.4462890625,0.0289306640625,0.040283203125,-1.0179443359375,121.0,297.0,-153.0,101448.0,-1.0260000228881836,0,0
231.932998,-0.008941650390625,0.202178955078125,0.979034423828125,0.02203369140625,-0.30517578125,-0.30517578125,-8.72802734375,0.02734375,0.0333251953125,-1.0157470703125,121.0,297.0,-153.0,101448.0,-1.0260000228881836,0,0
231.939998,-0.008941650390625,0.201934814453125,0.979095458984375,0.022064208984375,0.54931640625,0.0,-7.32421875,0.031005859375,0.052001953125,-1.019287109375,121.0,297.0,-153.0,101448.0,-1.0260000228881836,0,0
231.959998,-0.00897216796875,0.20159912109375,0.979156494140625,0.02215576171875,-0.48828125,0.1220703125,-0.06103515625,0.026123046875,0.03759765625,-1.0181884765625,121.0,297.0,-153.0,101448.0,-1.0260000228881836,0,0
231.966998,-0.00897216796875,0.20159912109375,0.979156494140625,0.02215576171875,-0.42724609375,0.1220703125,0.1220703125,0.028076171875,0.0396728515625,-1.01904296875,121.0,297.0,-153.0,101448.0,-1.0260000228881836,0,0
231.973997,-0.009002685546875,0.20159912109375,0.979156494140625,0.022125244140625,0.54931640625,0.18310546875,0.1220703125,0.0283203125,0.0399169921875,-1.0157470703125,121.0,297.0,-153.0,101448.0,-1.0260000228881836,0,0
231.980996,-0.009002685546875,0.20159912109375,0.979156494140625,0.022125244140625,-0.18310546875,-0.244140625,-0.1220703125,0.029296875,0.037353515625,-1.01904296875,121.0,297.0,-153.0,101448.0,-1.0260000228881836,0,0
232.043996,-0.009002685546875,0.201995849609375,0.97906494140625,0.022003173828125,-0.18310546875,-0.06103515625,-0.06103515625,0.0262451171875,0.0399169921875,-1.0184326171875,122.0,296.0,-154.0,101448.0,-1.0250000953674316,0,0
232.050029,-0.009002685546875,0.201995849609375,0.97906494140625,0.022003173828125,-0.18310546875,-0.06103515625,-0.06103515625,0.0262451171875,0.0399169921875,-1.0184326171875,122.0,296.0,-154.0,101448.0,-1.0250000953674316,0,0
232.056998,-0.009002685546875,0.201995849609375,0.97906494140625,0.02197265625,-0.1220703125,-0.18310546875,-0.30517578125,0.02490234375,0.037841796875,-1.0181884765625,122.0,296.0,-154.0,101448.0,-1.0250000953674316,0,0
232.063997,-0.00897216796875,0.201995849609375,0.97906494140625,0.021942138671875,-0.30517578125,-0.18310546875,-0.06103515625,0.0252685546875,0.0374755859375,-1.0179443359375,122.0,296.0,-154.0,101448.0,-1.0250000953674316,0,0
232.070996,-0.00897216796875,0.201995849609375,0.97906494140625,0.021942138671875,-0.30517578125,0.06103515625,-0.06103515625,0.0257568359375,0.037109375,-1.0185546875,122.0,296.0,-154.0,101448.0,-1.0250000953674316,0,0
232.077996,-0.00897216796875,0.201995849609375,0.97906494140625,0.021942138671875,-0.18310546875,-0.06103515625,0.244140625,0.0272216796875,0.0384521484375,-1.016357421875,122.0,296.0,-154.0,101448.0,-1.0250000953674316,0,0
232.084996,-0.00897216796875,0.201995849609375,0.97906494140625,0.021942138671875,-0.244140625,-0.06103515625,-0.18310546875,0.026123046875,0.0377197265625,-1.0198974609375,122.0,296.0,-154.0,101448.0,-1.0250000953674316,0,0
232.092,-0.00897216796875,0.201995849609375,0.97906494140625,0.02191162109375,-0.30517578125,0.0,0.244140625,0.0263671875,0.037353515625,-1.018310546875,122.0,296.0,-154.0,101448.0,-1.0250000953674316,0,0
232.098999,-0.00897216796875,0.201995849609375,0.97906494140625,0.02191162109375,0.0,-0.1220703125,-0.244140625,0.02685546875,0.0377197265625,-1.0186767578125,122.0,296.0,-154.0,101448.0,-1.0250000953674316,0,0
232.105999,-0.00897216796875,0.201995849609375,0.97906494140625,0.02191162109375,-0.244140625,0.0,0.0,0.0286865234375,0.0372314453125,-1.019775390625,122.0,296.0,-154.0,101448.0,-1.0250000953674316,0,0
232.112998,-0.00897216796875,0.201995849609375,0.97906494140625,0.02191162109375,-0.1220703125,0.30517578125,-0.244140625,0.026123046875,0.039306640625,-1.0177001953125,123.0,296.0,-152.0,101448.0,-1.0250000953674316,0,0
232.133996,-0.00897216796875,0.20208740234375,0.97906494140625,0.021881103515625,-0.06103515625,-0.1220703125,0.1220703125,0.0281982421875,0.038818359375,-1.0167236328125,123.0,296.0,-152.0,101448.0,-1.0250000953674316,0,0
232.140029,-0.00897216796875,0.20208740234375,0.97906494140625,0.021881103515625,-0.06103515625,-0.1220703125,0.1220703125,0.0281982421875,0.038818359375,-1.0167236328125,123.0,296.0,-152.0,101448.0,-1.0250000953674316,0,0
232.146998,-0.009002685546875,0.20208740234375,0.97906494140625,0.021881103515625,-0.1220703125,0.0,-0.1220703125,0.0301513671875,0.03759765625,-1.0201416015625,123.0,296.0,-152.0,101448.0,-1.0250000953674316,0,0
232.153997,-0.009002685546875,0.20208740234375,0.97906494140625,0.0218505859375,0.06103515625,-0.244140625,-0.1220703125,0.0308837890625,0.0384521484375,-1.0177001953125,123.0,296.0,-152.0,101448.0,-1.0250000953674316,0,0
232.160996,-0.009002685546875,0.20208740234375,0.97906494140625,0.0218505859375,-0.1220703125,-0.06103515625,0.0,0.030517578125,0.0384521484375,-1.018798828125,123.0,296.0,-152.0,101448.0,-1.0250000953674316,0,0
232.167996,-0.009033203125,0.20208740234375,0.97906494140625,0.0218505859375,-0.1220703125,0.18310546875,-0.18310546875,0.0286865234375,0.0372314453125,-1.01708984375,123.0,296.0,-152.0,101448.0,-1.0250000953674316,0,0
232.174996,-0.009033203125,0.20208740234375,0.97906494140625,0.021820068359375,-0.06103515625,0.0,-0.1220703125,0.0279541015625,0.0372314453125,-1.017822265625,123.0,296.0,-152.0,101448.0,-1.0250000953674316,0,0
232.181996,-0.009033203125,0.20208740234375,0.97906494140625,0.0218505859375,-0.54931640625,0.06103515625,-0.1220703125,0.028076171875,0.0396728515625,-1.0152587890625,123.0,296.0,-152.0,101448.0,-1.0250000953674316,0,0
232.188995,-0.009063720703125,0.20208740234375,0.97906494140625,0.021820068359375,0.0,0.0,0.1220703125,0.0296630859375,0.0400390625,-1.0166015625,123.0,296.0,-152.0,101448.0,-1.0250000953674316,0,0
232.195994,-0.009063720703125,0.20208740234375,0.97906494140625,0.021820068359375,-0.30517578125,0.18310546875,0.1220703125,0.028076171875,0.039306640625,-1.019287109375,123.0,296.0,-152.0,101448.0,-1.0250000953674316,0,0
232.216997,-0.009063720703125,0.20233154296875,0.97900390625,0.021820068359375,-0.244140625,-0.1220703125,-0.06103515625,0.0263671875,0.037841796875,-1.0179443359375,125.0,296.0,-150.0,101448.0,-1.0250000953674316,0,0
232.223996,-0.009063720703125,0.20233154296875,0.97900390625,0.02178955078125,-0.42724609375,-0.06103515625,0.244140625,0.0257568359375,0.0364990234375,-1.01806640625,125.0,296.0,-150.0,101448.0,-1.0250000953674316,0,0
232.230029,-0.009063720703125,0.20233154296875,0.97900390625,0.02178955078125,-0.42724609375,-0.06103515625,0.244140625,0.0257568359375,0.0364990234375,-1.01806640625,125.0,296.0,-150.0,101448.0,-1.0250000953674316,0,0
232.236998,-0.009033203125,0.20233154296875,0.97900390625,0.02178955078125,0.0,0.06103515625,-0.1220703125,0.027099609375,0.0390625,-1.0167236328125,125.0,296.0,-150.0,101448.0,-1.0250000953674316,0,0
232.243997,-0.009033203125,0.20233154296875,0.97900390625,0.02178955078125,-0.1220703125,-0.18310546875,-0.06103515625,0.0235595703125,0.037841796875,-1.017822265625,125.0,296.0,-150.0,101448.0,-1.0250000953674316,0,0
232.250996,-0.009033203125,0.20233154296875,0.97900390625,0.021759033203125,-0.244140625,-0.1220703125,-0.06103515625,0.0242919921875,0.0380859375,-1.018798828125,125.0,296.0,-150.0,101448.0,-1.0250000953674316,0,0
232.257996,-0.009002685546875,0.20233154296875,0.97900390625,0.021759033203125,-0.244140625,-0.06103515625,0.06103515625,0.024169921875,0.0377197265625,-1.0172119140625,125.0,296.0,-150.0,101448.0,-1.0250000953674316,0,0
232.264995,-0.009002685546875,0.20233154296875,0.97900390625,0.021728515625,-0.1220703125,0.3662109375,0.0,0.025634765625,0.038330078125,-1.018310546875,125.0,296.0,-150.0,101448.0,-1.0250000953674316,0,0
232.271996,-0.009002685546875,0.20233154296875,0.97900390625,0.021728515625,-0.48828125,0.06103515625,0.0,0.0262451171875,0.039306640625,-1.0189208984375,125.0,296.0,-150.0,101448.0,-1.0250000953674316,0,0
232.278995,-0.009002685546875,0.20233154296875,0.97900390625,0.021728515625,0.42724609375,0.0,-0.3662109375,0.0250244140625,0.0361328125,-1.0177001953125,125.0,296.0,-150.0,101448.0,-1.0250000953674316,0,0
232.285994,-0.009033203125,0.20233154296875,0.97900390625,0.021728515625,-0.3662109375,0.1220703125,-0.1220703125,0.0283203125,0.038818359375,-1.01611328125,125.0,296.0,-150.0,101448.0,-1.0250000953674316,0,0
232.292998,-0.009033203125,0.20233154296875,0.97900390625,0.021728515625,0.0,0.0,0.1220703125,0.0263671875,0.0404052734375,-1.0164794921875,125.0,296.0,-150.0,101448.0,-1.0250000953674316,0,0
232.299998,-0.009033203125,0.20233154296875,0.97900390625,0.021697998046875,0.244140625,0.18310546875,-0.1220703125,0.02734375,0.0374755859375,-1.0186767578125,125.0,296.0,-150.0,101448.0,-1.0250000953674316,0,0
232.306997,-0.009033203125,0.20233154296875,0.97900390625,0.021697998046875,-0.18310546875,-0.1220703125,-0.06103515625,0.0294189453125,0.0404052734375,-1.0177001953125,125.0,296.0,-150.0,101448.0,-1.0250000953674316,0,0
232.313996,-0.009033203125,0.20233154296875,0.97900390625,0.021697998046875,-0.06103515625,0.30517578125,-0.18310546875,0.027587890625,0.0379638671875,-1.017333984375,126.0,297.0,-149.0,101448.0,-1.0250000953674316,0,0
232.320996,-0.009063720703125,0.201873779296875,0.9791259765625,0.021697998046875,-0.06103515625,-0.18310546875,-0.06103515625,0.029052734375,0.0390625,-1.018310546875,126.0,297.0,-149.0,101448.0,-1.0250000953674316,0,0
232.327028,-0.009063720703125,0.201873779296875,0.9791259765625,0.021697998046875,-0.06103515625,-0.18310546875,-0.06103515625,0.029052734375,0.0390625,-1.018310546875,126.0,297.0,-149.0,101448.0,-1.0250000953674316,0,0
232.333997,-0.00909423828125,0.201873779296875,0.9791259765625,0.021697998046875,-0.244140625,0.0,0.18310546875,0.0296630859375,0.0399169921875,-1.0172119140625,126.0,297.0,-149.0,101448.0,-1.0250000953674316,0,0
232.340996,-0.00909423828125,0.201873779296875,0.9791259765625,0.021697998046875,-0.42724609375,0.244140625,-0.1220703125,0.02880859375,0.0391845703125,-1.0174560546875,126.0,297.0,-149.0,101448.0,-1.0250000953674316,0,0
232.347996,-0.00909423828125,0.201873779296875,0.9791259765625,0.021697998046875,-0.1220703125,0.0,-0.18310546875,0.02685546875,0.0377197265625,-1.0186767578125,126.0,297.0,-149.0,101448.0,-1.0250000953674316,0,0
232.354995,-0.00909423828125,0.201873779296875,0.9791259765625,0.021697998046875,-0.244140625,-0.06103515625,0.244140625,0.0272216796875,0.0404052734375,-1.019287109375,126.0,297.0,-149.0,101448.0,-1.0250000953674316,0,0
232.361996,-0.00909423828125,0.201873779296875,0.9791259765625,0.02166748046875,-0.30517578125,0.0,-0.18310546875,0.0267333984375,0.0374755859375,-1.01806640625,126.0,297.0,-149.0,101448.0,-1.0250000953674316,0,0
232.368995,-0.00909423828125,0.201873779296875,0.9791259765625,0.02166748046875,-0.1220703125,0.0,0.0,0.0240478515625,0.03857421875,-1.017822265625,126.0,297.0,-149.0,101448.0,-1.0250000953674316,0,0
232.375994,-0.00909423828125,0.201873779296875,0.9791259765625,0.02166748046875,-0.06103515625,0.244140625,-0.244140625,0.0247802734375,0.036865234375,-1.0167236328125,126.0,297.0,-149.0,101448.0,-1.0250000953674316,0,0
232.396997,-0.009063720703125,0.201873779296875,0.9791259765625,0.021636962890625,0.18310546875,0.18310546875,0.0,0.0264892578125,0.040283203125,-1.0189208984375,126.0,297.0,-149.0,101448.0,-1.0250000953674316,0,0
232.403996,-0.009063720703125,0.201873779296875,0.9791259765625,0.021636962890625,-0.18310546875,-0.1220703125,-0.1220703125,0.0269775390625,0.0394287109375,-1.0179443359375,126.0,297.0,-149.0,101448.0,-1.0250000953674316,0,0
232.410996,-0.009063720703125,0.201873779296875,0.9791259765625,0.021636962890625,-0.06103515625,0.244140625,-0.18310546875,0.026123046875,0.036865234375,-1.0169677734375,126.0,297.0,-149.0,101448.0,-1.0250000953674316,0,0
232.417028,-0.009063720703125,0.201873779296875,0.9791259765625,0.021636962890625,-0.06103515625,0.244140625,-0.18310546875,0.026123046875,0.036865234375,-1.0169677734375,126.0,297.0,-149.0,101448.0,-1.0250000953674316,0,0
232.423997,-0.009063720703125,0.201385498046875,0.979217529296875,0.0216064453125,-0.18310546875,-0.18310546875,-0.06103515625,0.0260009765625,0.037109375,-1.01708984375,126.0,297.0,-149.0,101448.0,-1.0250000953674316,0,0
232.430996,-0.009063720703125,0.201385498046875,0.979217529296875,0.021575927734375,0.0,0.18310546875,0.0,0.0274658203125,0.03759765625,-1.01708984375,126.0,297.0,-149.0,101448.0,-1.0250000953674316,0,0
232.437996,-0.009063720703125,0.201385498046875,0.979217529296875,0.021575927734375,0.1220703125,-0.18310546875,0.1220703125,0.0277099609375,0.037109375,-1.0164794921875,126.0,297.0,-149.0,101448.0,-1.0250000953674316,0,0
232.444996,-0.009063720703125,0.201385498046875,0.979217529296875,0.021575927734375,-0.30517578125,0.1220703125,0.1220703125,0.0260009765625,0.038818359375,-1.016357421875,126.0,297.0,-149.0,101448.0,-1.0250000953674316,0,0
232.452,-0.009063720703125,0.201385498046875,0.979217529296875,0.021575927734375,0.1220703125,-0.18310546875,-0.1220703125,0.0264892578125,0.0418701171875,-1.0186767578125,126.0,297.0,-149.0,101448.0,-1.0250000953674316,0,0
232.458999,-0.009063720703125,0.201385498046875,0.979217529296875,0.021575927734375,0.244140625,0.06103515625,0.0,0.0283203125,0.0379638671875,-1.01708984375,126.0,297.0,-149.0,101448.0,-1.0250000953674316,0,0
232.479998,-0.00909423828125,0.201385498046875,0.979217529296875,0.021575927734375,-0.30517578125,-0.18310546875,0.0,0.028076171875,0.03955078125,-1.01904296875,126.0,297.0,-149.0,101448.0,-1.0250000953674316,0,0
232.486997,-0.00909423828125,0.201385498046875,0.979217529296875,0.02154541015625,0.06103515625,0.244140625,0.244140625,0.0279541015625,0.0361328125,-1.0184326171875,126.0,297.0,-149.0,101448.0,-1.0250000953674316,0,0
232.493996,-0.00909423828125,0.201385498046875,0.979217529296875,0.02154541015625,-0.244140625,0.1220703125,0.0,0.0274658203125,0.037109375,-1.0184326171875,126.0,297.0,-149.0,101448.0,-1.0250000953674316,0,0
232.500996,-0.00909423828125,0.201385498046875,0.979217529296875,0.02154541015625,-0.06103515625,0.06103515625,-0.06103515625,0.0272216796875,0.035400390625,-1.0159912109375,126.0,297.0,-149.0,101448.0,-1.0250000953674316,0,0
232.507995,-0.00909423828125,0.201385498046875,0.979217529296875,0.02154541015625,0.244140625,0.0,-0.06103515625,0.028564453125,0.0391845703125,-1.0169677734375,126.0,297.0,-149.0,101448.0,-1.0250000953674316,0,0
232.514028,-0.00909423828125,0.201385498046875,0.979217529296875,0.02154541015625,0.244140625,0.0,-0.06103515625,0.028564453125,0.0391845703125,-1.0169677734375,126.0,297.0,-149.0,101448.0,-1.0250000953674316,0,0
232.520996,-0.009124755859375,0.201080322265625,0.979278564453125,0.02154541015625,0.06103515625,0.244140625,-0.18310546875,0.0274658203125,0.0390625,-1.0184326171875,128.0,298.0,-149.0,101448.0,-1.0250000953674316,0,0
232.527996,-0.009124755859375,0.201080322265625,0.979278564453125,0.02154541015625,-0.1220703125,0.0,0.18310546875,0.0277099609375,0.041259765625,-1.0194091796875,128.0,298.0,-149.0,101448.0,-1.0250000953674316,0,0
232.534995,-0.009124755859375,0.201080322265625,0.979278564453125,0.02154541015625,-0.06103515625,0.06103515625,0.1220703125,0.02685546875,0.0396728515625,-1.01806640625,128.0,298.0,-149.0,101448.0,-1.0250000953674316,0,0
232.541996,-0.009124755859375,0.201080322265625,0.979278564453125,0.02154541015625,-0.1220703125,-0.1220703125,-0.1220703125,0.026123046875,0.0394287109375,-1.0172119140625,128.0,298.0,-149.0,101448.0,-1.0250000953674316,0,0
232.548995,-0.009124755859375,0.201080322265625,0.979278564453125,0.02154541015625,-0.06103515625,0.1220703125,0.18310546875,0.0286865234375,0.039794921875,-1.018798828125,128.0,298.0,-149.0,101448.0,-1.0250000953674316,0,0
232.555994,-0.009124755859375,0.201080322265625,0.979278564453125,0.02154541015625,-0.18310546875,0.06103515625,0.18310546875,0.0296630859375,0.0400390625,-1.0179443359375,128.0,298.0,-149.0,101448.0,-1.0250000953674316,0,0
232.562998,-0.0091552734375,0.201080322265625,0.979278564453125,0.02154541015625,0.0,0.244140625,-0.06103515625,0.0306396484375,0.0406494140625,-1.0179443359375,128.0,298.0,-149.0,101448.0,-1.0250000953674316,0,0
232.569998,-0.009185791015625,0.201080322265625,0.979278564453125,0.02154541015625,-0.1220703125,-0.1220703125,0.06103515625,0.0328369140625,0.0374755859375,-1.0181884765625,128.0,298.0,-149.0,101448.0,-1.0250000953674316,0,0
232.576997,-0.00921630859375,0.201080322265625,0.979278564453125,0.02154541015625,-0.18310546875,0.18310546875,-0.06103515625,0.0333251953125,0.0377197265625,-1.0203857421875,128.0,298.0,-149.0,101448.0,-1.0250000953674316,0,0
232.583996,-0.009246826171875,0.201080322265625,0.979278564453125,0.02154541015625,-0.30517578125,0.18310546875,-0.1220703125,0.0323486328125,0.03759765625,-1.017578125,128.0,298.0,-149.0,101448.0,-1.0250000953674316,0,0
232.590996,-0.00927734375,0.201080322265625,0.979278564453125,0.02154541015625,-0.3662109375,0.1220703125,0.0,0.03173828125,0.0394287109375,-1.0177001953125,128.0,298.0,-149.0,101448.0,-1.0250000953674316,0,0
232.597995,-0.00927734375,0.201080322265625,0.979278564453125,0.021575927734375,-0.42724609375,0.06103515625,-0.06103515625,0.0301513671875,0.038818359375,-1.01708984375,128.0,298.0,-149.0,101448.0,-1.0250000953674316,0,0
232.604028,-0.00927734375,0.201080322265625,0.979278564453125,0.021575927734375,-0.42724609375,0.06103515625,-0.06103515625,0.0301513671875,0.038818359375,-1.01708984375,128.0,298.0,-149.0,101448.0,-1.0250000953674316,0,0
232.610996,-0.009307861328125,0.201080322265625,0.979278564453125,0.021575927734375,-0.244140625,-0.1220703125,0.06103515625,0.0279541015625,0.0396728515625,-1.017822265625,128.0,298.0,-149.0,101448.0,-1.0250000953674316,0,0
232.617996,-0.009307861328125,0.20086669921875,0.97930908203125,0.021575927734375,-0.244140625,0.06103515625,0.0,0.026123046875,0.0377197265625,-1.0181884765625,130.0,300.0,-148.0,101448.0,-1.0250000953674316,0,0
232.624995,-0.00927734375,0.20086669921875,0.97930908203125,0.02154541015625,-0.30517578125,-0.1220703125,0.0,0.023193359375,0.0357666015625,-1.017822265625,130.0,300.0,-148.0,101448.0,-1.0250000953674316,0,0
232.631996,-0.009246826171875,0.20086669921875,0.97930908203125,0.02154541015625,-0.67138671875,-0.1220703125,0.30517578125,0.0206298828125,0.035888671875,-1.017333984375,130.0,300.0,-148.0,101448.0,-1.0260000228881836,0,0
232.652998,-0.0091552734375,0.20086669921875,0.97930908203125,0.021453857421875,0.0,-0.06103515625,0.06103515625,0.0191650390625,0.0374755859375,-1.017578125,130.0,300.0,-148.0,101448.0,-1.0260000228881836,0,0
232.659998,-0.009124755859375,0.20086669921875,0.979339599609375,0.021453857421875,-0.18310546875,-0.1220703125,0.0,0.018310546875,0.038818359375,-1.017578125,130.0,300.0,-148.0,101448.0,-1.0260000228881836,0,0
232.666997,-0.00909423828125,0.20086669921875,0.979339599609375,0.021453857421875,-0.30517578125,0.18310546875,0.0,0.0205078125,0.0389404296875,-1.020263671875,130.0,300.0,-148.0,101448.0,-1.0260000228881836,0,0
232.673996,-0.009063720703125,0.20086669921875,0.979339599609375,0.02142333984375,-0.06103515625,-0.06103515625,0.06103515625,0.0220947265625,0.0382080078125,-1.01904296875,130.0,300.0,-148.0,101448.0,-1.0260000228881836,0,0
232.680996,-0.009063720703125,0.20086669921875,0.979339599609375,0.02142333984375,-0.06103515625,-0.06103515625,0.06103515625,0.0238037109375,0.0341796875,-1.01611328125,130.0,300.0,-148.0,101448.0,-1.0260000228881836,0,0
232.687996,-0.009063720703125,0.20086669921875,0.979339599609375,0.021392822265625,-0.18310546875,-0.18310546875,-0.1220703125,0.0257568359375,0.035888671875,-1.0196533203125,130.0,300.0,-148.0,101448.0,-1.0260000228881836,0,0
232.695,-0.009063720703125,0.20086669921875,0.979339599609375,0.021392822265625,-0.18310546875,-0.06103515625,0.0,0.0277099609375,0.0372314453125,-1.017578125,130.0,300.0,-148.0,101448.0,-1.0260000228881836,0,0
232.701032,-0.009063720703125,0.20086669921875,0.979339599609375,0.021392822265625,-0.18310546875,-0.06103515625,0.0,0.0277099609375,0.0372314453125,-1.017578125,130.0,300.0,-148.0,101448.0,-1.0260000228881836,0,0
232.707996,-0.009063720703125,0.20086669921875,0.979339599609375,0.021392822265625,0.1220703125,0.244140625,0.06103515625,0.0277099609375,0.0399169921875,-1.015380859375,130.0,300.0,-148.0,101448.0,-1.0260000228881836,0,0
232.714996,-0.00909423828125,0.200714111328125,0.9793701171875,0.021392822265625,-0.244140625,0.30517578125,0.1220703125,0.0311279296875,0.041259765625,-1.017333984375,131.0,300.0,-148.0,101448.0,-1.0260000228881836,0,0
232.722,-0.009124755859375,0.200714111328125,0.9793701171875,0.021392822265625,0.18310546875,0.0,0.06103515625,0.0322265625,0.0404052734375,-1.015869140625,131.0,300.0,-148.0,101448.0,-1.0260000228881836,0,0
232.742998,-0.00921630859375,0.200714111328125,0.9793701171875,0.02142333984375,0.3662109375,0.0,0.06103515625,0.0313720703125,0.0384521484375,-1.018310546875,131.0,300.0,-148.0,101448.0,-1.0260000228881836,0,0
232.749998,-0.009246826171875,0.200714111328125,0.9793701171875,0.02142333984375,-0.30517578125,-0.1220703125,0.18310546875,0.03369140625,0.0380859375,-1.0152587890625,131.0,300.0,-148.0,101448.0,-1.0260000228881836,0,0
232.756997,-0.009246826171875,0.200714111328125,0.9793701171875,0.02142333984375,-0.244140625,-0.06103515625,0.0,0.0277099609375,0.0380859375,-1.0166015625,131.0,300.0,-148.0,101448.0,-1.0260000228881836,0,0
232.763996,-0.009246826171875,0.200714111328125,0.9793701171875,0.02142333984375,-0.3662109375,0.1220703125,0.0,0.0279541015625,0.041259765625,-1.0206298828125,131.0,300.0,-148.0,101448.0,-1.0260000228881836,0,0
232.770996,-0.009246826171875,0.200714111328125,0.9793701171875,0.021392822265625,-0.06103515625,0.06103515625,0.1220703125,0.0279541015625,0.0333251953125,-1.0166015625,131.0,300.0,-148.0,101448.0,-1.0260000228881836,0,0
232.777995,-0.009246826171875,0.200714111328125,0.9793701171875,0.021392822265625,-0.1220703125,-0.18310546875,-0.1220703125,0.027587890625,0.0355224609375,-1.0174560546875,131.0,300.0,-148.0,101448.0,-1.0260000228881836,0,0
232.784996,-0.009246826171875,0.200714111328125,0.9793701171875,0.0213623046875,-0.06103515625,-0.1220703125,-0.1220703125,0.0238037109375,0.0394287109375,-1.0203857421875,131.0,300.0,-148.0,101448.0,-1.0260000228881836,0,0
232.791027,-0.009246826171875,0.200714111328125,0.9793701171875,0.0213623046875,-0.06103515625,-0.1220703125,-0.1220703125,0.0238037109375,0.0394287109375,-1.0203857421875,131.0,300.0,-148.0,101448.0,-1.0260000228881836,0,0
232.797996,-0.00921630859375,0.200714111328125,0.9793701171875,0.0213623046875,0.0,-0.1220703125,-0.1220703125,0.0238037109375,0.0406494140625,-1.017822265625,131.0,300.0,-148.0,101448.0,-1.0260000228881836,0,0
232.804995,-0.009185791015625,0.200714111328125,0.9793701171875,0.0213623046875,0.06103515625,0.06103515625,0.06103515625,0.0223388671875,0.038818359375,-1.0186767578125,131.0,300.0,-148.0,101448.0,-1.0260000228881836,0,0
232.811996,-0.0091552734375,0.200714111328125,0.9793701171875,0.0213623046875,0.244140625,-0.06103515625,0.244140625,0.02197265625,0.0400390625,-1.015869140625,131.0,300.0,-148.0,101448.0,-1.0260000228881836,0,0
232.860996,-0.00909423828125,0.200469970703125,0.979400634765625,0.021331787109375,-0.1220703125,-0.1220703125,0.1220703125,0.0244140625,0.0396728515625,-1.01904296875,131.0,301.0,-147.0,101448.0,-1.0250000953674316,0,0
232.867995,-0.00909423828125,0.200469970703125,0.979400634765625,0.02130126953125,-0.244140625,0.0,-0.06103515625,0.0283203125,0.03759765625,-1.018310546875,131.0,301.0,-147.0,101448.0,-1.0250000953674316,0,0
232.874996,-0.009124755859375,0.200469970703125,0.979400634765625,0.02130126953125,0.244140625,0.06103515625,-0.1220703125,0.030517578125,0.0391845703125,-1.0162353515625,131.0,301.0,-147.0,101448.0,-1.0250000953674316,0,0
232.881995,-0.009124755859375,0.200469970703125,0.979400634765625,0.02130126953125,0.0,0.0,0.3662109375,0.0291748046875,0.0384521484375,-1.017578125,131.0,301.0,-147.0,101448.0,-1.0250000953674316,0,0
232.888022,-0.009124755859375,0.200469970703125,0.979400634765625,0.02130126953125,0.0,0.0,0.3662109375,0.0291748046875,0.0384521484375,-1.017578125,131.0,301.0,-147.0,101448.0,-1.0250000953674316,0,0
232.894995,-0.0091552734375,0.200469970703125,0.979400634765625,0.021331787109375,-0.18310546875,0.0,0.244140625,0.0306396484375,0.03955078125,-1.019287109375,131.0,301.0,-147.0,101448.0,-1.0250000953674316,0,0
232.915994,-0.009185791015625,0.200469970703125,0.979400634765625,0.021331787109375,0.0,0.0,-0.1220703125,0.0301513671875,0.034423828125,-1.01513671875,132.0,301.0,-147.0,101448.0,-1.0250000953674316,0,0
232.922998,-0.00921630859375,0.200408935546875,0.97943115234375,0.02130126953125,-0.06103515625,-0.06103515625,-0.18310546875,0.0291748046875,0.0355224609375,-1.0208740234375,132.0,301.0,-147.0,101448.0,-1.0250000953674316,0,0
232.929998,-0.00921630859375,0.200408935546875,0.97943115234375,0.02130126953125,0.06103515625,0.06103515625,0.30517578125,0.02978515625,0.0355224609375,-1.017578125,132.0,301.0,-147.0,101448.0,-1.0240000486373901,0,0
232.936997,-0.009246826171875,0.200408935546875,0.97943115234375,0.02130126953125,-0.244140625,0.06103515625,-0.18310546875,0.0311279296875,0.0404052734375,-1.0177001953125,132.0,301.0,-147.0,101448.0,-1.0240000486373901,0,0
232.943996,-0.009246826171875,0.200408935546875,0.97943115234375,0.02130126953125,0.0,-0.30517578125,0.06103515625,0.0277099609375,0.0419921875,-1.0157470703125,132.0,301.0,-147.0,101448.0,-1.0240000486373901,0,0
232.950996,-0.009246826171875,0.200408935546875,0.97943115234375,0.021331787109375,-0.06103515625,0.1220703125,-0.18310546875,0.029052734375,0.0394287109375,-1.0162353515625,132.0,301.0,-147.0,101448.0,-1.0240000486373901,0,0
232.957995,-0.009246826171875,0.200408935546875,0.97943115234375,0.021331787109375,-0.18310546875,0.0,-0.244140625,0.0250244140625,0.0374755859375,-1.01708984375,132.0,301.0,-147.0,101448.0,-1.0240000486373901,0,0
232.964996,-0.009246826171875,0.200408935546875,0.97943115234375,0.02130126953125,-0.1220703125,-0.18310546875,-0.06103515625,0.026123046875,0.03662109375,-1.0177001953125,132.0,301.0,-147.0,101448.0,-1.0240000486373901,0,0
233.005999,-0.0091552734375,0.200408935546875,0.97943115234375,0.021270751953125,0.0,0.0,0.0,0.023681640625,0.03759765625,-1.0177001953125,132.0,301.0,-147.0,101448.0,-1.0240000486373901,0,0
233.012998,-0.009124755859375,0.200408935546875,0.97943115234375,0.021270751953125,-0.06103515625,-0.244140625,0.0,0.0233154296875,0.03759765625,-1.0172119140625,132.0,301.0,-147.0,101448.0,-1.0240000486373901,0,0
233.019998,-0.009124755859375,0.2003173828125,0.97943115234375,0.021240234375,-0.1220703125,0.0,0.18310546875,0.02490234375,0.03564453125,-1.0186767578125,132.0,301.0,-148.0,101448.0,-1.0240000486373901,0,0
233.026997,-0.009124755859375,0.2003173828125,0.97943115234375,0.021240234375,-0.244140625,0.1220703125,0.1220703125,0.0263671875,0.03466796875,-1.019287109375,132.0,301.0,-148.0,101448.0,-1.0240000486373901,0,0
233.033996,-0.009124755859375,0.2003173828125,0.97943115234375,0.021240234375,-0.244140625,-0.06103515625,0.0,0.0277099609375,0.0369873046875,-1.0162353515625,132.0,301.0,-148.0,101448.0,-1.0240000486373901,0,0
233.040996,-0.009124755859375,0.2003173828125,0.97943115234375,0.021240234375,-0.6103515625,-0.244140625,0.0,0.0283203125,0.0389404296875,-1.015869140625,132.0,301.0,-148.0,101448.0,-1.0240000486373901,0,0
233.047996,-0.009124755859375,0.2003173828125,0.97943115234375,0.021240234375,-0.42724609375,0.06103515625,0.30517578125,0.02880859375,0.040771484375,-1.01708984375,132.0,301.0,-148.0,101448.0,-1.0240000486373901,0,0
233.055,-0.0091552734375,0.2003173828125,0.97943115234375,0.021240234375,0.06103515625,-0.06103515625,-0.30517578125,0.029052734375,0.0367431640625,-1.0169677734375,132.0,301.0,-148.0,101448.0,-1.0240000486373901,0,0
233.061999,-0.0091552734375,0.2003173828125,0.97943115234375,0.021240234375,-0.18310546875,-0.244140625,-0.3662109375,0.027587890625,0.03857421875,-1.0181884765625,132.0,301.0,-148.0,101448.0,-1.0240000486373901,0,0
233.068999,-0.009185791015625,0.2003173828125,0.97943115234375,0.021240234375,-0.54931640625,-0.18310546875,0.18310546875,0.030517578125,0.0364990234375,-1.0177001953125,132.0,301.0,-148.0,101448.0,-1.0240000486373901,0,0
233.088995,-0.00921630859375,0.2003173828125,0.97943115234375,0.021270751953125,-0.06103515625,0.0,-0.06103515625,0.0299072265625,0.0413818359375,-1.016357421875,132.0,301.0,-148.0,101448.0,-1.0250000953674316,0,0
233.095994,-0.00921630859375,0.2003173828125,0.97943115234375,0.021270751953125,0.0,0.06103515625,-0.06103515625,0.0284423828125,0.039306640625,-1.0166015625,132.0,301.0,-148.0,101448.0,-1.0250000953674316,0,0
233.102998,-0.00921630859375,0.2003173828125,0.97943115234375,0.021240234375,0.0,-0.1220703125,0.0,0.0267333984375,0.0364990234375,-1.0186767578125,132.0,301.0,-148.0,101448.0,-1.0250000953674316,0,0
233.109998,-0.00921630859375,0.2003173828125,0.97943115234375,0.021240234375,-0.3662109375,-0.06103515625,0.18310546875,0.0257568359375,0.0361328125,-1.0184326171875,132.0,301.0,-148.0,101448.0,-1.0250000953674316,0,0
233.116997,-0.00921630859375,0.2003173828125,0.97943115234375,0.021240234375,-0.06103515625,0.1220703125,-0.30517578125,0.0267333984375,0.037353515625,-1.0169677734375,132.0,300.0,-149.0,101448.0,-1.0250000953674316,0,0
233.123996,-0.00921630859375,0.2003173828125,0.97943115234375,0.021240234375,-0.30517578125,-0.06103515625,-0.42724609375,0.0260009765625,0.038818359375,-1.01708984375,132.0,300.0,-149.0,101448.0,-1.0250000953674316,0,0
233.130996,-0.00921630859375,0.2003173828125,0.97943115234375,0.021240234375,-0.18310546875,-0.06103515625,0.0,0.026123046875,0.039794921875,-1.017333984375,132.0,300.0,-149.0,101448.0,-1.0250000953674316,0,0
233.137995,-0.009185791015625,0.2003173828125,0.97943115234375,0.021240234375,-0.30517578125,-0.06103515625,-0.06103515625,0.0242919921875,0.0408935546875,-1.0157470703125,132.0,300.0,-149.0,101448.0,-1.0250000953674316,0,0
233.144996,-0.009185791015625,0.2003173828125,0.97943115234375,0.021240234375,0.0,0.1220703125,-0.1220703125,0.0233154296875,0.0377197265625,-1.0169677734375,132.0,300.0,-149.0,101448.0,-1.0250000953674316,0,0
233.151995,-0.0091552734375,0.2003173828125,0.97943115234375,0.021209716796875,-0.18310546875,-0.18310546875,0.06103515625,0.0235595703125,0.036865234375,-1.0185546875,132.0,300.0,-149.0,101448.0,-1.0250000953674316,0,0
233.158994,-0.0091552734375,0.2003173828125,0.97943115234375,0.021209716796875,0.06103515625,0.06103515625,-0.06103515625,0.023681640625,0.036376953125,-1.0172119140625,132.0,300.0,-149.0,101448.0,-1.0250000953674316,0,0
233.178995,-0.009124755859375,0.2003173828125,0.97943115234375,0.02117919921875,0.1220703125,-0.06103515625,-0.18310546875,0.0240478515625,0.036865234375,-1.0186767578125,132.0,300.0,-149.0,101448.0,-1.0250000953674316,0,0
233.185994,-0.009124755859375,0.2003173828125,0.97943115234375,0.02117919921875,-0.18310546875,0.1220703125,0.1220703125,0.0267333984375,0.0382080078125,-1.0174560546875,132.0,300.0,-149.0,101448.0,-1.0250000953674316,0,0
233.192998,-0.009124755859375,0.2003173828125,0.97943115234375,0.02117919921875,-0.244140625,0.06103515625,0.06103515625,0.0260009765625,0.0380859375,-1.0169677734375,132.0,300.0,-149.0,101448.0,-1.0250000953674316,0,0
233.199998,-0.009124755859375,0.2003173828125,0.97943115234375,0.02117919921875,-0.06103515625,0.1220703125,-0.1220703125,0.027099609375,0.0391845703125,-1.0174560546875,132.0,300.0,-149.0,101448.0,-1.0250000953674316,0,0
233.268995,-0.009246826171875,0.20025634765625,0.979461669921875,0.021209716796875,0.1220703125,0.06103515625,-0.244140625,0.0289306640625,0.03857421875,-1.018798828125,131.0,299.0,-149.0,101448.0,-1.0250000953674316,0,0
233.275994,-0.00927734375,0.20025634765625,0.979461669921875,0.021209716796875,-0.18310546875,0.0,0.0,0.0274658203125,0.03857421875,-1.017578125,131.0,299.0,-149.0,101448.0,-1.0250000953674316,0,0
233.282998,-0.00927734375,0.20025634765625,0.979461669921875,0.02117919921875,-0.42724609375,0.30517578125,-0.06103515625,0.0277099609375,0.034912109375,-1.0179443359375,131.0,299.0,-149.0,101448.0,-1.0250000953674316,0,0
233.289998,-0.00927734375,0.20025634765625,0.979461669921875,0.02117919921875,-0.1220703125,-0.06103515625,0.1220703125,0.0274658203125,0.037109375,-1.019287109375,131.0,299.0,-149.0,101448.0,-1.0250000953674316,0,0
233.296997,-0.00927734375,0.20025634765625,0.979461669921875,0.021148681640625,-0.244140625,-0.244140625,0.0,0.026123046875,0.0372314453125,-1.0167236328125,131.0,299.0,-149.0,101448.0,-1.0250000953674316,0,0
233.303996,-0.00927734375,0.20025634765625,0.979461669921875,0.021148681640625,0.1220703125,-0.3662109375,0.06103515625,0.0272216796875,0.0382080078125,-1.017333984375,131.0,299.0,-149.0,101448.0,-1.0250000953674316,0,0
233.310996,-0.009246826171875,0.20025634765625,0.979461669921875,0.02117919921875,-0.1220703125,-0.1220703125,-0.1220703125,0.0244140625,0.0377197265625,-1.0179443359375,131.0,299.0,-149.0,101448.0,-1.0250000953674316,0,0
233.317996,-0.009246826171875,0.20025634765625,0.979461669921875,0.02117919921875,0.18310546875,0.0,-0.18310546875,0.0269775390625,0.0391845703125,-1.0179443359375,132.0,298.0,-150.0,101448.0,-1.0250000953674316,0,0
233.325,-0.009246826171875,0.20025634765625,0.979461669921875,0.02117919921875,0.06103515625,-0.18310546875,0.0,0.0263671875,0.040283203125,-1.0162353515625,132.0,298.0,-150.0,101448.0,-1.0250000953674316,0,0
233.331999,-0.00921630859375,0.20025634765625,0.979461669921875,0.02117919921875,0.06103515625,-0.30517578125,0.42724609375,0.0230712890625,0.038818359375,-1.017578125,132.0,298.0,-150.0,101448.0,-1.0250000953674316,0,0
233.338999,-0.00921630859375,0.20025634765625,0.979461669921875,0.021148681640625,-0.06103515625,-0.06103515625,0.30517578125,0.0255126953125,0.0361328125,-1.0181884765625,132.0,298.0,-150.0,101448.0,-1.0250000953674316,0,0
233.345998,-0.00921630859375,0.20025634765625,0.979461669921875,0.021148681640625,-0.1220703125,-0.244140625,0.0,0.0245361328125,0.035400390625,-1.01708984375,132.0,298.0,-150.0,101448.0,-1.0250000953674316,0,0
233.352027,-0.00921630859375,0.20025634765625,0.979461669921875,0.021148681640625,-0.1220703125,-0.244140625,0.0,0.0245361328125,0.035400390625,-1.01708984375,132.0,298.0,-150.0,101448.0,-1.0250000953674316,0,0
233.358999,-0.00921630859375,0.20025634765625,0.979461669921875,0.021148681640625,0.1220703125,0.0,-0.18310546875,0.0269775390625,0.038818359375,-1.0169677734375,132.0,298.0,-150.0,101448.0,-1.0250000953674316,0,0
233.365999,-0.00921630859375,0.20025634765625,0.979461669921875,0.021148681640625,-0.06103515625,-0.1220703125,0.0,0.0252685546875,0.0394287109375,-1.017333984375,132.0,298.0,-150.0,101448.0,-1.0250000953674316,0,0
233.372998,-0.00921630859375,0.20025634765625,0.979461669921875,0.021148681640625,0.1220703125,-0.06103515625,-0.3662109375,0.0283203125,0.0377197265625,-1.01806640625,132.0,298.0,-150.0,101448.0,-1.0250000953674316,0,0
233.379998,-0.00921630859375,0.20025634765625,0.979461669921875,0.021148681640625,-0.18310546875,-0.06103515625,0.1220703125,0.02880859375,0.0374755859375,-1.016357421875,132.0,298.0,-150.0,101448.0,-1.0250000953674316,0,0
233.386997,-0.00921630859375,0.20025634765625,0.979461669921875,0.021148681640625,0.06103515625,0.06103515625,-0.30517578125,0.0277099609375,0.03662109375,-1.0162353515625,132.0,298.0,-150.0,101448.0,-1.0250000953674316,0,0
233.393996,-0.00921630859375,0.20025634765625,0.979461669921875,0.021148681640625,0.1220703125,-0.18310546875,-0.1220703125,0.028564453125,0.0390625,-1.017822265625,132.0,298.0,-150.0,101448.0,-1.0250000953674316,0,0
233.400996,-0.009246826171875,0.20025634765625,0.979461669921875,0.021148681640625,-0.18310546875,0.18310546875,0.1220703125,0.0296630859375,0.0379638671875,-1.0169677734375,132.0,298.0,-150.0,101448.0,-1.0250000953674316,0,0
233.407995,-0.009246826171875,0.20025634765625,0.979461669921875,0.021148681640625,-0.18310546875,-0.06103515625,0.06103515625,0.0281982421875,0.0374755859375,-1.0169677734375,132.0,298.0,-150.0,101448.0,-1.0250000953674316,0,0
233.414996,-0.009246826171875,0.20025634765625,0.979461669921875,0.021148681640625,-0.1220703125,0.18310546875,0.0,0.028564453125,0.03857421875,-1.01611328125,131.0,299.0,-148.0,101448.0,-1.0250000953674316,0,0
233.421995,-0.009246826171875,0.200164794921875,0.979461669921875,0.021148681640625,-0.18310546875,-0.244140625,-0.1220703125,0.0283203125,0.0389404296875,-1.018310546875,131.0,299.0,-148.0,101448.0,-1.0250000953674316,0,0
233.442998,-0.00927734375,0.200164794921875,0.979461669921875,0.021148681640625,-0.30517578125,0.06103515625,0.244140625,0.0279541015625,0.0384521484375,-1.0177001953125,131.0,299.0,-148.0,101448.0,-1.0250000953674316,0,0
233.44903,-0.00927734375,0.200164794921875,0.979461669921875,0.021148681640625,-0.30517578125,0.06103515625,0.244140625,0.0279541015625,0.0384521484375,-1.0177001953125,131.0,299.0,-148.0,101448.0,-1.0250000953674316,0,0
233.455994,-0.00927734375,0.200164794921875,0.979461669921875,0.0211181640625,-1.0986328125,-0.1220703125,-0.244140625,0.026611328125,0.0374755859375,-1.017822265625,131.0,299.0,-148.0,101448.0,-1.0250000953674316,0,0
233.462998,-0.00927734375,0.200164794921875,0.979461669921875,0.021148681640625,-0.06103515625,0.06103515625,0.1220703125,0.027099609375,0.0390625,-1.01513671875,131.0,299.0,-148.0,101448.0,-1.0250000953674316,0,0
233.469998,-0.00927734375,0.200164794921875,0.979461669921875,0.021148681640625,-0.1220703125,0.244140625,0.244140625,0.0274658203125,0.04052734375,-1.0181884765625,131.0,299.0,-148.0,101448.0,-1.0250000953674316,0,0
233.476997,-0.00927734375,0.200164794921875,0.979461669921875,0.021148681640625,0.06103515625,-0.06103515625,-0.06103515625,0.027099609375,0.0411376953125,-1.0167236328125,131.0,299.0,-148.0,101448.0,-1.0250000953674316,0,0
233.483996,-0.009246826171875,0.200164794921875,0.979461669921875,0.021148681640625,-0.30517578125,0.18310546875,0.06103515625,0.0255126953125,0.040283203125,-1.01611328125,131.0,299.0,-148.0,101447.0,-1.0230000019073486,0,0
233.490996,-0.009246826171875,0.200164794921875,0.979461669921875,0.021148681640625,0.06103515625,0.06103515625,-0.244140625,0.02587890625,0.0379638671875,-1.0162353515625,131.0,299.0,-148.0,101447.0,-1.0230000019073486,0,0
233.497995,-0.009246826171875,0.200164794921875,0.979461669921875,0.021148681640625,-0.30517578125,0.0,-0.18310546875,0.025146484375,0.0384521484375,-1.01806640625,131.0,299.0,-148.0,101447.0,-1.0230000019073486,0,0
233.504996,-0.009246826171875,0.200164794921875,0.979461669921875,0.0211181640625,-0.18310546875,0.0,-0.244140625,0.0264892578125,0.0350341796875,-1.01708984375,131.0,299.0,-148.0,101447.0,-1.0230000019073486,0,0
233.511995,-0.009246826171875,0.200164794921875,0.979461669921875,0.0211181640625,-0.244140625,0.0,0.06103515625,0.02490234375,0.0372314453125,-1.0157470703125,131.0,299.0,-148.0,101447.0,-1.0230000019073486,0,0
233.525998,-0.009246826171875,0.20001220703125,0.9794921875,0.0211181640625,-0.18310546875,0.0,0.244140625,0.0263671875,0.0394287109375,-1.015869140625,130.0,298.0,-150.0,101447.0,-1.0230000019073486,0,0
233.532998,-0.009246826171875,0.20001220703125,0.9794921875,0.0211181640625,-0.06103515625,0.06103515625,0.1220703125,0.027587890625,0.0394287109375,-1.0166015625,130.0,298.0,-150.0,101447.0,-1.0230000019073486,0,0
233.53903,-0.009246826171875,0.20001220703125,0.9794921875,0.0211181640625,-0.06103515625,0.06103515625,0.1220703125,0.027587890625,0.0394287109375,-1.0166015625,130.0,298.0,-150.0,101447.0,-1.0230000019073486,0,0
233.545994,-0.009246826171875,0.20001220703125,0.9794921875,0.0211181640625,0.06103515625,-0.1220703125,-0.06103515625,0.027099609375,0.03759765625,-1.0185546875,130.0,298.0,-150.0,101447.0,-1.0230000019073486,0,0
233.552998,-0.009246826171875,0.20001220703125,0.9794921875,0.0211181640625,-0.3662109375,0.06103515625,0.0,0.027587890625,0.0379638671875,-1.0185546875,130.0,298.0,-150.0,101447.0,-1.0230000019073486,0,0
233.559998,-0.009246826171875,0.20001220703125,0.9794921875,0.0211181640625,0.06103515625,-0.06103515625,0.1220703125,0.028076171875,0.039794921875,-1.0172119140625,130.0,298.0,-150.0,101447.0,-1.0230000019073486,0,0
233.566997,-0.009246826171875,0.20001220703125,0.9794921875,0.0211181640625,0.18310546875,0.0,0.0,0.02880859375,0.0400390625,-1.0185546875,130.0,298.0,-150.0,101447.0,-1.0230000019073486,0,0
233.573996,-0.009246826171875,0.20001220703125,0.9794921875,0.0211181640625,-0.18310546875,0.06103515625,0.0,0.0272216796875,0.03759765625,-1.018310546875,130.0,298.0,-150.0,101447.0,-1.0230000019073486,0,0
233.580996,-0.00927734375,0.20001220703125,0.9794921875,0.0211181640625,-0.1220703125,-0.1220703125,-0.06103515625,0.0289306640625,0.0400390625,-1.0172119140625,130.0,298.0,-150.0,101447.0,-1.0230000019073486,0,0
233.587996,-0.00927734375,0.20001220703125,0.9794921875,0.021148681640625,-0.18310546875,0.06103515625,0.18310546875,0.0283203125,0.040771484375,-1.018310546875,130.0,298.0,-150.0,101447.0,-1.0230000019073486,0,0
233.595,-0.00927734375,0.20001220703125,0.9794921875,0.021148681640625,-0.42724609375,0.1220703125,-0.1220703125,0.0272216796875,0.038330078125,-1.0194091796875,130.0,298.0,-150.0,101447.0,-1.0230000019073486,0,0
233.601999,-0.00927734375,0.20001220703125,0.9794921875,0.0211181640625,-0.30517578125,-0.06103515625,-0.18310546875,0.028564453125,0.0357666015625,-1.0181884765625,130.0,298.0,-150.0,101447.0,-1.0230000019073486,0,0
233.608999,-0.00927734375,0.20001220703125,0.9794921875,0.0211181640625,-0.244140625,-0.244140625,0.06103515625,0.0279541015625,0.0364990234375,-1.0185546875,130.0,298.0,-150.0,101447.0,-1.0230000019073486,0,0
233.615998,-0.00927734375,0.20001220703125,0.9794921875,0.0211181640625,-0.1220703125,-0.18310546875,-0.30517578125,0.0264892578125,0.0374755859375,-1.017578125,130.0,298.0,-150.0,101447.0,-1.0230000019073486,0,0
233.622998,-0.00927734375,0.199859619140625,0.979522705078125,0.0211181640625,-0.30517578125,0.06103515625,0.0,0.0267333984375,0.0374755859375,-1.0157470703125,130.0,297.0,-151.0,101447.0,-1.0230000019073486,0,0
233.629997,-0.00927734375,0.199859619140625,0.979522705078125,0.0211181640625,0.06103515625,0.18310546875,-0.06103515625,0.0240478515625,0.036865234375,-1.0169677734375,130.0,297.0,-151.0,101447.0,-1.0230000019073486,0,0
233.636029,-0.00927734375,0.199859619140625,0.979522705078125,0.0211181640625,0.06103515625,0.18310546875,-0.06103515625,0.0240478515625,0.036865234375,-1.0169677734375,130.0,297.0,-151.0,101447.0,-1.0230000019073486,0,0
233.642998,-0.00927734375,0.199859619140625,0.979522705078125,0.0211181640625,-0.06103515625,-0.1220703125,0.1220703125,0.0272216796875,0.0380859375,-1.01708984375,130.0,297.0,-151.0,101447.0,-1.0230000019073486,0,0
233.649998,-0.00927734375,0.199859619140625,0.979522705078125,0.021087646484375,-0.18310546875,0.1220703125,-0.1220703125,0.02587890625,0.0377197265625,-1.0179443359375,130.0,297.0,-151.0,101447.0,-1.0230000019073486,0,0
233.656997,-0.009246826171875,0.199859619140625,0.979522705078125,0.021087646484375,-0.3662109375,-0.1220703125,0.06103515625,0.0263671875,0.038818359375,-1.0194091796875,130.0,297.0,-151.0,101447.0,-1.0230000019073486,0,0
233.663996,-0.009246826171875,0.199859619140625,0.979522705078125,0.021087646484375,0.1220703125,0.18310546875,-0.30517578125,0.025390625,0.03857421875,-1.01513671875,130.0,297.0,-151.0,101447.0,-1.0230000019073486,0,0
233.670996,-0.009246826171875,0.199859619140625,0.979522705078125,0.021087646484375,-0.30517578125,0.06103515625,0.0,0.0267333984375,0.03759765625,-1.0177001953125,130.0,297.0,-151.0,101447.0,-1.0230000019073486,0,0
233.677995,-0.009246826171875,0.199859619140625,0.979522705078125,0.021087646484375,-0.30517578125,-0.1220703125,0.30517578125,0.027099609375,0.0389404296875,-1.0184326171875,130.0,297.0,-151.0,101447.0,-1.0230000019073486,0,0
233.684996,-0.009246826171875,0.199859619140625,0.979522705078125,0.0211181640625,-0.244140625,0.06103515625,-0.30517578125,0.0262451171875,0.03759765625,-1.0162353515625,130.0,297.0,-151.0,101448.0,-1.0230000019073486,0,0
233.705998,-0.009246826171875,0.199859619140625,0.979522705078125,0.021087646484375,-0.42724609375,0.1220703125,0.0,0.0281982421875,0.038330078125,-1.0172119140625,130.0,297.0,-151.0,101448.0,-1.0230000019073486,0,0
233.712998,-0.009246826171875,0.199859619140625,0.979522705078125,0.021087646484375,-0.18310546875,-0.18310546875,-0.244140625,0.0286865234375,0.0357666015625,-1.018798828125,130.0,297.0,-151.0,101448.0,-1.0230000019073486,0,0
233.719997,-0.009246826171875,0.199859619140625,0.979522705078125,0.021087646484375,-0.244140625,-0.06103515625,-0.06103515625,0.0286865234375,0.0384521484375,-1.0155029296875,130.0,296.0,-151.0,101448.0,-1.0230000019073486,0,0
233.726024,-0.009246826171875,0.199859619140625,0.979522705078125,0.021087646484375,-0.244140625,-0.06103515625,-0.06103515625,0.0286865234375,0.0384521484375,-1.0155029296875,130.0,296.0,-151.0,101448.0,-1.0230000019073486,0,0
233.788994,-0.009246826171875,0.199859619140625,0.979522705078125,0.021087646484375,0.06103515625,0.0,0.0,0.0257568359375,0.0399169921875,-1.0164794921875,130.0,296.0,-151.0,101448.0,-1.0230000019073486,0,0
233.795998,-0.009246826171875,0.199859619140625,0.979522705078125,0.021087646484375,-0.18310546875,-0.1220703125,0.1220703125,0.0269775390625,0.036865234375,-1.016845703125,130.0,296.0,-151.0,101448.0,-1.0230000019073486,0,0
233.802998,-0.009246826171875,0.199859619140625,0.979522705078125,0.021087646484375,-0.06103515625,-0.06103515625,-0.1220703125,0.0294189453125,0.0377197265625,-1.0172119140625,130.0,296.0,-151.0,101448.0,-1.0230000019073486,0,0
233.809997,-0.009246826171875,0.199859619140625,0.979522705078125,0.021087646484375,-0.244140625,-0.1220703125,-0.1220703125,0.026123046875,0.0384521484375,-1.0172119140625,130.0,296.0,-151.0,101448.0,-1.0230000019073486,0,0
233.816996,-0.009246826171875,0.199859619140625,0.979522705078125,0.021087646484375,-0.244140625,-0.06103515625,-0.18310546875,0.02685546875,0.0384521484375,-1.0185546875,130.0,296.0,-151.0,101448.0,-1.0230000019073486,0,0
233.823029,-0.009246826171875,0.199859619140625,0.979522705078125,0.021087646484375,-0.244140625,-0.06103515625,-0.18310546875,0.02685546875,0.0384521484375,-1.0185546875,130.0,296.0,-151.0,101448.0,-1.0230000019073486,0,0
233.829998,-0.009246826171875,0.199859619140625,0.979522705078125,0.021087646484375,-0.1220703125,0.06103515625,0.06103515625,0.0274658203125,0.0384521484375,-1.0186767578125,131.0,295.0,-152.0,101448.0,-1.0230000019073486,0,0
233.836997,-0.009246826171875,0.199859619140625,0.979522705078125,0.021087646484375,-0.18310546875,0.1220703125,-0.30517578125,0.026123046875,0.03955078125,-1.015869140625,131.0,295.0,-152.0,101448.0,-1.0230000019073486,0,0
233.843996,-0.009246826171875,0.199859619140625,0.979522705078125,0.021087646484375,-0.1220703125,0.18310546875,0.06103515625,0.0279541015625,0.0377197265625,-1.017822265625,131.0,295.0,-152.0,101448.0,-1.0230000019073486,0,0
233.850996,-0.00927734375,0.199859619140625,0.979522705078125,0.021087646484375,-0.3662109375,0.06103515625,0.0,0.0277099609375,0.03857421875,-1.01708984375,131.0,295.0,-152.0,101448.0,-1.0230000019073486,0,0
233.857995,-0.00927734375,0.199859619140625,0.979522705078125,0.02105712890625,0.48828125,0.06103515625,-0.1220703125,0.027587890625,0.0350341796875,-1.0169677734375,131.0,295.0,-152.0,101448.0,-1.0230000019073486,0,0
233.864996,-0.00927734375,0.199859619140625,0.979522705078125,0.02105712890625,-0.30517578125,0.18310546875,-0.1220703125,0.02685546875,0.0374755859375,-1.0179443359375,131.0,295.0,-152.0,101448.0,-1.0230000019073486,0,0
233.871995,-0.00927734375,0.199859619140625,0.979522705078125,0.02105712890625,-0.06103515625,0.1220703125,-0.244140625,0.027099609375,0.0379638671875,-1.0172119140625,131.0,295.0,-152.0,101448.0,-1.0230000019073486,0,0
233.878995,-0.00927734375,0.199859619140625,0.979522705078125,0.02105712890625,-0.06103515625,-0.06103515625,0.0,0.0279541015625,0.0406494140625,-1.0172119140625,131.0,295.0,-152.0,101448.0,-1.0230000019073486,0,0
233.885998,-0.00927734375,0.199859619140625,0.979522705078125,0.021087646484375,-0.1220703125,-0.18310546875,-0.1220703125,0.0277099609375,0.0391845703125,-1.0177001953125,131.0,295.0,-152.0,101448.0,-1.0240000486373901,0,0
233.892998,-0.00927734375,0.199859619140625,0.979522705078125,0.021087646484375,0.30517578125,0.244140625,-0.18310546875,0.027587890625,0.039794921875,-1.0179443359375,131.0,295.0,-152.0,101448.0,-1.0240000486373901,0,0
233.899997,-0.00927734375,0.199859619140625,0.979522705078125,0.021087646484375,0.06103515625,-0.1220703125,-0.06103515625,0.02685546875,0.036865234375,-1.0166015625,131.0,295.0,-152.0,101448.0,-1.0240000486373901,0,0
233.906996,-0.00927734375,0.199859619140625,0.979522705078125,0.021087646484375,0.0,-0.06103515625,0.0,0.0260009765625,0.0374755859375,-1.0166015625,131.0,295.0,-152.0,101448.0,-1.0240000486373901,0,0
233.913029,-0.00927734375,0.199859619140625,0.979522705078125,0.021087646484375,0.0,-0.06103515625,0.0,0.0260009765625,0.0374755859375,-1.0166015625,131.0,295.0,-152.0,101448.0,-1.0240000486373901,0,0
233.919998,-0.00927734375,0.199859619140625,0.979522705078125,0.02105712890625,-0.54931640625,-0.1220703125,0.06103515625,0.0262451171875,0.039306640625,-1.015869140625,131.0,297.0,-152.0,101448.0,-1.0240000486373901,0,0
233.926997,-0.00927734375,0.19970703125,0.97955322265625,0.02105712890625,0.3662109375,0.06103515625,-0.30517578125,0.026611328125,0.039306640625,-1.017333984375,131.0,297.0,-152.0,101448.0,-1.0240000486373901,0,0
233.933996,-0.00927734375,0.19970703125,0.97955322265625,0.02105712890625,0.54931640625,-0.30517578125,0.0,0.0279541015625,0.0361328125,-1.017578125,131.0,297.0,-152.0,101448.0,-1.0240000486373901,0,0
233.940996,-0.00927734375,0.19970703125,0.97955322265625,0.02105712890625,-0.42724609375,0.0,0.18310546875,0.02685546875,0.0379638671875,-1.0179443359375,131.0,297.0,-152.0,101448.0,-1.0240000486373901,0,0
233.961999,-0.009246826171875,0.19970703125,0.97955322265625,0.021087646484375,-0.1220703125,-0.06103515625,0.06103515625,0.02587890625,0.040283203125,-1.01611328125,131.0,297.0,-152.0,101448.0,-1.0240000486373901,0,0
233.968999,-0.009246826171875,0.19970703125,0.97955322265625,0.021087646484375,-0.1220703125,0.1220703125,-0.06103515625,0.027587890625,0.0377197265625,-1.0167236328125,131.0,297.0,-152.0,101448.0,-1.0240000486373901,0,0
233.975998,-0.009246826171875,0.19970703125,0.97955322265625,0.021087646484375,0.0,0.0,0.0,0.0255126953125,0.0384521484375,-1.0167236328125,131.0,297.0,-152.0,101448.0,-1.0240000486373901,0,0
233.982998,-0.009246826171875,0.19970703125,0.97955322265625,0.02105712890625,-0.1220703125,0.0,0.0,0.0272216796875,0.0369873046875,-1.01611328125,131.0,297.0,-152.0,101448.0,-1.0240000486373901,0,0
233.989997,-0.009246826171875,0.19970703125,0.97955322265625,0.021087646484375,-0.1220703125,-0.18310546875,-0.1220703125,0.026611328125,0.0404052734375,-1.0181884765625,131.0,297.0,-152.0,101448.0,-1.0250000953674316,0,0
233.996996,-0.009246826171875,0.19970703125,0.97955322265625,0.02105712890625,0.0,-0.1220703125,0.06103515625,0.026611328125,0.0379638671875,-1.0181884765625,131.0,297.0,-152.0,101448.0,-1.0250000953674316,0,0
234.003029,-0.009246826171875,0.19970703125,0.97955322265625,0.02105712890625,0.0,-0.1220703125,0.06103515625,0.026611328125,0.0379638671875,-1.0181884765625,131.0,297.0,-152.0,101448.0,-1.0250000953674316,0,0
234.009998,-0.009246826171875,0.19970703125,0.97955322265625,0.02105712890625,-0.3662109375,-0.06103515625,0.18310546875,0.0303955078125,0.0379638671875,-1.017333984375,131.0,297.0,-152.0,101448.0,-1.0250000953674316,0,0
234.016997,-0.00927734375,0.19970703125,0.97955322265625,0.021026611328125,0.42724609375,-0.18310546875,0.1220703125,0.0281982421875,0.038330078125,-1.0186767578125,131.0,297.0,-152.0,101448.0,-1.0250000953674316,0,0
234.023996,-0.00927734375,0.199554443359375,0.979583740234375,0.021026611328125,-0.1220703125,0.244140625,0.30517578125,0.0274658203125,0.0390625,-1.016845703125,130.0,297.0,-151.0,101448.0,-1.0250000953674316,0,0
234.030996,-0.00927734375,0.199554443359375,0.979583740234375,0.021026611328125,-0.06103515625,-0.18310546875,-0.1220703125,0.02685546875,0.0390625,-1.016845703125,130.0,297.0,-151.0,101448.0,-1.0250000953674316,0,0
234.051995,-0.00927734375,0.199554443359375,0.979583740234375,0.02105712890625,-0.1220703125,-0.06103515625,0.0,0.0281982421875,0.0399169921875,-1.015625,130.0,297.0,-151.0,101448.0,-1.0250000953674316,0,0
234.058994,-0.00927734375,0.199554443359375,0.979583740234375,0.02105712890625,-0.48828125,0.0,-0.06103515625,0.0291748046875,0.03955078125,-1.0159912109375,130.0,297.0,-151.0,101448.0,-1.0250000953674316,0,0
234.065998,-0.00927734375,0.199554443359375,0.979583740234375,0.02105712890625,-0.54931640625,-0.06103515625,0.30517578125,0.0281982421875,0.0362548828125,-1.01708984375,130.0,297.0,-151.0,101448.0,-1.0250000953674316,0,0
234.072998,-0.00927734375,0.199554443359375,0.979583740234375,0.02105712890625,-0.18310546875,-0.244140625,0.18310546875,0.0272216796875,0.0384521484375,-1.01611328125,130.0,297.0,-151.0,101448.0,-1.0250000953674316,0,0
234.079997,-0.00927734375,0.199554443359375,0.979583740234375,0.02105712890625,0.06103515625,0.06103515625,0.0,0.026123046875,0.0384521484375,-1.0162353515625,130.0,297.0,-151.0,101448.0,-1.0250000953674316,0,0
234.086996,-0.00927734375,0.199554443359375,0.979583740234375,0.02105712890625,0.0,0.1220703125,0.0,0.0255126953125,0.03857421875,-1.0166015625,130.0,297.0,-151.0,101448.0,-1.0240000486373901,0,0
234.093996,-0.00927734375,0.199554443359375,0.979583740234375,0.02105712890625,-0.244140625,0.18310546875,-0.1220703125,0.0279541015625,0.0382080078125,-1.0184326171875,130.0,297.0,-151.0,101448.0,-1.0240000486373901,0,0
234.100028,-0.00927734375,0.199554443359375,0.979583740234375,0.02105712890625,-0.244140625,0.18310546875,-0.1220703125,0.0279541015625,0.0382080078125,-1.0184326171875,130.0,297.0,-151.0,101448.0,-1.0240000486373901,0,0
234.106997,-0.00927734375,0.199554443359375,0.979583740234375,0.02105712890625,-0.1220703125,-0.06103515625,0.1220703125,0.0274658203125,0.0380859375,-1.01806640625,130.0,297.0,-151.0,101448.0,-1.0240000486373901,0,0
234.113996,-0.009246826171875,0.199554443359375,0.979583740234375,0.02105712890625,-0.06103515625,-0.06103515625,0.0,0.02490234375,0.03857421875,-1.018310546875,130.0,297.0,-151.0,101448.0,-1.0240000486373901,0,0
234.120996,-0.009246826171875,0.199554443359375,0.979583740234375,0.02105712890625,-0.18310546875,-0.1220703125,0.1220703125,0.026611328125,0.0362548828125,-1.0172119140625,130.0,298.0,-151.0,101448.0,-1.0240000486373901,0,0
234.127995,-0.00927734375,0.199310302734375,0.979644775390625,0.021026611328125,-0.18310546875,-0.06103515625,-0.18310546875,0.02734375,0.036865234375,-1.01708984375,130.0,298.0,-151.0,101448.0,-1.0240000486373901,0,0
234.134996,-0.009246826171875,0.199310302734375,0.979644775390625,0.021026611328125,0.0,-0.1220703125,0.0,0.026123046875,0.0372314453125,-1.0162353515625,130.0,298.0,-151.0,101448.0,-1.0240000486373901,0,0
234.141995,-0.009246826171875,0.199310302734375,0.979644775390625,0.021026611328125,-0.06103515625,-0.06103515625,-0.18310546875,0.02783203125,0.03857421875,-1.015625,130.0,298.0,-151.0,101448.0,-1.0240000486373901,0,0
234.148994,-0.009246826171875,0.199310302734375,0.979644775390625,0.021026611328125,0.18310546875,0.1220703125,-0.244140625,0.0267333984375,0.0374755859375,-1.015625,130.0,298.0,-151.0,101448.0,-1.0240000486373901,0,0
234.155998,-0.009246826171875,0.199310302734375,0.979644775390625,0.02105712890625,0.30517578125,0.1220703125,-0.3662109375,0.027587890625,0.0389404296875,-1.015869140625,130.0,298.0,-151.0,101448.0,-1.0240000486373901,0,0
234.162998,-0.009246826171875,0.199310302734375,0.979644775390625,0.02105712890625,-0.06103515625,-0.30517578125,0.3662109375,0.0294189453125,0.03955078125,-1.0145263671875,130.0,298.0,-151.0,101448.0,-1.0240000486373901,0,0
234.169997,-0.009246826171875,0.199310302734375,0.979644775390625,0.02105712890625,-0.1220703125,-0.06103515625,0.0,0.0279541015625,0.0389404296875,-1.0164794921875,130.0,298.0,-151.0,101448.0,-1.0240000486373901,0,0
234.176996,-0.00927734375,0.199310302734375,0.979644775390625,0.02105712890625,0.1220703125,0.18310546875,-0.18310546875,0.0283203125,0.0377197265625,-1.018798828125,130.0,298.0,-151.0,101448.0,-1.0240000486373901,0,0
234.183996,-0.00927734375,0.199310302734375,0.979644775390625,0.02105712890625,-0.1220703125,0.0,0.0,0.0284423828125,0.038330078125,-1.01611328125,130.0,298.0,-151.0,101448.0,-1.0240000486373901,0,0
234.190028,-0.00927734375,0.199310302734375,0.979644775390625,0.02105712890625,-0.1220703125,0.0,0.0,0.0284423828125,0.038330078125,-1.01611328125,130.0,298.0,-151.0,101448.0,-1.0240000486373901,0,0
234.196997,-0.00927734375,0.199310302734375,0.979644775390625,0.02105712890625,0.1220703125,0.0,-0.1220703125,0.0257568359375,0.0384521484375,-1.0157470703125,130.0,298.0,-151.0,101448.0,-1.0240000486373901,0,0
234.203996,-0.00927734375,0.199310302734375,0.979644775390625,0.02105712890625,-0.18310546875,-0.18310546875,0.1220703125,0.0255126953125,0.0394287109375,-1.0185546875,130.0,298.0,-151.0,101448.0,-1.0240000486373901,0,0
234.225,-0.00927734375,0.1990966796875,0.979705810546875,0.02105712890625,-0.1220703125,0.0,0.06103515625,0.0281982421875,0.04150390625,-1.0150146484375,130.0,300.0,-151.0,101448.0,-1.0240000486373901,0,0
234.231999,-0.00927734375,0.1990966796875,0.979705810546875,0.02105712890625,-0.1220703125,0.0,-0.18310546875,0.0283203125,0.0377197265625,-1.017333984375,130.0,300.0,-151.0,101448.0,-1.0240000486373901,0,0
234.238999,-0.00927734375,0.1990966796875,0.979705810546875,0.02105712890625,-0.1220703125,0.1220703125,-0.18310546875,0.0255126953125,0.0384521484375,-1.0177001953125,130.0,300.0,-151.0,101448.0,-1.0240000486373901,0,0
234.245998,-0.00927734375,0.1990966796875,0.979705810546875,0.02105712890625,-0.06103515625,0.06103515625,-0.06103515625,0.027099609375,0.034423828125,-1.016845703125,130.0,300.0,-151.0,101448.0,-1.0240000486373901,0,0
234.252998,-0.00927734375,0.1990966796875,0.979705810546875,0.02105712890625,-0.1220703125,-0.06103515625,0.0,0.0233154296875,0.039306640625,-1.0172119140625,130.0,300.0,-151.0,101448.0,-1.0240000486373901,0,0
234.259997,-0.009246826171875,0.1990966796875,0.979705810546875,0.02105712890625,-0.42724609375,0.0,0.0,0.025634765625,0.038330078125,-1.0167236328125,130.0,300.0,-151.0,101448.0,-1.0240000486373901,0,0
234.266996,-0.009246826171875,0.1990966796875,0.979705810546875,0.021026611328125,-0.06103515625,0.3662109375,-0.1220703125,0.0264892578125,0.037841796875,-1.017578125,130.0,300.0,-151.0,101448.0,-1.0240000486373901,0,0
234.273996,-0.009246826171875,0.1990966796875,0.979705810546875,0.021026611328125,-0.18310546875,0.06103515625,0.244140625,0.0264892578125,0.0360107421875,-1.0184326171875,130.0,300.0,-151.0,101448.0,-1.0240000486373901,0,0
234.280995,-0.009246826171875,0.1990966796875,0.979705810546875,0.021026611328125,0.06103515625,0.06103515625,-0.244140625,0.02734375,0.037841796875,-1.016845703125,130.0,300.0,-151.0,101448.0,-1.0240000486373901,0,0
234.287028,-0.009246826171875,0.1990966796875,0.979705810546875,0.021026611328125,0.06103515625,0.06103515625,-0.244140625,0.02734375,0.037841796875,-1.016845703125,130.0,300.0,-151.0,101448.0,-1.0240000486373901,0,0
234.293996,-0.009246826171875,0.1990966796875,0.979705810546875,0.02105712890625,-0.1220703125,-0.1220703125,-0.06103515625,0.0286865234375,0.039794921875,-1.0164794921875,130.0,300.0,-151.0,101448.0,-1.0240000486373901,0,0
234.356996,-0.00927734375,0.1988525390625,0.979736328125,0.02105712890625,-0.42724609375,0.1220703125,0.3662109375,0.02734375,0.03857421875,-1.015625,130.0,300.0,-153.0,101448.0,-1.0230000019073486,0,0
234.363996,-0.00927734375,0.1988525390625,0.979736328125,0.02105712890625,-0.30517578125,-0.1220703125,0.06103515625,0.0284423828125,0.038818359375,-1.0177001953125,130.0,300.0,-153.0,101448.0,-1.0230000019073486,0,0
234.370995,-0.00927734375,0.1988525390625,0.979736328125,0.02105712890625,-0.18310546875,0.0,0.1220703125,0.0291748046875,0.037841796875,-1.0159912109375,130.0,300.0,-153.0,101448.0,-1.0230000019073486,0,0
234.377028,-0.00927734375,0.1988525390625,0.979736328125,0.02105712890625,-0.18310546875,0.0,0.1220703125,0.0291748046875,0.037841796875,-1.0159912109375,130.0,300.0,-153.0,101448.0,-1.0230000019073486,0,0
234.383996,-0.00927734375,0.1988525390625,0.979736328125,0.021026611328125,0.06103515625,-0.18310546875,0.0,0.0272216796875,0.0355224609375,-1.017333984375,130.0,300.0,-153.0,101448.0,-1.0230000019073486,0,0
234.577995,-0.009246826171875,0.19854736328125,0.97979736328125,0.02105712890625,0.1220703125,0.06103515625,0.06103515625,0.0252685546875,0.0374755859375,-1.01611328125,131.0,301.0,-152.0,101447.0,-1.0230000019073486,0,0
234.584996,-0.009246826171875,0.19854736328125,0.97979736328125,0.02105712890625,-0.244140625,0.06103515625,-0.1220703125,0.029052734375,0.0389404296875,-1.0166015625,131.0,301.0,-152.0,101447.0,-1.0230000019073486,0,0
234.591995,-0.00927734375,0.19854736328125,0.97979736328125,0.02105712890625,-0.30517578125,-0.06103515625,0.06103515625,0.0283203125,0.037353515625,-1.014404296875,131.0,301.0,-152.0,101447.0,-1.0230000019073486,0,0
234.598994,-0.00927734375,0.19854736328125,0.97979736328125,0.02105712890625,0.3662109375,0.1220703125,0.18310546875,0.027099609375,0.0406494140625,-1.01806640625,131.0,301.0,-152.0,101447.0,-1.0230000019073486,0,0
234.834999,-0.009246826171875,0.19818115234375,0.979888916015625,0.02105712890625,0.06103515625,0.244140625,0.1220703125,0.0252685546875,0.0374755859375,-1.0172119140625,130.0,302.0,-148.0,101447.0,-1.0230000019073486,0,0
234.841999,-0.009246826171875,0.19818115234375,0.979888916015625,0.02105712890625,-0.1220703125,-0.1220703125,-0.1220703125,0.02685546875,0.0382080078125,-1.0159912109375,130.0,302.0,-148.0,101447.0,-1.0230000019073486,0,0
234.848031,-0.009246826171875,0.19818115234375,0.979888916015625,0.02105712890625,-0.1220703125,-0.1220703125,-0.1220703125,0.02685546875,0.0382080078125,-1.0159912109375,130.0,302.0,-148.0,101447.0,-1.0230000019073486,0,0
234.855,-0.009246826171875,0.19818115234375,0.979888916015625,0.02105712890625,0.0,0.06103515625,0.06103515625,0.02783203125,0.0377197265625,-1.0162353515625,130.0,302.0,-148.0,101447.0,-1.0230000019073486,0,0
234.861999,-0.009246826171875,0.19818115234375,0.979888916015625,0.02105712890625,-0.1220703125,-0.18310546875,0.06103515625,0.025634765625,0.038330078125,-1.0157470703125,130.0,302.0,-148.0,101447.0,-1.0230000019073486,0,0
234.924995,-0.009246826171875,0.198028564453125,0.97991943359375,0.02105712890625,-0.244140625,0.1220703125,-0.1220703125,0.0286865234375,0.0391845703125,-1.0169677734375,130.0,303.0,-148.0,101447.0,-1.0230000019073486,0,0
234.931994,-0.009246826171875,0.198028564453125,0.97991943359375,0.02105712890625,-0.3662109375,-0.18310546875,-0.1220703125,0.028564453125,0.03857421875,-1.0162353515625,130.0,303.0,-148.0,101447.0,-1.0230000019073486,0,0
234.938026,-0.009246826171875,0.198028564453125,0.97991943359375,0.02105712890625,-0.3662109375,-0.18310546875,-0.1220703125,0.028564453125,0.03857421875,-1.0162353515625,130.0,303.0,-148.0,101447.0,-1.0230000019073486,0,0
234.944996,-0.009246826171875,0.198028564453125,0.97991943359375,0.02105712890625,-0.1220703125,-0.244140625,-0.1220703125,0.0277099609375,0.0400390625,-1.0189208984375,130.0,303.0,-148.0,101448.0,-1.0240000486373901,0,0
235.443996,-0.00909423828125,0.197479248046875,0.980010986328125,0.021026611328125,-0.30517578125,-0.1220703125,-0.1220703125,0.025390625,0.0367431640625,-1.0142822265625,130.0,300.0,-143.0,101448.0,-1.0230000019073486,0,0
235.450996,-0.009124755859375,0.197479248046875,0.980010986328125,0.021026611328125,-0.06103515625,0.06103515625,0.244140625,0.0311279296875,0.0400390625,-1.0186767578125,130.0,300.0,-143.0,101448.0,-1.0230000019073486,0,0
235.458,-0.0091552734375,0.197479248046875,0.980010986328125,0.021026611328125,-0.06103515625,0.0,0.06103515625,0.0301513671875,0.038818359375,-1.0159912109375,130.0,300.0,-143.0,101448.0,-1.0230000019073486,0,0
235.464999,-0.009185791015625,0.197479248046875,0.980010986328125,0.02105712890625,-0.244140625,-0.06103515625,0.0,0.034912109375,0.04052734375,-1.0166015625,130.0,300.0,-143.0,101448.0,-1.0230000019073486,0,0
235.471994,-0.009185791015625,0.197479248046875,0.980010986328125,0.02105712890625,-0.06103515625,0.244140625,0.30517578125,0.0321044921875,0.0406494140625,-1.017333984375,130.0,300.0,-143.0,101448.0,-1.0230000019073486,0,0
235.533996,-0.00933837890625,0.197418212890625,0.98004150390625,0.021087646484375,-0.1220703125,0.06103515625,0.0,0.0228271484375,0.04052734375,-1.0164794921875,129.0,299.0,-144.0,101448.0,-1.0230000019073486,0,0
235.540995,-0.009307861328125,0.197418212890625,0.98004150390625,0.021087646484375,0.1220703125,-0.18310546875,-0.244140625,0.021728515625,0.041259765625,-1.0174560546875,129.0,299.0,-144.0,101448.0,-1.0230000019073486,0,0
235.547996,-0.009307861328125,0.197418212890625,0.98004150390625,0.021087646484375,-0.67138671875,0.0,-0.1220703125,0.022216796875,0.03759765625,-1.0159912109375,129.0,299.0,-144.0,101448.0,-1.0230000019073486,0,0
235.554995,-0.00927734375,0.197418212890625,0.98004150390625,0.02105712890625,-0.06103515625,0.06103515625,0.18310546875,0.023681640625,0.0379638671875,-1.0162353515625,129.0,299.0,-144.0,101448.0,-1.0230000019073486,0,0
235.561994,-0.009246826171875,0.197418212890625,0.98004150390625,0.02105712890625,-0.06103515625,0.06103515625,-0.18310546875,0.020751953125,0.0350341796875,-1.018798828125,129.0,299.0,-144.0,101448.0,-1.0230000019073486,0,0
235.969997,-0.00921630859375,0.197113037109375,0.9801025390625,0.02099609375,-0.244140625,0.06103515625,-0.06103515625,0.02880859375,0.0396728515625,-1.0162353515625,129.0,296.0,-144.0,101448.0,-1.0240000486373901,0,0
235.976996,-0.009246826171875,0.197113037109375,0.9801025390625,0.021026611328125,-0.30517578125,0.1220703125,-0.244140625,0.0296630859375,0.040771484375,-1.01708984375,129.0,296.0,-144.0,101448.0,-1.0240000486373901,0,0
235.983996,-0.00927734375,0.197113037109375,0.9801025390625,0.021026611328125,-0.3662109375,-0.06103515625,-0.18310546875,0.0313720703125,0.0396728515625,-1.0169677734375,129.0,296.0,-144.0,101448.0,-1.0240000486373901,0,0
235.990996,-0.00927734375,0.197113037109375,0.9801025390625,0.021026611328125,0.0,-0.06103515625,-0.06103515625,0.029296875,0.040283203125,-1.016357421875,129.0,296.0,-144.0,101448.0,-1.0240000486373901,0,0
236.399996,-0.00927734375,0.19677734375,0.98016357421875,0.02099609375,0.0,-0.06103515625,0.244140625,0.0264892578125,0.0364990234375,-1.017333984375,129.0,297.0,-144.0,101448.0,-1.0230000019073486,0,0
236.406996,-0.00927734375,0.19677734375,0.98016357421875,0.020965576171875,-0.06103515625,-0.1220703125,-0.1220703125,0.02587890625,0.0391845703125,-1.01611328125,129.0,297.0,-144.0,101448.0,-1.0230000019073486,0,0
236.413995,-0.00927734375,0.19677734375,0.98016357421875,0.020965576171875,-0.18310546875,0.06103515625,-0.06103515625,0.025634765625,0.0379638671875,-1.018310546875,129.0,297.0,-144.0,101448.0,-1.0230000019073486,0,0
236.420996,-0.009246826171875,0.19677734375,0.98016357421875,0.020965576171875,-1.03759765625,0.1220703125,0.0,0.0262451171875,0.038330078125,-1.016357421875,129.0,297.0,-144.0,101448.0,-1.0230000019073486,0,0
236.427995,-0.009246826171875,0.19677734375,0.98016357421875,0.020965576171875,-0.1220703125,0.06103515625,0.244140625,0.0272216796875,0.0377197265625,-1.017578125,129.0,297.0,-144.0,101448.0,-1.0230000019073486,0,0
236.579996,-0.00927734375,0.19696044921875,0.980133056640625,0.02099609375,-0.1220703125,0.0,0.0,0.027099609375,0.0380859375,-1.0157470703125,131.0,296.0,-144.0,101448.0,-1.0240000486373901,0,0
236.586996,-0.00927734375,0.19696044921875,0.980133056640625,0.02099609375,-0.1220703125,0.244140625,0.1220703125,0.025634765625,0.036865234375,-1.0157470703125,131.0,296.0,-144.0,101448.0,-1.0240000486373901,0,0
236.593996,-0.00927734375,0.19696044921875,0.980133056640625,0.02099609375,0.1220703125,0.18310546875,-0.06103515625,0.0269775390625,0.038818359375,-1.015869140625,131.0,296.0,-144.0,101448.0,-1.0240000486373901,0,0
236.601,-0.00927734375,0.19696044921875,0.980133056640625,0.02099609375,-0.3662109375,0.0,0.1220703125,0.0284423828125,0.037841796875,-1.016357421875,131.0,296.0,-144.0,101448.0,-1.0240000486373901,0,0
236.842997,-0.009307861328125,0.197479248046875,0.980010986328125,0.02105712890625,0.0,0.1220703125,0.244140625,0.029296875,0.0390625,-1.0159912109375,132.0,295.0,-144.0,101448.0,-1.0240000486373901,0,0
236.849996,-0.009307861328125,0.197479248046875,0.980010986328125,0.02105712890625,-0.1220703125,0.0,0.0,0.027587890625,0.0396728515625,-1.0166015625,132.0,295.0,-144.0,101448.0,-1.0240000486373901,0,0
236.856996,-0.009307861328125,0.197479248046875,0.980010986328125,0.02105712890625,0.06103515625,-0.1220703125,0.06103515625,0.0277099609375,0.0384521484375,-1.016845703125,132.0,295.0,-144.0,101448.0,-1.0240000486373901,0,0
236.863995,-0.009307861328125,0.197479248046875,0.980010986328125,0.021087646484375,-0.30517578125,-0.1220703125,-0.18310546875,0.026611328125,0.0379638671875,-1.0157470703125,132.0,295.0,-144.0,101448.0,-1.0240000486373901,0,0
236.871,-0.009307861328125,0.197479248046875,0.980010986328125,0.021087646484375,-0.244140625,-0.06103515625,-0.06103515625,0.027587890625,0.039306640625,-1.016357421875,132.0,295.0,-144.0,101448.0,-1.0240000486373901,0,0
237.278998,-0.00927734375,0.19842529296875,0.979827880859375,0.021087646484375,0.06103515625,0.18310546875,-0.30517578125,0.0283203125,0.036376953125,-1.01611328125,132.0,295.0,-143.0,101448.0,-1.0240000486373901,0,0
237.285998,-0.00927734375,0.19842529296875,0.979827880859375,0.021087646484375,-0.06103515625,-0.06103515625,0.0,0.02783203125,0.0401611328125,-1.0146484375,132.0,295.0,-143.0,101448.0,-1.0240000486373901,0,0
237.292997,-0.00927734375,0.19842529296875,0.979827880859375,0.021087646484375,-0.30517578125,0.0,0.0,0.0260009765625,0.0389404296875,-1.0157470703125,132.0,295.0,-143.0,101448.0,-1.0240000486373901,0,0
237.299996,-0.00927734375,0.19842529296875,0.979827880859375,0.021087646484375,0.06103515625,0.0,-0.1220703125,0.0289306640625,0.0379638671875,-1.014404296875,132.0,295.0,-143.0,101448.0,-1.0240000486373901,0,0
237.306996,-0.00927734375,0.19842529296875,0.979827880859375,0.021087646484375,0.0,0.06103515625,-0.1220703125,0.028564453125,0.0394287109375,-1.01611328125,132.0,295.0,-143.0,101448.0,-1.0240000486373901,0,0
