Time stamp(sec),adc1,adc2,roll_angular_rate,pitch_angular_rate,yaw_angular_rate,acc_X,acc_Y,acc_Z,mag_X,mag_Y,mag_Z,pressure,altitude
0.01831839999067597,0.37091064453125,-0.451171875,0.31097412109375,-0.749725341796875,0.244140625,0.18310546875,0.6103515625,0.450439453125,-0.8101806640625,0.40380859375,-292.0,152.0,-153.0,101701.0,-3.130000114440918,0,0
0.018384499999228865,0.370941162109375,-0.451141357421875,0.31103515625,-0.74969482421875,-0.54931640625,0.1220703125,0.91552734375,0.447509765625,-0.8116455078125,0.40380859375,-292.0,152.0,-153.0,101701.0,-3.130000114440918,0,0
0.018445699999574572,0.370941162109375,-0.451141357421875,0.311065673828125,-0.74969482421875,0.244140625,0.3662109375,0.6103515625,0.4515380859375,-0.8145751953125,0.402587890625,-292.0,152.0,-153.0,101701.0,-3.130000114440918,0,0
0.01850219999323599,0.3709716796875,-0.45111083984375,0.311065673828125,-0.74969482421875,-0.30517578125,-0.244140625,0.0,0.4385986328125,-0.800048828125,0.405029296875,-292.0,152.0,-153.0,101701.0,-3.130000114440918,0,0
0.01855569999315776,0.3709716796875,-0.45111083984375,0.311065673828125,-0.74969482421875,-0.79345703125,-0.30517578125,-0.54931640625,0.438720703125,-0.7999267578125,0.400390625,-292.0,152.0,-153.0,101701.0,-3.130000114440918,0,0
0.019620699997176416,0.3709716796875,-0.451141357421875,0.311065673828125,-0.74969482421875,-0.79345703125,-0.30517578125,-0.54931640625,0.438720703125,-0.7999267578125,0.400390625,-292.0,152.0,-153.0,101701.0,-3.128000259399414,0,0
0.019679599994560704,0.3707275390625,-0.451080322265625,0.3111572265625,-0.74981689453125,0.30517578125,-0.30517578125,-1.03759765625,0.439697265625,-0.80078125,0.3955078125,-293.0,151.0,-153.0,101701.0,-3.128000259399414,0,0
0.01973849999194499,0.3707275390625,-0.451080322265625,0.3111572265625,-0.74981689453125,0.244140625,-0.48828125,-1.220703125,0.4454345703125,-0.798828125,0.3966064453125,-293.0,151.0,-153.0,101701.0,-3.128000259399414,0,0
0.019793399987975135,0.3707275390625,-0.45111083984375,0.3111572265625,-0.74981689453125,0.42724609375,-0.30517578125,-1.03759765625,0.4425048828125,-0.791259765625,0.3958740234375,-293.0,151.0,-153.0,101701.0,-3.128000259399414,0,0
0.019845899994834326,0.3707275390625,-0.45111083984375,0.3111572265625,-0.74981689453125,0.42724609375,-0.30517578125,-1.03759765625,0.4425048828125,-0.791259765625,0.3958740234375,-293.0,151.0,-153.0,101701.0,-3.128000259399414,0,0
0.019900299987057224,0.370697021484375,-0.45111083984375,0.311126708984375,-0.74981689453125,-0.3662109375,0.1220703125,0.6103515625,0.453369140625,-0.8033447265625,0.4072265625,-293.0,151.0,-153.0,101701.0,-3.128000259399414,0,0
0.07883359999686945,0.370697021484375,-0.45111083984375,0.311126708984375,-0.74981689453125,0.732421875,0.244140625,0.244140625,0.4468994140625,-0.80322265625,0.400146484375,-293.0,151.0,-153.0,101701.0,-3.128000259399414,0,0
0.07889520000026096,0.37066650390625,-0.451141357421875,0.3111572265625,-0.74981689453125,-1.15966796875,-0.42724609375,-0.54931640625,0.4346923828125,-0.787841796875,0.3974609375,-293.0,151.0,-153.0,101701.0,-3.128000259399414,0,0
0.0789504999993369,0.37066650390625,-0.451141357421875,0.311126708984375,-0.74981689453125,0.18310546875,-0.54931640625,-0.79345703125,0.4462890625,-0.7962646484375,0.38671875,-293.0,151.0,-153.0,101701.0,-3.128000259399414,0,0
0.07900399999925867,0.37066650390625,-0.451141357421875,0.31109619140625,-0.74981689453125,1.03759765625,-0.42724609375,-0.732421875,0.4432373046875,-0.7965087890625,0.39013671875,-293.0,151.0,-153.0,101701.0,-3.128000259399414,0,0
0.07905819998995867,0.37066650390625,-0.451171875,0.31109619140625,-0.74981689453125,0.3662109375,-0.3662109375,-0.54931640625,0.4468994140625,-0.796630859375,0.400146484375,-293.0,151.0,-153.0,101701.0,-3.128000259399414,0,0
0.07912639999995008,0.37066650390625,-0.451171875,0.31109619140625,-0.74981689453125,0.3662109375,-0.3662109375,-0.54931640625,0.4468994140625,-0.796630859375,0.400146484375,-293.0,151.0,-153.0,101701.0,-3.128000259399414,0,0
0.07918079999217298,0.370697021484375,-0.451141357421875,0.31109619140625,-0.74981689453125,0.3662109375,0.244140625,1.0986328125,0.4493408203125,-0.80712890625,0.4007568359375,-293.0,151.0,-153.0,101701.0,-3.128000259399414,0,0
0.07925799999793526,0.370697021484375,-0.45111083984375,0.31109619140625,-0.74981689453125,0.0,0.3662109375,0.732421875,0.447509765625,-0.8076171875,0.4046630859375,-293.0,151.0,-153.0,101701.0,-3.128000259399414,0,0
0.0793122999893967,0.3707275390625,-0.451080322265625,0.311126708984375,-0.74981689453125,-0.48828125,-0.1220703125,0.42724609375,0.4417724609375,-0.8045654296875,0.407470703125,-293.0,151.0,-153.0,101701.0,-3.128000259399414,0,0
0.0793672999861883,0.3707275390625,-0.451080322265625,0.311126708984375,-0.74981689453125,0.18310546875,-0.244140625,-0.1220703125,0.4442138671875,-0.802001953125,0.398681640625,-293.0,151.0,-153.0,101701.0,-3.128000259399414,0,0
0.07942229999753181,0.3707275390625,-0.451080322265625,0.311126708984375,-0.74981689453125,-0.18310546875,-0.18310546875,-0.42724609375,0.4459228515625,-0.802490234375,0.3973388671875,-293.0,151.0,-153.0,101701.0,-3.128000259399414,0,0
0.14916959998663515,0.3707275390625,-0.45111083984375,0.311126708984375,-0.74981689453125,-0.06103515625,-0.3662109375,-0.3662109375,0.4461669921875,-0.798583984375,0.3990478515625,-293.0,151.0,-153.0,101701.0,-3.128000259399414,0,0
0.14924109999265056,0.3707275390625,-0.45111083984375,0.311126708984375,-0.74981689453125,-0.18310546875,0.18310546875,-0.244140625,0.447998046875,-0.804443359375,0.395751953125,-294.0,151.0,-152.0,101701.0,-3.128000259399414,0,0
0.14929919999849517,0.3707275390625,-0.45111083984375,0.311126708984375,-0.74981689453125,0.18310546875,0.0,-0.18310546875,0.444091796875,-0.80224609375,0.3990478515625,-294.0,151.0,-152.0,101701.0,-3.128000259399414,0,0
0.1493523999961326,0.370697021484375,-0.45111083984375,0.311126708984375,-0.74981689453125,0.48828125,-0.1220703125,-0.06103515625,0.447265625,-0.802734375,0.398681640625,-294.0,151.0,-152.0,101701.0,-3.128000259399414,0,0
0.14940609999757726,0.370697021484375,-0.45111083984375,0.311126708984375,-0.74981689453125,0.48828125,-0.1220703125,-0.06103515625,0.447265625,-0.802734375,0.398681640625,-294.0,151.0,-152.0,101701.0,-3.128000259399414,0,0
0.14945909999369178,0.370697021484375,-0.451080322265625,0.311126708984375,-0.74981689453125,0.42724609375,-0.3662109375,-0.1220703125,0.446044921875,-0.80029296875,0.404296875,-294.0,151.0,-152.0,101701.0,-3.128000259399414,0,0
0.14951219999056775,0.3707275390625,-0.451080322265625,0.311126708984375,-0.74981689453125,0.0,-0.42724609375,-0.3662109375,0.445068359375,-0.799072265625,0.403564453125,-294.0,151.0,-152.0,101701.0,-3.128000259399414,0,0
0.1496733999956632,0.3707275390625,-0.451080322265625,0.311126708984375,-0.74981689453125,-0.3662109375,-0.18310546875,-0.42724609375,0.4453125,-0.7998046875,0.4010009765625,-294.0,151.0,-152.0,101701.0,-3.128000259399414,0,0
0.1497281999909319,0.370697021484375,-0.451080322265625,0.311126708984375,-0.74981689453125,-0.06103515625,-0.48828125,-0.06103515625,0.4473876953125,-0.8001708984375,0.3978271484375,-294.0,151.0,-152.0,101701.0,-3.128000259399414,0,0
0.14978659999906085,0.370697021484375,-0.45111083984375,0.31109619140625,-0.74981689453125,-0.1220703125,-0.48828125,0.0,0.45068359375,-0.8021240234375,0.3970947265625,-294.0,151.0,-152.0,101701.0,-3.128000259399414,0,0
0.14984159999585245,0.370697021484375,-0.45111083984375,0.311126708984375,-0.74981689453125,0.54931640625,-0.1220703125,0.244140625,0.4495849609375,-0.8043212890625,0.3963623046875,-294.0,151.0,-152.0,101701.0,-3.128000259399414,0,0
0.1498927999928128,0.370697021484375,-0.45111083984375,0.311126708984375,-0.74981689453125,0.244140625,0.0,0.30517578125,0.4483642578125,-0.8017578125,0.3978271484375,-294.0,151.0,-152.0,101701.0,-3.128000259399414,0,0
0.14999049999460112,0.370697021484375,-0.451141357421875,0.31109619140625,-0.74981689453125,0.1220703125,0.30517578125,0.42724609375,0.4486083984375,-0.802734375,0.3995361328125,-294.0,151.0,-152.0,101701.0,-3.126000165939331,0,0
0.20739369999500923,0.370697021484375,-0.45111083984375,0.311126708984375,-0.74981689453125,-0.244140625,-0.06103515625,-0.30517578125,0.4437255859375,-0.80126953125,0.400146484375,-294.0,151.0,-152.0,101701.0,-3.126000165939331,0,0
0.2074564999929862,0.370697021484375,-0.45111083984375,0.31109619140625,-0.74981689453125,-0.1220703125,-0.06103515625,-0.3662109375,0.445556640625,-0.80029296875,0.4010009765625,-294.0,151.0,-152.0,101701.0,-3.126000165939331,0,0
0.20751289998588618,0.370697021484375,-0.45111083984375,0.311126708984375,-0.74981689453125,-0.1220703125,-0.18310546875,-0.3662109375,0.44580078125,-0.80224609375,0.3970947265625,-294.0,151.0,-152.0,101701.0,-3.126000165939331,0,0
0.20756819999951404,0.370697021484375,-0.45111083984375,0.311126708984375,-0.74981689453125,-0.06103515625,0.06103515625,-0.1220703125,0.4468994140625,-0.8018798828125,0.3953857421875,-294.0,151.0,-152.0,101701.0,-3.126000165939331,0,0
0.2076237999863224,0.370697021484375,-0.45111083984375,0.311126708984375,-0.74981689453125,0.1220703125,-0.244140625,-0.06103515625,0.446044921875,-0.799072265625,0.396240234375,-294.0,151.0,-152.0,101701.0,-3.126000165939331,0,0
0.21010649998788722,0.370697021484375,-0.451141357421875,0.311126708984375,-0.74981689453125,0.06103515625,0.0,-0.06103515625,0.44677734375,-0.802490234375,0.396728515625,-294.0,151.0,-152.0,101701.0,-3.126000165939331,0,0
0.21016709999821614,0.370697021484375,-0.451141357421875,0.311126708984375,-0.74981689453125,0.244140625,-0.06103515625,0.0,0.4466552734375,-0.802001953125,0.39892578125,-294.0,151.0,-152.0,101701.0,-3.126000165939331,0,0
0.2102219999942463,0.370697021484375,-0.451141357421875,0.311126708984375,-0.74981689453125,0.244140625,-0.06103515625,0.0,0.4466552734375,-0.802001953125,0.39892578125,-294.0,150.0,-154.0,101701.0,-3.126000165939331,0,0
0.21027679998951498,0.370697021484375,-0.451141357421875,0.311126708984375,-0.74981689453125,0.244140625,-0.06103515625,0.0,0.4466552734375,-0.802001953125,0.39892578125,-294.0,150.0,-154.0,101701.0,-3.126000165939331,0,0
0.21038499999849591,0.370391845703125,-0.45098876953125,0.311309814453125,-0.749969482421875,0.18310546875,-0.06103515625,-0.244140625,0.442626953125,-0.7994384765625,0.4010009765625,-294.0,150.0,-154.0,101701.0,-3.126000165939331,0,0
0.21043779999308754,0.370391845703125,-0.45098876953125,0.311309814453125,-0.749969482421875,-0.244140625,-0.244140625,-0.244140625,0.4456787109375,-0.8001708984375,0.39794921875,-294.0,150.0,-154.0,101701.0,-3.126000165939331,0,0
0.2676160999981221,0.370391845703125,-0.45098876953125,0.311309814453125,-0.749969482421875,-0.244140625,-0.1220703125,0.0,0.447021484375,-0.8001708984375,0.398681640625,-294.0,150.0,-154.0,101701.0,-3.126000165939331,0,0
0.26767849999305326,0.370391845703125,-0.45098876953125,0.311309814453125,-0.749969482421875,0.18310546875,-0.06103515625,0.06103515625,0.4468994140625,-0.8021240234375,0.399658203125,-294.0,150.0,-154.0,101701.0,-3.126000165939331,0,0
0.26773329998832196,0.370391845703125,-0.45098876953125,0.311309814453125,-0.749969482421875,0.244140625,-0.1220703125,-0.06103515625,0.4454345703125,-0.7998046875,0.3990478515625,-294.0,150.0,-154.0,101701.0,-3.126000165939331,0,0
0.2677866999874823,0.370391845703125,-0.45098876953125,0.311309814453125,-0.749969482421875,0.0,-0.30517578125,0.0,0.4462890625,-0.798095703125,0.4010009765625,-294.0,150.0,-154.0,101701.0,-3.126000165939331,0,0
0.26794609999342356,0.370391845703125,-0.45098876953125,0.311309814453125,-0.749969482421875,0.0,-0.30517578125,0.0,0.4462890625,-0.798095703125,0.4010009765625,-294.0,150.0,-154.0,101701.0,-3.126000165939331,0,0
0.26819799999066163,0.370391845703125,-0.45098876953125,0.311309814453125,-0.749969482421875,0.0,-0.244140625,-0.06103515625,0.4443359375,-0.800537109375,0.3997802734375,-294.0,150.0,-154.0,101701.0,-3.129000186920166,0,0
0.2682549999881303,0.370391845703125,-0.45098876953125,0.311309814453125,-0.749969482421875,0.1220703125,-0.244140625,-0.244140625,0.445068359375,-0.80224609375,0.4005126953125,-294.0,150.0,-154.0,101701.0,-3.129000186920166,0,0
0.2683105999894906,0.370391845703125,-0.45098876953125,0.311309814453125,-0.749969482421875,0.0,-0.244140625,-0.1220703125,0.446533203125,-0.800537109375,0.3995361328125,-294.0,150.0,-154.0,101701.0,-3.129000186920166,0,0
0.268404799993732,0.370391845703125,-0.45098876953125,0.311279296875,-0.749969482421875,-0.18310546875,0.06103515625,0.1220703125,0.4481201171875,-0.80029296875,0.3995361328125,-294.0,150.0,-154.0,101701.0,-3.129000186920166,0,0
0.2684640999941621,0.370391845703125,-0.45098876953125,0.311309814453125,-0.749969482421875,0.18310546875,0.1220703125,0.1220703125,0.4462890625,-0.7996826171875,0.3995361328125,-294.0,150.0,-154.0,101701.0,-3.129000186920166,0,0
0.26851979999628384,0.370391845703125,-0.45098876953125,0.311309814453125,-0.749969482421875,-0.1220703125,-0.1220703125,0.0,0.445068359375,-0.8009033203125,0.399169921875,-294.0,150.0,-154.0,101701.0,-3.129000186920166,0,0
0.3312429999932647,0.370391845703125,-0.45098876953125,0.311309814453125,-0.749969482421875,-0.18310546875,-0.06103515625,-0.06103515625,0.4449462890625,-0.801513671875,0.3995361328125,-294.0,150.0,-154.0,101701.0,-3.129000186920166,0,0
0.3313079999934416,0.370391845703125,-0.45098876953125,0.311309814453125,-0.749969482421875,0.244140625,-0.18310546875,-0.30517578125,0.4449462890625,-0.8016357421875,0.398681640625,-294.0,150.0,-154.0,101701.0,-3.129000186920166,0,0
0.33136509999167174,0.370391845703125,-0.45098876953125,0.311309814453125,-0.749969482421875,-0.1220703125,-0.18310546875,-0.18310546875,0.44677734375,-0.804931640625,0.400146484375,-294.0,150.0,-154.0,101701.0,-3.129000186920166,0,0
0.331419799986179,0.370391845703125,-0.45098876953125,0.311309814453125,-0.749969482421875,-0.1220703125,-0.18310546875,-0.18310546875,0.44677734375,-0.804931640625,0.400146484375,-294.0,150.0,-154.0,101701.0,-3.129000186920166,0,0
0.33147389999066945,0.370391845703125,-0.45098876953125,0.311309814453125,-0.749969482421875,0.42724609375,-0.1220703125,-0.3662109375,0.4449462890625,-0.801025390625,0.3995361328125,-296.0,151.0,-154.0,101701.0,-3.129000186920166,0,0
0.33152789999439847,0.37017822265625,-0.450897216796875,0.311431884765625,-0.75006103515625,0.30517578125,-0.18310546875,-0.1220703125,0.447509765625,-0.800537109375,0.400146484375,-296.0,151.0,-154.0,101701.0,-3.129000186920166,0,0
0.331580899990513,0.37017822265625,-0.450897216796875,0.311431884765625,-0.75006103515625,0.06103515625,-0.18310546875,-0.06103515625,0.4454345703125,-0.80029296875,0.4000244140625,-296.0,151.0,-154.0,101701.0,-3.129000186920166,0,0
0.3323824999970384,0.370208740234375,-0.450897216796875,0.311431884765625,-0.75006103515625,0.06103515625,-0.1220703125,-0.1220703125,0.4451904296875,-0.8021240234375,0.400390625,-296.0,151.0,-154.0,101701.0,-3.129000186920166,0,0
0.33243909999146126,0.370208740234375,-0.450897216796875,0.311431884765625,-0.75006103515625,0.06103515625,-0.06103515625,-0.06103515625,0.4461669921875,-0.80078125,0.3995361328125,-296.0,151.0,-154.0,101701.0,-3.129000186920166,0,0
0.3324924999906216,0.370208740234375,-0.450897216796875,0.311431884765625,-0.75006103515625,0.06103515625,-0.18310546875,-0.06103515625,0.4471435546875,-0.8017578125,0.399658203125,-296.0,151.0,-154.0,101701.0,-3.129000186920166,0,0
0.3325458999897819,0.37017822265625,-0.450897216796875,0.311431884765625,-0.75006103515625,-0.06103515625,0.0,0.06103515625,0.4473876953125,-0.8016357421875,0.3990478515625,-296.0,151.0,-154.0,101701.0,-3.129000186920166,0,0
0.3325987999996869,0.37017822265625,-0.450897216796875,0.311431884765625,-0.75006103515625,0.1220703125,-0.1220703125,0.0,0.448974609375,-0.80224609375,0.398681640625,-296.0,151.0,-154.0,101701.0,-3.129000186920166,0,0
0.33265129999199416,0.37017822265625,-0.450897216796875,0.311431884765625,-0.75006103515625,0.1220703125,-0.1220703125,0.0,0.448974609375,-0.80224609375,0.398681640625,-296.0,151.0,-154.0,101701.0,-3.129000186920166,0,0
0.39746359999116976,0.370208740234375,-0.450897216796875,0.311431884765625,-0.75006103515625,0.1220703125,-0.18310546875,-0.06103515625,0.4437255859375,-0.800048828125,0.399658203125,-296.0,151.0,-154.0,101701.0,-3.129000186920166,0,0
0.3975256999983685,0.370208740234375,-0.450897216796875,0.311431884765625,-0.75006103515625,0.30517578125,0.0,-0.18310546875,0.44384765625,-0.8016357421875,0.3978271484375,-296.0,151.0,-154.0,101701.0,-3.129000186920166,0,0
0.39758159998746123,0.370208740234375,-0.450897216796875,0.311431884765625,-0.75006103515625,0.18310546875,-0.1220703125,0.06103515625,0.4483642578125,-0.802734375,0.39990234375,-296.0,151.0,-154.0,101701.0,-3.129000186920166,0,0
0.3976383999979589,0.370208740234375,-0.450897216796875,0.311431884765625,-0.75006103515625,0.06103515625,0.06103515625,-0.244140625,0.446533203125,-0.802978515625,0.3995361328125,-296.0,151.0,-154.0,101701.0,-3.129000186920166,0,0
0.3976937999977963,0.370208740234375,-0.450897216796875,0.311431884765625,-0.75006103515625,-0.06103515625,-0.1220703125,-0.18310546875,0.4464111328125,-0.801025390625,0.398193359375,-296.0,151.0,-154.0,101701.0,-3.129000186920166,0,0
0.401707199998782,0.370208740234375,-0.450897216796875,0.31146240234375,-0.75006103515625,0.0,-0.30517578125,-0.42724609375,0.4449462890625,-0.802978515625,0.398193359375,-296.0,151.0,-154.0,101701.0,-3.129000186920166,0,0
0.40176889998838305,0.370208740234375,-0.450897216796875,0.311431884765625,-0.75006103515625,0.244140625,-0.1220703125,0.0,0.447021484375,-0.7989501953125,0.400146484375,-296.0,151.0,-154.0,101701.0,-3.129000186920166,0,0
0.401824199987459,0.370208740234375,-0.450897216796875,0.311431884765625,-0.75006103515625,0.244140625,-0.1220703125,0.0,0.447021484375,-0.7989501953125,0.400146484375,-296.0,151.0,-154.0,101701.0,-3.129000186920166,0,0
0.4018794000003254,0.370208740234375,-0.450897216796875,0.31146240234375,-0.75006103515625,0.0,-0.18310546875,0.1220703125,0.446044921875,-0.8026123046875,0.39892578125,-296.0,151.0,-154.0,101701.0,-3.129000186920166,0,0
0.40193909998924937,0.370208740234375,-0.450897216796875,0.31146240234375,-0.75006103515625,0.0,-0.18310546875,0.1220703125,0.446044921875,-0.8026123046875,0.39892578125,-296.0,151.0,-154.0,101701.0,-3.129000186920166,0,0
0.4019969999935711,0.3699951171875,-0.450836181640625,0.31158447265625,-0.750152587890625,0.18310546875,-0.06103515625,-0.30517578125,0.443603515625,-0.7996826171875,0.3968505859375,-296.0,151.0,-154.0,101701.0,-3.129000186920166,0,0
0.4591305999929318,0.3699951171875,-0.450836181640625,0.311553955078125,-0.750152587890625,0.06103515625,-0.30517578125,0.1220703125,0.44677734375,-0.801513671875,0.400146484375,-296.0,151.0,-154.0,101701.0,-3.129000186920166,0,0
0.4591966999869328,0.3699951171875,-0.450836181640625,0.311553955078125,-0.750152587890625,0.30517578125,-0.18310546875,0.0,0.44873046875,-0.80029296875,0.4007568359375,-296.0,151.0,-154.0,101701.0,-3.129000186920166,0,0
0.46564419999776874,0.3699951171875,-0.450836181640625,0.311553955078125,-0.750152587890625,0.0,-0.1220703125,0.42724609375,0.447265625,-0.8016357421875,0.400390625,-296.0,151.0,-154.0,101701.0,-3.129000186920166,0,0
0.4657370999921113,0.3699951171875,-0.450836181640625,0.311553955078125,-0.750152587890625,0.0,-0.1220703125,0.42724609375,0.447265625,-0.8016357421875,0.400390625,-296.0,151.0,-154.0,101701.0,-3.129000186920166,0,0
0.46579999999084976,0.3699951171875,-0.450836181640625,0.311553955078125,-0.750152587890625,0.0,-0.06103515625,0.18310546875,0.4462890625,-0.8026123046875,0.3994140625,-296.0,151.0,-154.0,101701.0,-3.129000186920166,0,0
0.4659971999935806,0.3699951171875,-0.4508056640625,0.311553955078125,-0.750152587890625,-0.18310546875,-0.1220703125,-0.06103515625,0.447998046875,-0.80224609375,0.399169921875,-296.0,151.0,-154.0,101701.0,-3.129000186920166,0,0
0.46605999999155756,0.3699951171875,-0.4508056640625,0.311553955078125,-0.750152587890625,-0.06103515625,-0.1220703125,-0.18310546875,0.4449462890625,-0.801025390625,0.40234375,-296.0,151.0,-154.0,101701.0,-3.129000186920166,0,0
0.4661185999866575,0.3699951171875,-0.4508056640625,0.311553955078125,-0.750152587890625,-0.06103515625,-0.18310546875,-0.1220703125,0.44677734375,-0.8018798828125,0.4005126953125,-296.0,151.0,-154.0,101701.0,-3.129000186920166,0,0
0.4662003999983426,0.3699951171875,-0.450836181640625,0.311553955078125,-0.750152587890625,0.244140625,0.06103515625,-0.244140625,0.4476318359375,-0.8016357421875,0.3995361328125,-296.0,151.0,-154.0,101701.0,-3.129000186920166,0,0
0.466306699992856,0.3699951171875,-0.4508056640625,0.311553955078125,-0.750152587890625,0.244140625,-0.1220703125,-0.06103515625,0.4464111328125,-0.8026123046875,0.3988037109375,-296.0,151.0,-154.0,101701.0,-3.129000186920166,0,0
0.4664907999977004,0.3699951171875,-0.4508056640625,0.311553955078125,-0.750152587890625,-0.06103515625,-0.1220703125,-0.1220703125,0.4447021484375,-0.8011474609375,0.3997802734375,-296.0,151.0,-154.0,101701.0,-3.129000186920166,0,0
0.5235754999885103,0.3699951171875,-0.450836181640625,0.311553955078125,-0.750152587890625,0.3662109375,-0.1220703125,0.18310546875,0.4473876953125,-0.8023681640625,0.4013671875,-296.0,151.0,-154.0,101701.0,-3.129000186920166,0,0
0.5236449999938486,0.3699951171875,-0.450836181640625,0.311553955078125,-0.750152587890625,0.244140625,0.0,-0.1220703125,0.446533203125,-0.80126953125,0.3978271484375,-296.0,151.0,-154.0,101701.0,-3.129000186920166,0,0
0.5237042999942787,0.3699951171875,-0.450836181640625,0.311553955078125,-0.750152587890625,0.244140625,0.0,-0.1220703125,0.446533203125,-0.80126953125,0.3978271484375,-296.0,151.0,-154.0,101701.0,-3.129000186920166,0,0
0.5237624999863328,0.3699951171875,-0.450836181640625,0.3115234375,-0.750152587890625,0.30517578125,0.0,-0.30517578125,0.4471435546875,-0.798828125,0.3990478515625,-296.0,151.0,-154.0,101701.0,-3.129000186920166,0,0
0.5238202999898931,0.3699951171875,-0.450836181640625,0.3115234375,-0.75018310546875,0.1220703125,-0.244140625,-0.1220703125,0.445556640625,-0.798828125,0.4012451171875,-296.0,151.0,-154.0,101701.0,-3.129000186920166,0,0
0.5238770999858389,0.3699951171875,-0.450836181640625,0.3115234375,-0.75018310546875,-0.06103515625,0.06103515625,-0.244140625,0.4462890625,-0.80029296875,0.39990234375,-296.0,151.0,-154.0,101701.0,-3.129000186920166,0,0
0.5239329999894835,0.3699951171875,-0.450836181640625,0.3115234375,-0.75018310546875,0.18310546875,-0.1220703125,0.0,0.4451904296875,-0.799072265625,0.4005126953125,-295.0,150.0,-152.0,101701.0,-3.129000186920166,0,0
0.5240056999900844,0.369873046875,-0.450775146484375,0.31158447265625,-0.750244140625,-0.1220703125,-0.18310546875,-0.18310546875,0.44580078125,-0.7979736328125,0.400634765625,-295.0,150.0,-152.0,101701.0,-3.129000186920166,0,0
0.524059599993052,0.369873046875,-0.450775146484375,0.31158447265625,-0.750244140625,0.244140625,0.1220703125,0.18310546875,0.4456787109375,-0.8006591796875,0.400634765625,-295.0,150.0,-152.0,101701.0,-3.129000186920166,0,0
0.5241152999951737,0.369873046875,-0.450775146484375,0.31158447265625,-0.750244140625,-0.06103515625,0.06103515625,-0.18310546875,0.4464111328125,-0.800048828125,0.4000244140625,-295.0,150.0,-152.0,101701.0,-3.129000186920166,0,0
0.5241702999919653,0.369873046875,-0.450775146484375,0.31158447265625,-0.750244140625,0.244140625,-0.06103515625,0.18310546875,0.44677734375,-0.8009033203125,0.4000244140625,-295.0,150.0,-152.0,101701.0,-3.129000186920166,0,0
0.5242258999933256,0.369873046875,-0.450775146484375,0.31158447265625,-0.750244140625,0.244140625,-0.06103515625,0.18310546875,0.44677734375,-0.8009033203125,0.4000244140625,-295.0,150.0,-152.0,101701.0,-3.129000186920166,0,0
0.524281299993163,0.369903564453125,-0.450775146484375,0.311553955078125,-0.750244140625,0.06103515625,-0.06103515625,-0.244140625,0.445068359375,-0.799560546875,0.4010009765625,-295.0,150.0,-152.0,101701.0,-3.129000186920166,0,0
0.5874899999907939,0.369873046875,-0.450775146484375,0.311553955078125,-0.750244140625,-0.1220703125,-0.30517578125,-0.244140625,0.4449462890625,-0.7994384765625,0.3997802734375,-295.0,150.0,-152.0,101701.0,-3.129000186920166,0,0
0.5875543000001926,0.369903564453125,-0.450775146484375,0.311553955078125,-0.750244140625,0.06103515625,-0.06103515625,-0.1220703125,0.443115234375,-0.800537109375,0.3985595703125,-295.0,150.0,-152.0,101701.0,-3.130000114440918,0,0
0.5876138999883551,0.369903564453125,-0.45074462890625,0.311553955078125,-0.750244140625,0.1220703125,-0.06103515625,0.06103515625,0.446533203125,-0.80322265625,0.4010009765625,-295.0,150.0,-152.0,101701.0,-3.130000114440918,0,0
0.5876703999965684,0.369903564453125,-0.45074462890625,0.311553955078125,-0.750244140625,0.06103515625,0.06103515625,-0.18310546875,0.44580078125,-0.8006591796875,0.4000244140625,-295.0,150.0,-152.0,101701.0,-3.130000114440918,0,0
0.5877270999917528,0.369903564453125,-0.45074462890625,0.311553955078125,-0.750244140625,0.3662109375,-0.06103515625,0.18310546875,0.4459228515625,-0.7998046875,0.4000244140625,-295.0,150.0,-152.0,101701.0,-3.130000114440918,0,0
0.5937837999954354,0.369873046875,-0.450775146484375,0.311553955078125,-0.750244140625,-0.1220703125,-0.1220703125,0.0,0.4478759765625,-0.8004150390625,0.3995361328125,-295.0,150.0,-152.0,101701.0,-3.130000114440918,0,0
0.5938513000000967,0.369873046875,-0.450775146484375,0.311553955078125,-0.750244140625,-0.1220703125,-0.1220703125,0.0,0.4478759765625,-0.8004150390625,0.3995361328125,-295.0,150.0,-152.0,101701.0,-3.130000114440918,0,0
0.5939111999905435,0.369873046875,-0.450775146484375,0.311553955078125,-0.750244140625,0.18310546875,-0.1220703125,-0.30517578125,0.447265625,-0.8033447265625,0.3978271484375,-295.0,150.0,-152.0,101701.0,-3.130000114440918,0,0
0.5939679000002798,0.369873046875,-0.450775146484375,0.311553955078125,-0.750244140625,0.1220703125,-0.1220703125,-0.244140625,0.448486328125,-0.802490234375,0.39990234375,-295.0,150.0,-152.0,101701.0,-3.130000114440918,0,0
0.5940244999947026,0.369873046875,-0.450775146484375,0.311553955078125,-0.750244140625,0.244140625,-0.06103515625,0.0,0.44775390625,-0.8013916015625,0.4002685546875,-295.0,150.0,-152.0,101701.0,-3.130000114440918,0,0
0.5940826999867568,0.369873046875,-0.450775146484375,0.311553955078125,-0.750244140625,0.0,-0.18310546875,-0.06103515625,0.4464111328125,-0.7999267578125,0.4013671875,-295.0,150.0,-152.0,101701.0,-3.130000114440918,0,0
0.6491521999996621,0.369598388671875,-0.45062255859375,0.311737060546875,-0.750396728515625,-0.18310546875,0.06103515625,-0.1220703125,0.4437255859375,-0.801025390625,0.4005126953125,-295.0,150.0,-153.0,101701.0,-3.130000114440918,0,0
0.6492318999953568,0.36956787109375,-0.45062255859375,0.311737060546875,-0.750396728515625,0.0,-0.18310546875,0.06103515625,0.4464111328125,-0.800048828125,0.3988037109375,-295.0,150.0,-153.0,101701.0,-3.130000114440918,0,0
0.6492922999896109,0.36956787109375,-0.45062255859375,0.311737060546875,-0.750396728515625,0.0,-0.18310546875,0.06103515625,0.4464111328125,-0.800048828125,0.3988037109375,-295.0,150.0,-153.0,101701.0,-3.130000114440918,0,0
0.649349399987841,0.369598388671875,-0.45062255859375,0.311737060546875,-0.750396728515625,0.0,-0.1220703125,-0.06103515625,0.445068359375,-0.7999267578125,0.3990478515625,-295.0,150.0,-153.0,101701.0,-3.130000114440918,0,0
0.6494105999881867,0.369598388671875,-0.45062255859375,0.311737060546875,-0.750396728515625,0.0,-0.06103515625,-0.06103515625,0.44384765625,-0.799560546875,0.4005126953125,-295.0,150.0,-153.0,101701.0,-3.130000114440918,0,0
0.6494935999944573,0.369598388671875,-0.45062255859375,0.31170654296875,-0.750396728515625,0.30517578125,-0.06103515625,0.06103515625,0.44580078125,-0.800537109375,0.3997802734375,-295.0,150.0,-153.0,101701.0,-3.130000114440918,0,0
0.6495559999893885,0.369598388671875,-0.45062255859375,0.31170654296875,-0.750396728515625,-0.06103515625,0.0,-0.18310546875,0.447021484375,-0.801025390625,0.3995361328125,-295.0,150.0,-153.0,101701.0,-3.130000114440918,0,0
0.6496148999867728,0.369598388671875,-0.45062255859375,0.31170654296875,-0.750396728515625,0.1220703125,0.06103515625,0.18310546875,0.4468994140625,-0.8009033203125,0.400390625,-295.0,150.0,-153.0,101701.0,-3.130000114440918,0,0
0.6496698999981163,0.369598388671875,-0.45062255859375,0.31170654296875,-0.75042724609375,-0.18310546875,0.06103515625,0.18310546875,0.4449462890625,-0.8028564453125,0.400634765625,-295.0,150.0,-153.0,101701.0,-3.128000259399414,0,0
0.6497502999991411,0.369598388671875,-0.45062255859375,0.311737060546875,-0.750396728515625,0.42724609375,0.18310546875,-0.1220703125,0.442626953125,-0.799560546875,0.4002685546875,-295.0,150.0,-153.0,101701.0,-3.128000259399414,0,0
0.6498097000003327,0.369598388671875,-0.45062255859375,0.311737060546875,-0.750396728515625,0.18310546875,-0.1220703125,-0.3662109375,0.443115234375,-0.80224609375,0.39990234375,-295.0,150.0,-153.0,101701.0,-3.128000259399414,0,0
0.6498686999984784,0.369598388671875,-0.45062255859375,0.311737060546875,-0.750396728515625,-0.18310546875,-0.06103515625,-0.48828125,0.4456787109375,-0.801513671875,0.399658203125,-295.0,150.0,-153.0,101701.0,-3.128000259399414,0,0
0.718037299986463,0.369598388671875,-0.45062255859375,0.311737060546875,-0.750396728515625,-0.18310546875,-0.06103515625,-0.48828125,0.4456787109375,-0.801513671875,0.399658203125,-295.0,150.0,-153.0,101701.0,-3.128000259399414,0,0
0.7181043999880785,0.369598388671875,-0.45062255859375,0.311737060546875,-0.750396728515625,0.06103515625,-0.1220703125,-0.1220703125,0.4471435546875,-0.80029296875,0.4000244140625,-295.0,150.0,-153.0,101701.0,-3.128000259399414,0,0
0.71816379998927,0.369598388671875,-0.45062255859375,0.311737060546875,-0.750396728515625,0.0,-0.3662109375,-0.1220703125,0.447265625,-0.8018798828125,0.39794921875,-295.0,150.0,-153.0,101701.0,-3.128000259399414,0,0
0.7182229999889387,0.369598388671875,-0.45062255859375,0.311737060546875,-0.750396728515625,0.0,0.1220703125,0.06103515625,0.4462890625,-0.7999267578125,0.3994140625,-295.0,150.0,-153.0,101701.0,-3.128000259399414,0,0
0.7182820999878459,0.369598388671875,-0.45062255859375,0.311737060546875,-0.750396728515625,-0.06103515625,-0.18310546875,0.06103515625,0.4464111328125,-0.80078125,0.3992919921875,-295.0,150.0,-153.0,101701.0,-3.128000259399414,0,0
0.7183395999891218,0.369598388671875,-0.45062255859375,0.311737060546875,-0.750396728515625,0.1220703125,-0.06103515625,0.1220703125,0.446044921875,-0.8023681640625,0.39892578125,-295.0,150.0,-153.0,101701.0,-3.128000259399414,0,0
0.7196403999987524,0.369598388671875,-0.45062255859375,0.31170654296875,-0.750396728515625,0.0,-0.18310546875,0.0,0.447998046875,-0.8018798828125,0.4005126953125,-295.0,150.0,-153.0,101701.0,-3.128000259399414,0,0
0.7197114999871701,0.369293212890625,-0.45050048828125,0.3118896484375,-0.75054931640625,0.18310546875,-0.244140625,-0.06103515625,0.446533203125,-0.800048828125,0.4002685546875,-293.0,150.0,-154.0,101701.0,-3.128000259399414,0,0
0.7197719999967376,0.369293212890625,-0.45050048828125,0.3118896484375,-0.75054931640625,-0.1220703125,-0.18310546875,-0.18310546875,0.44580078125,-0.801025390625,0.3994140625,-293.0,150.0,-154.0,101701.0,-3.128000259399414,0,0
0.7198319999879459,0.369293212890625,-0.45050048828125,0.3118896484375,-0.75054931640625,-0.1220703125,-0.18310546875,-0.18310546875,0.44580078125,-0.801025390625,0.3994140625,-293.0,150.0,-154.0,101701.0,-3.128000259399414,0,0
0.719890199994552,0.369293212890625,-0.45050048828125,0.311920166015625,-0.75054931640625,0.06103515625,0.1220703125,-0.06103515625,0.446044921875,-0.8033447265625,0.3988037109375,-293.0,150.0,-154.0,101701.0,-3.128000259399414,0,0
0.7199500999995507,0.369293212890625,-0.45050048828125,0.3118896484375,-0.75054931640625,0.1220703125,-0.1220703125,-0.06103515625,0.44580078125,-0.79931640625,0.3988037109375,-293.0,150.0,-154.0,101701.0,-3.128000259399414,0,0
0.780327499989653,0.369293212890625,-0.45050048828125,0.3118896484375,-0.75054931640625,0.0,-0.18310546875,-0.06103515625,0.4468994140625,-0.8001708984375,0.400390625,-293.0,150.0,-154.0,101701.0,-3.128000259399414,0,0
0.7803905999899143,0.369293212890625,-0.45050048828125,0.3118896484375,-0.75054931640625,0.06103515625,-0.18310546875,0.06103515625,0.447509765625,-0.80126953125,0.3980712890625,-293.0,150.0,-154.0,101701.0,-3.128000259399414,0,0
0.7804478999896673,0.369293212890625,-0.45050048828125,0.3118896484375,-0.75054931640625,0.06103515625,0.06103515625,-0.244140625,0.445556640625,-0.8009033203125,0.40234375,-293.0,150.0,-154.0,101701.0,-3.128000259399414,0,0
0.7805031999887433,0.369293212890625,-0.45050048828125,0.3118896484375,-0.75054931640625,0.0,0.0,0.0,0.4462890625,-0.8011474609375,0.399169921875,-293.0,150.0,-154.0,101701.0,-3.129000186920166,0,0
0.7805573999939952,0.369293212890625,-0.45050048828125,0.3118896484375,-0.75054931640625,0.18310546875,0.0,-0.1220703125,0.446044921875,-0.8031005859375,0.3988037109375,-293.0,150.0,-154.0,101701.0,-3.129000186920166,0,0
0.7806312999891816,0.369293212890625,-0.45050048828125,0.3118896484375,-0.75054931640625,0.18310546875,0.0,-0.1220703125,0.446044921875,-0.8031005859375,0.3988037109375,-293.0,150.0,-154.0,101701.0,-3.129000186920166,0,0
0.7806862999859732,0.369293212890625,-0.45050048828125,0.3118896484375,-0.75054931640625,0.06103515625,-0.06103515625,0.1220703125,0.4483642578125,-0.8033447265625,0.39990234375,-293.0,150.0,-154.0,101701.0,-3.129000186920166,0,0
0.7807399999874178,0.369293212890625,-0.45050048828125,0.311920166015625,-0.75054931640625,0.06103515625,0.0,0.06103515625,0.4453125,-0.80126953125,0.398681640625,-293.0,150.0,-154.0,101701.0,-3.129000186920166,0,0
0.780793599988101,0.369293212890625,-0.45050048828125,0.3118896484375,-0.75054931640625,0.06103515625,-0.06103515625,-0.1220703125,0.445556640625,-0.7996826171875,0.40185546875,-293.0,150.0,-154.0,101701.0,-3.129000186920166,0,0
0.7808468000002904,0.369293212890625,-0.45050048828125,0.3118896484375,-0.75054931640625,0.18310546875,-0.06103515625,-0.244140625,0.447509765625,-0.7989501953125,0.3983154296875,-293.0,150.0,-154.0,101701.0,-3.129000186920166,0,0
0.7809046999900602,0.369293212890625,-0.45050048828125,0.3118896484375,-0.75054931640625,0.06103515625,-0.1220703125,-0.30517578125,0.4437255859375,-0.8017578125,0.3990478515625,-293.0,150.0,-154.0,101701.0,-3.129000186920166,0,0
0.7809572999976808,0.369293212890625,-0.45050048828125,0.3118896484375,-0.75054931640625,0.06103515625,-0.1220703125,-0.1220703125,0.4456787109375,-0.8028564453125,0.399658203125,-293.0,150.0,-154.0,101701.0,-3.129000186920166,0,0
0.8412487999885343,0.368988037109375,-0.45037841796875,0.312103271484375,-0.750701904296875,0.0,-0.18310546875,0.0,0.447998046875,-0.8013916015625,0.3980712890625,-293.0,150.0,-153.0,101701.0,-3.129000186920166,0,0
0.8413073999981862,0.368988037109375,-0.45037841796875,0.312103271484375,-0.750701904296875,0.0,-0.06103515625,0.06103515625,0.4447021484375,-0.80126953125,0.3968505859375,-293.0,150.0,-153.0,101701.0,-3.129000186920166,0,0
0.8413624999957392,0.368988037109375,-0.450408935546875,0.312103271484375,-0.750701904296875,0.0,0.0,-0.1220703125,0.44775390625,-0.8004150390625,0.398193359375,-293.0,150.0,-153.0,101701.0,-3.129000186920166,0,0
0.8414155999926152,0.368988037109375,-0.450408935546875,0.312103271484375,-0.750701904296875,0.1220703125,-0.06103515625,-0.1220703125,0.4478759765625,-0.802490234375,0.3995361328125,-293.0,150.0,-153.0,101701.0,-3.129000186920166,0,0
0.8422056999988854,0.36895751953125,-0.450408935546875,0.312103271484375,-0.750701904296875,-0.1220703125,-0.18310546875,0.244140625,0.4451904296875,-0.8004150390625,0.3988037109375,-293.0,150.0,-153.0,101701.0,-3.129000186920166,0,0
0.8422635999886552,0.36895751953125,-0.450408935546875,0.312103271484375,-0.750701904296875,-0.06103515625,0.0,-0.1220703125,0.4486083984375,-0.80126953125,0.3994140625,-293.0,150.0,-153.0,101701.0,-3.129000186920166,0,0
0.8423169999878155,0.36895751953125,-0.450408935546875,0.31207275390625,-0.750701904296875,-0.06103515625,-0.06103515625,-0.1220703125,0.444580078125,-0.7996826171875,0.39892578125,-293.0,150.0,-153.0,101701.0,-3.129000186920166,0,0
0.8423699999984819,0.36895751953125,-0.450408935546875,0.312103271484375,-0.750701904296875,0.18310546875,-0.18310546875,0.06103515625,0.44580078125,-0.800537109375,0.398681640625,-293.0,150.0,-153.0,101701.0,-3.129000186920166,0,0
0.8424223999900278,0.36895751953125,-0.450408935546875,0.312103271484375,-0.750701904296875,0.3662109375,0.0,-0.18310546875,0.445556640625,-0.80322265625,0.4002685546875,-293.0,150.0,-153.0,101701.0,-3.13100004196167,0,0
0.8424758999899495,0.36895751953125,-0.450408935546875,0.312103271484375,-0.750701904296875,0.1220703125,-0.1220703125,-0.06103515625,0.4459228515625,-0.802001953125,0.398681640625,-293.0,150.0,-153.0,101701.0,-3.13100004196167,0,0
0.8425273999891942,0.36895751953125,-0.450408935546875,0.312103271484375,-0.750701904296875,0.1220703125,-0.1220703125,-0.06103515625,0.4459228515625,-0.802001953125,0.398681640625,-293.0,150.0,-153.0,101701.0,-3.13100004196167,0,0
0.9112707999884151,0.36895751953125,-0.450408935546875,0.312103271484375,-0.750701904296875,0.18310546875,-0.244140625,0.06103515625,0.4454345703125,-0.8018798828125,0.3983154296875,-293.0,150.0,-153.0,101701.0,-3.13100004196167,0,0
0.9113365999946836,0.36895751953125,-0.450408935546875,0.312103271484375,-0.75067138671875,-0.06103515625,0.1220703125,0.0,0.4462890625,-0.7989501953125,0.3968505859375,-293.0,150.0,-153.0,101701.0,-3.13100004196167,0,0
0.9113929999875836,0.36895751953125,-0.450408935546875,0.312103271484375,-0.75067138671875,0.0,-0.30517578125,-0.30517578125,0.4451904296875,-0.8013916015625,0.3997802734375,-293.0,150.0,-153.0,101701.0,-3.13100004196167,0,0
0.9114463999867439,0.36895751953125,-0.450408935546875,0.312103271484375,-0.750701904296875,-0.1220703125,-0.1220703125,-0.1220703125,0.44775390625,-0.8021240234375,0.3994140625,-293.0,150.0,-153.0,101701.0,-3.13100004196167,0,0
0.9115008999942802,0.36895751953125,-0.450408935546875,0.312103271484375,-0.750701904296875,-0.1220703125,-0.244140625,0.06103515625,0.4468994140625,-0.800537109375,0.40087890625,-293.0,150.0,-153.0,101701.0,-3.13100004196167,0,0
0.9115525999950478,0.36895751953125,-0.450408935546875,0.312103271484375,-0.750701904296875,0.18310546875,0.0,-0.06103515625,0.4451904296875,-0.8001708984375,0.398681640625,-293.0,150.0,-153.0,101701.0,-3.13100004196167,0,0
0.9122266999911517,0.36895751953125,-0.450408935546875,0.312103271484375,-0.75067138671875,-0.244140625,-0.18310546875,-0.06103515625,0.4456787109375,-0.803466796875,0.3978271484375,-293.0,150.0,-153.0,101701.0,-3.13100004196167,0,0
0.9122989999887068,0.36895751953125,-0.450408935546875,0.312103271484375,-0.75067138671875,0.18310546875,-0.18310546875,0.1220703125,0.4473876953125,-0.803955078125,0.400146484375,-293.0,150.0,-153.0,101701.0,-3.13100004196167,0,0
0.9123579999868525,0.36895751953125,-0.450408935546875,0.312103271484375,-0.75067138671875,0.18310546875,-0.18310546875,0.1220703125,0.4473876953125,-0.803955078125,0.400146484375,-293.0,150.0,-153.0,101701.0,-3.13100004196167,0,0
0.9124164999957429,0.36895751953125,-0.450408935546875,0.312103271484375,-0.75067138671875,0.0,-0.18310546875,-0.244140625,0.445068359375,-0.7998046875,0.3973388671875,-293.0,150.0,-152.0,101701.0,-3.13100004196167,0,0
0.9124714999925345,0.36895751953125,-0.450408935546875,0.312103271484375,-0.75067138671875,0.1220703125,0.1220703125,0.30517578125,0.442626953125,-0.8004150390625,0.3975830078125,-293.0,150.0,-152.0,101701.0,-3.13100004196167,0,0
0.912529799999902,0.36895751953125,-0.450408935546875,0.312103271484375,-0.75067138671875,-0.30517578125,-0.18310546875,-0.1220703125,0.447265625,-0.800537109375,0.39794921875,-293.0,150.0,-152.0,101701.0,-3.13100004196167,0,0
0.9698809999972582,0.36895751953125,-0.450408935546875,0.3121337890625,-0.75067138671875,0.1220703125,0.0,0.06103515625,0.446044921875,-0.8018798828125,0.3994140625,-293.0,150.0,-152.0,101701.0,-3.13100004196167,0,0
0.9699477999965893,0.36895751953125,-0.450408935546875,0.3121337890625,-0.75067138671875,0.18310546875,-0.1220703125,-0.1220703125,0.44580078125,-0.8011474609375,0.3975830078125,-293.0,150.0,-152.0,101701.0,-3.13100004196167,0,0
0.9700062999909278,0.36895751953125,-0.450408935546875,0.3121337890625,-0.75067138671875,0.06103515625,-0.06103515625,-0.3662109375,0.4453125,-0.8023681640625,0.3990478515625,-293.0,150.0,-152.0,101701.0,-3.13100004196167,0,0
0.9700634999899194,0.36895751953125,-0.450408935546875,0.3121337890625,-0.75067138671875,0.1220703125,-0.1220703125,-0.18310546875,0.4447021484375,-0.80322265625,0.3988037109375,-293.0,150.0,-152.0,101701.0,-3.13100004196167,0,0
0.9701200999988941,0.36895751953125,-0.450408935546875,0.3121337890625,-0.75067138671875,0.1220703125,-0.1220703125,-0.18310546875,0.4447021484375,-0.80322265625,0.3988037109375,-293.0,150.0,-152.0,101701.0,-3.13100004196167,0,0
0.9704846999957226,0.36895751953125,-0.450439453125,0.3121337890625,-0.75067138671875,-0.18310546875,-0.18310546875,-0.1220703125,0.4471435546875,-0.8016357421875,0.39990234375,-293.0,150.0,-152.0,101701.0,-3.132000207901001,0,0
0.9705435999931069,0.36895751953125,-0.450408935546875,0.3121337890625,-0.75067138671875,0.0,-0.06103515625,0.06103515625,0.4464111328125,-0.80078125,0.4002685546875,-293.0,150.0,-152.0,101701.0,-3.132000207901001,0,0
0.9706012999959057,0.36895751953125,-0.450408935546875,0.3121337890625,-0.75067138671875,-0.1220703125,-0.244140625,-0.06103515625,0.4466552734375,-0.798828125,0.3995361328125,-293.0,150.0,-152.0,101701.0,-3.132000207901001,0,0
0.9706573999865213,0.36895751953125,-0.450408935546875,0.3121337890625,-0.75067138671875,0.0,-0.06103515625,0.0,0.447021484375,-0.80126953125,0.3978271484375,-293.0,150.0,-152.0,101701.0,-3.132000207901001,0,0
0.9707136999932118,0.36895751953125,-0.450408935546875,0.3121337890625,-0.75067138671875,0.0,-0.06103515625,0.0,0.4459228515625,-0.8013916015625,0.39892578125,-293.0,150.0,-152.0,101701.0,-3.132000207901001,0,0
0.9708435999928042,0.36895751953125,-0.450408935546875,0.3121337890625,-0.75067138671875,0.0,-0.06103515625,0.06103515625,0.4442138671875,-0.8011474609375,0.3995361328125,-293.0,150.0,-152.0,101701.0,-3.132000207901001,0,0
0.9709015999978874,0.36895751953125,-0.450439453125,0.3121337890625,-0.75067138671875,0.1220703125,-0.06103515625,0.0,0.4456787109375,-0.8016357421875,0.3970947265625,-293.0,150.0,-152.0,101701.0,-3.132000207901001,0,0
1.0301952999870991,0.36895751953125,-0.450439453125,0.3121337890625,-0.75067138671875,0.06103515625,-0.30517578125,0.0,0.4456787109375,-0.802001953125,0.3978271484375,-293.0,150.0,-152.0,101701.0,-3.132000207901001,0,0
1.0302687999937916,0.36895751953125,-0.450439453125,0.3121337890625,-0.75067138671875,0.1220703125,-0.18310546875,0.0,0.44677734375,-0.80224609375,0.398681640625,-293.0,150.0,-152.0,101701.0,-3.132000207901001,0,0
1.0303295999910915,0.36895751953125,-0.450439453125,0.3121337890625,-0.75067138671875,-0.1220703125,-0.18310546875,0.0,0.4453125,-0.7998046875,0.3997802734375,-293.0,150.0,-152.0,101701.0,-3.132000207901001,0,0
1.030388299986953,0.36895751953125,-0.450439453125,0.3121337890625,-0.75067138671875,0.0,-0.1220703125,0.18310546875,0.4473876953125,-0.799072265625,0.401123046875,-293.0,150.0,-152.0,101701.0,-3.132000207901001,0,0
1.0304456999874674,0.36895751953125,-0.450439453125,0.3121337890625,-0.75067138671875,-0.06103515625,-0.06103515625,-0.1220703125,0.44482421875,-0.7994384765625,0.4002685546875,-293.0,150.0,-152.0,101701.0,-3.132000207901001,0,0
1.0374540999910096,0.36895751953125,-0.450439453125,0.3121337890625,-0.75067138671875,0.244140625,-0.18310546875,-0.06103515625,0.4483642578125,-0.8018798828125,0.3980712890625,-293.0,150.0,-152.0,101701.0,-3.132000207901001,0,0
1.037518099998124,0.36895751953125,-0.450439453125,0.3121337890625,-0.75067138671875,0.06103515625,0.06103515625,0.0,0.443359375,-0.8016357421875,0.398193359375,-293.0,150.0,-152.0,101701.0,-3.132000207901001,0,0
1.037576499991701,0.36895751953125,-0.450439453125,0.3121337890625,-0.75067138671875,0.30517578125,0.0,-0.1220703125,0.4468994140625,-0.8011474609375,0.39794921875,-293.0,150.0,-152.0,101701.0,-3.132000207901001,0,0
1.0376353999890853,0.36895751953125,-0.450439453125,0.3121337890625,-0.75067138671875,-0.18310546875,0.0,-0.06103515625,0.445556640625,-0.79931640625,0.4017333984375,-293.0,150.0,-152.0,101701.0,-3.132000207901001,0,0
1.0376917999965372,0.36895751953125,-0.450439453125,0.3121337890625,-0.75067138671875,-0.18310546875,0.0,-0.06103515625,0.445556640625,-0.79931640625,0.4017333984375,-293.0,150.0,-152.0,101701.0,-3.132000207901001,0,0
1.0377477999863913,0.36895751953125,-0.450439453125,0.3121337890625,-0.75067138671875,0.18310546875,0.0,0.0,0.4473876953125,-0.80224609375,0.3984375,-293.0,150.0,-152.0,101701.0,-3.130000114440918,0,0
1.1034847999981139,0.36895751953125,-0.450439453125,0.3121337890625,-0.75067138671875,0.18310546875,0.0,-0.06103515625,0.448486328125,-0.80078125,0.3975830078125,-293.0,150.0,-152.0,101701.0,-3.130000114440918,0,0
1.1035532999958377,0.36895751953125,-0.450439453125,0.3121337890625,-0.75067138671875,-0.1220703125,0.06103515625,0.0,0.4471435546875,-0.8009033203125,0.3990478515625,-293.0,150.0,-152.0,101701.0,-3.130000114440918,0,0
1.1036128999985522,0.36895751953125,-0.450439453125,0.3121337890625,-0.75067138671875,0.244140625,-0.244140625,0.1220703125,0.4443359375,-0.799072265625,0.3983154296875,-293.0,150.0,-152.0,101701.0,-3.130000114440918,0,0
1.103667499992298,0.36895751953125,-0.450439453125,0.3121337890625,-0.750640869140625,0.1220703125,-0.1220703125,-0.18310546875,0.447021484375,-0.801025390625,0.398681640625,-293.0,150.0,-152.0,101701.0,-3.130000114440918,0,0
1.1037268999934895,0.36895751953125,-0.450469970703125,0.3121337890625,-0.750640869140625,0.06103515625,-0.18310546875,0.06103515625,0.447021484375,-0.8023681640625,0.3970947265625,-293.0,150.0,-152.0,101701.0,-3.130000114440918,0,0
1.103785199986305,0.36895751953125,-0.450469970703125,0.3121337890625,-0.750640869140625,-0.06103515625,0.06103515625,0.1220703125,0.4468994140625,-0.80224609375,0.398193359375,-293.0,150.0,-152.0,101701.0,-3.130000114440918,0,0
1.1038619999890216,0.36895751953125,-0.450469970703125,0.3121337890625,-0.750640869140625,-0.06103515625,-0.1220703125,0.18310546875,0.4451904296875,-0.8006591796875,0.39794921875,-293.0,150.0,-152.0,101701.0,-3.130000114440918,0,0
1.1041079999995418,0.36895751953125,-0.450469970703125,0.3121337890625,-0.750640869140625,-0.06103515625,-0.1220703125,0.18310546875,0.4451904296875,-0.8006591796875,0.39794921875,-293.0,150.0,-152.0,101701.0,-3.130000114440918,0,0
1.1042598999920301,0.36895751953125,-0.450469970703125,0.3121337890625,-0.750640869140625,-0.06103515625,-0.06103515625,-0.06103515625,0.445556640625,-0.802734375,0.3984375,-293.0,150.0,-152.0,101701.0,-3.130000114440918,0,0
1.1043396999884862,0.36895751953125,-0.450469970703125,0.312164306640625,-0.750640869140625,-0.1220703125,-0.18310546875,0.06103515625,0.445068359375,-0.802001953125,0.398193359375,-293.0,150.0,-152.0,101701.0,-3.130000114440918,0,0
1.1044002999988152,0.36895751953125,-0.450469970703125,0.312164306640625,-0.750640869140625,0.30517578125,0.0,0.0,0.444580078125,-0.80078125,0.3975830078125,-293.0,150.0,-152.0,101701.0,-3.130000114440918,0,0
1.1044584999908693,0.36883544921875,-0.450439453125,0.312225341796875,-0.75067138671875,0.0,-0.18310546875,0.1220703125,0.4459228515625,-0.80126953125,0.39794921875,-292.0,150.0,-152.0,101701.0,-3.130000114440918,0,0
1.1045158999913838,0.36883544921875,-0.450439453125,0.312225341796875,-0.75067138671875,-0.244140625,-0.18310546875,-0.06103515625,0.4483642578125,-0.801513671875,0.3992919921875,-292.0,150.0,-152.0,101701.0,-3.130000114440918,0,0
1.1606881999905454,0.36883544921875,-0.450439453125,0.312225341796875,-0.75067138671875,0.1220703125,-0.244140625,0.0,0.4453125,-0.8001708984375,0.3970947265625,-292.0,150.0,-152.0,101701.0,-3.130000114440918,0,0
1.160763499996392,0.36883544921875,-0.450439453125,0.312225341796875,-0.75067138671875,0.1220703125,-0.244140625,0.0,0.4453125,-0.8001708984375,0.3970947265625,-292.0,150.0,-152.0,101701.0,-3.130000114440918,0,0
1.1608254999882774,0.36883544921875,-0.450469970703125,0.312225341796875,-0.75067138671875,0.06103515625,-0.30517578125,-0.06103515625,0.44677734375,-0.8006591796875,0.3974609375,-292.0,150.0,-152.0,101701.0,-3.130000114440918,0,0
1.1608858999970835,0.36883544921875,-0.450469970703125,0.312225341796875,-0.75067138671875,0.1220703125,-0.244140625,0.06103515625,0.4459228515625,-0.802978515625,0.398193359375,-292.0,150.0,-152.0,101701.0,-3.130000114440918,0,0
1.161123999991105,0.36883544921875,-0.450469970703125,0.312225341796875,-0.75067138671875,-0.06103515625,-0.18310546875,0.0,0.4444580078125,-0.7994384765625,0.3984375,-292.0,150.0,-152.0,101701.0,-3.130000114440918,0,0
1.1612154999893392,0.36883544921875,-0.450469970703125,0.312225341796875,-0.75067138671875,0.244140625,-0.1220703125,0.06103515625,0.4478759765625,-0.8011474609375,0.3990478515625,-292.0,150.0,-152.0,101701.0,-3.13100004196167,0,0
1.1612796999979764,0.36883544921875,-0.450469970703125,0.312225341796875,-0.75067138671875,0.244140625,-0.1220703125,0.06103515625,0.4478759765625,-0.8011474609375,0.3990478515625,-292.0,150.0,-152.0,101701.0,-3.13100004196167,0,0
1.1613398999907076,0.36883544921875,-0.450469970703125,0.312225341796875,-0.75067138671875,-0.06103515625,-0.244140625,-0.06103515625,0.4456787109375,-0.8006591796875,0.4000244140625,-292.0,150.0,-152.0,101701.0,-3.13100004196167,0,0
1.1613981999980751,0.36883544921875,-0.450469970703125,0.312225341796875,-0.75067138671875,0.1220703125,0.0,-0.06103515625,0.44482421875,-0.803466796875,0.3994140625,-292.0,150.0,-152.0,101701.0,-3.13100004196167,0,0
1.1614561999886064,0.36883544921875,-0.450469970703125,0.312225341796875,-0.75067138671875,-0.1220703125,-0.1220703125,0.06103515625,0.4453125,-0.800048828125,0.397216796875,-292.0,150.0,-152.0,101701.0,-3.13100004196167,0,0
1.1615147999982582,0.36883544921875,-0.450469970703125,0.312225341796875,-0.75067138671875,0.06103515625,0.1220703125,-0.18310546875,0.447265625,-0.80078125,0.3978271484375,-292.0,150.0,-152.0,101701.0,-3.13100004196167,0,0
1.2261925999919185,0.368804931640625,-0.45050048828125,0.312255859375,-0.750640869140625,0.3662109375,0.0,-0.18310546875,0.445068359375,-0.80126953125,0.397216796875,-292.0,150.0,-152.0,101701.0,-3.13100004196167,0,0
1.2262584999989485,0.368804931640625,-0.45050048828125,0.312255859375,-0.750640869140625,-0.1220703125,-0.244140625,-0.06103515625,0.44482421875,-0.80029296875,0.3984375,-292.0,150.0,-152.0,101701.0,-3.13100004196167,0,0
1.2263192999962484,0.368804931640625,-0.45050048828125,0.312255859375,-0.750640869140625,-0.1220703125,-0.244140625,-0.06103515625,0.44482421875,-0.80029296875,0.3984375,-292.0,150.0,-152.0,101701.0,-3.13100004196167,0,0
1.2263780999928713,0.368804931640625,-0.45050048828125,0.312255859375,-0.750640869140625,-0.1220703125,-0.1220703125,0.1220703125,0.4464111328125,-0.80126953125,0.3978271484375,-293.0,151.0,-151.0,101701.0,-3.13100004196167,0,0
1.22643579999567,0.368804931640625,-0.45050048828125,0.312255859375,-0.750640869140625,-0.244140625,-0.18310546875,0.06103515625,0.4444580078125,-0.7994384765625,0.399169921875,-293.0,151.0,-151.0,101701.0,-3.13100004196167,0,0
1.2273278999928152,0.368804931640625,-0.45050048828125,0.312255859375,-0.750640869140625,0.0,-0.06103515625,0.0,0.447021484375,-0.803466796875,0.3973388671875,-293.0,151.0,-151.0,101701.0,-3.13100004196167,0,0
1.2273887999908766,0.368804931640625,-0.45050048828125,0.312255859375,-0.750640869140625,-0.06103515625,-0.18310546875,-0.06103515625,0.4466552734375,-0.7999267578125,0.3988037109375,-293.0,151.0,-151.0,101701.0,-3.13100004196167,0,0
1.2274455999868223,0.368804931640625,-0.45050048828125,0.312255859375,-0.750640869140625,-0.06103515625,-0.18310546875,-0.06103515625,0.4466552734375,-0.7999267578125,0.3988037109375,-293.0,151.0,-151.0,101701.0,-3.13100004196167,0,0
1.2275032999896212,0.368804931640625,-0.45050048828125,0.312255859375,-0.750640869140625,0.18310546875,0.1220703125,0.0,0.447021484375,-0.8009033203125,0.396728515625,-293.0,151.0,-151.0,101701.0,-3.13100004196167,0,0
1.2275602999870898,0.368804931640625,-0.45050048828125,0.312255859375,-0.750640869140625,-0.1220703125,0.0,-0.18310546875,0.4443359375,-0.80224609375,0.3985595703125,-293.0,151.0,-151.0,101701.0,-3.13100004196167,0,0
1.2276161999907345,0.368804931640625,-0.450531005859375,0.312255859375,-0.750640869140625,0.06103515625,0.0,0.0,0.4468994140625,-0.8013916015625,0.3978271484375,-293.0,151.0,-151.0,101701.0,-3.13100004196167,0,0
1.2884289999929024,0.368804931640625,-0.450531005859375,0.312255859375,-0.750640869140625,0.06103515625,0.0,0.0,0.4468994140625,-0.8013916015625,0.3978271484375,-293.0,151.0,-151.0,101701.0,-3.13100004196167,0,0
1.2884970999875804,0.368804931640625,-0.450531005859375,0.312255859375,-0.750640869140625,0.1220703125,0.06103515625,-0.30517578125,0.4459228515625,-0.802490234375,0.398193359375,-293.0,151.0,-151.0,101701.0,-3.13100004196167,0,0
1.2885578999994323,0.368804931640625,-0.450531005859375,0.312255859375,-0.750640869140625,0.1220703125,-0.3662109375,-0.1220703125,0.44677734375,-0.8011474609375,0.3974609375,-293.0,151.0,-151.0,101701.0,-3.13100004196167,0,0
1.2886138999892864,0.368804931640625,-0.450531005859375,0.312255859375,-0.750640869140625,0.06103515625,-0.18310546875,-0.06103515625,0.447265625,-0.8011474609375,0.3983154296875,-293.0,151.0,-151.0,101701.0,-3.13100004196167,0,0
1.2886715999920852,0.368804931640625,-0.450531005859375,0.312255859375,-0.7506103515625,-0.1220703125,0.0,0.06103515625,0.4471435546875,-0.7999267578125,0.39794921875,-293.0,151.0,-151.0,101701.0,-3.13100004196167,0,0
1.2887286999903154,0.368804931640625,-0.450531005859375,0.312255859375,-0.7506103515625,0.0,0.18310546875,-0.06103515625,0.443603515625,-0.8021240234375,0.398193359375,-293.0,151.0,-151.0,101701.0,-3.13100004196167,0,0
1.2959475999959977,0.368804931640625,-0.450531005859375,0.312255859375,-0.7506103515625,0.0,0.18310546875,-0.06103515625,0.443603515625,-0.8021240234375,0.398193359375,-293.0,151.0,-151.0,101701.0,-3.13100004196167,0,0
1.2960270999901695,0.368804931640625,-0.450531005859375,0.312255859375,-0.7506103515625,0.3662109375,-0.18310546875,-0.06103515625,0.4466552734375,-0.7991943359375,0.3985595703125,-293.0,151.0,-151.0,101701.0,-3.13100004196167,0,0
1.2960890999966068,0.368804931640625,-0.450531005859375,0.312255859375,-0.7506103515625,0.06103515625,-0.30517578125,0.0,0.444580078125,-0.80029296875,0.3980712890625,-293.0,151.0,-151.0,101701.0,-3.13100004196167,0,0
1.2961477999924682,0.368804931640625,-0.450531005859375,0.312286376953125,-0.7506103515625,0.0,-0.244140625,-0.244140625,0.4482421875,-0.7999267578125,0.3984375,-293.0,151.0,-151.0,101701.0,-3.13100004196167,0,0
1.2962061999860452,0.368804931640625,-0.450531005859375,0.312286376953125,-0.7506103515625,0.0,-0.18310546875,-0.1220703125,0.4437255859375,-0.8009033203125,0.3961181640625,-293.0,151.0,-151.0,101701.0,-3.13100004196167,0,0
1.2962644999934128,0.368804931640625,-0.4505615234375,0.312286376953125,-0.7506103515625,0.06103515625,-0.1220703125,0.0,0.4456787109375,-0.80126953125,0.3958740234375,-293.0,151.0,-151.0,101701.0,-3.130000114440918,0,0
1.2963247999869054,0.368804931640625,-0.4505615234375,0.312286376953125,-0.7506103515625,0.1220703125,-0.3662109375,0.1220703125,0.445556640625,-0.800537109375,0.39794921875,-292.0,152.0,-150.0,101701.0,-3.130000114440918,0,0
1.3560004999890225,0.368804931640625,-0.4505615234375,0.312286376953125,-0.7506103515625,-0.18310546875,-0.06103515625,-0.1220703125,0.4462890625,-0.8013916015625,0.3970947265625,-292.0,152.0,-150.0,101701.0,-3.130000114440918,0,0
1.3560742999979993,0.3687744140625,-0.4505615234375,0.312286376953125,-0.7506103515625,0.1220703125,0.0,0.0,0.44580078125,-0.8013916015625,0.39794921875,-292.0,152.0,-150.0,101701.0,-3.130000114440918,0,0
1.3561359999876004,0.3687744140625,-0.4505615234375,0.312286376953125,-0.7506103515625,0.0,-0.06103515625,0.1220703125,0.4459228515625,-0.7994384765625,0.3974609375,-292.0,152.0,-150.0,101701.0,-3.130000114440918,0,0
1.356195000000298,0.368804931640625,-0.4505615234375,0.312286376953125,-0.7506103515625,0.06103515625,-0.1220703125,-0.06103515625,0.4456787109375,-0.8011474609375,0.3990478515625,-292.0,152.0,-150.0,101701.0,-3.130000114440918,0,0
1.3562536999961594,0.3687744140625,-0.4505615234375,0.312286376953125,-0.7506103515625,-0.18310546875,-0.1220703125,0.06103515625,0.447021484375,-0.800537109375,0.3978271484375,-292.0,152.0,-150.0,101701.0,-3.130000114440918,0,0
1.35669479999342,0.3687744140625,-0.450592041015625,0.312286376953125,-0.750579833984375,0.0,-0.06103515625,-0.18310546875,0.4447021484375,-0.8016357421875,0.3963623046875,-292.0,152.0,-150.0,101701.0,-3.130000114440918,0,0
1.3567536999908043,0.3687744140625,-0.450592041015625,0.312286376953125,-0.750579833984375,0.1220703125,-0.18310546875,-0.1220703125,0.4462890625,-0.8011474609375,0.3980712890625,-292.0,152.0,-150.0,101701.0,-3.130000114440918,0,0
1.3568116999958875,0.3687744140625,-0.450592041015625,0.31231689453125,-0.750579833984375,-0.1220703125,-0.18310546875,0.0,0.446044921875,-0.802734375,0.398681640625,-292.0,152.0,-150.0,101701.0,-3.130000114440918,0,0
1.356869099996402,0.3687744140625,-0.450592041015625,0.31231689453125,-0.750579833984375,0.18310546875,-0.18310546875,0.18310546875,0.445556640625,-0.8006591796875,0.396240234375,-292.0,152.0,-150.0,101701.0,-3.130000114440918,0,0
1.356923999992432,0.3687744140625,-0.450592041015625,0.31231689453125,-0.750579833984375,0.18310546875,-0.244140625,-0.1220703125,0.4454345703125,-0.8009033203125,0.398193359375,-292.0,152.0,-150.0,101701.0,-3.130000114440918,0,0
1.3569806999876164,0.3687744140625,-0.450592041015625,0.31231689453125,-0.750579833984375,0.18310546875,-0.244140625,-0.1220703125,0.4454345703125,-0.8009033203125,0.398193359375,-292.0,152.0,-150.0,101701.0,-3.130000114440918,0,0
1.416437899999437,0.3687744140625,-0.45062255859375,0.31231689453125,-0.750579833984375,0.18310546875,-0.42724609375,-0.18310546875,0.44677734375,-0.800537109375,0.3951416015625,-292.0,152.0,-150.0,101701.0,-3.130000114440918,0,0
1.416498299993691,0.3687744140625,-0.45062255859375,0.31231689453125,-0.750579833984375,0.06103515625,-0.06103515625,0.0,0.44580078125,-0.802001953125,0.3968505859375,-292.0,152.0,-150.0,101701.0,-3.130000114440918,0,0
1.4165576999948826,0.3687744140625,-0.45062255859375,0.31231689453125,-0.75054931640625,-0.1220703125,0.06103515625,0.06103515625,0.44580078125,-0.80029296875,0.3956298828125,-292.0,152.0,-150.0,101701.0,-3.130000114440918,0,0
1.4167008999938844,0.3687744140625,-0.45062255859375,0.31231689453125,-0.75054931640625,0.0,-0.18310546875,0.06103515625,0.4473876953125,-0.80078125,0.3951416015625,-292.0,152.0,-150.0,101701.0,-3.130000114440918,0,0
1.4167742999998154,0.3687744140625,-0.45062255859375,0.31231689453125,-0.75054931640625,0.0,-0.18310546875,0.06103515625,0.4473876953125,-0.80078125,0.3951416015625,-293.0,153.0,-150.0,101701.0,-3.13100004196167,0,0
1.4168484999972861,0.36895751953125,-0.45074462890625,0.31219482421875,-0.750457763671875,0.06103515625,0.06103515625,0.06103515625,0.4482421875,-0.80224609375,0.3968505859375,-293.0,153.0,-150.0,101701.0,-3.13100004196167,0,0
1.4169026999879861,0.36895751953125,-0.45074462890625,0.31219482421875,-0.750457763671875,0.06103515625,0.06103515625,0.06103515625,0.4482421875,-0.80224609375,0.3968505859375,-293.0,153.0,-150.0,101701.0,-3.13100004196167,0,0
1.416954899992561,0.36895751953125,-0.45074462890625,0.31219482421875,-0.750457763671875,0.244140625,0.1220703125,0.1220703125,0.446533203125,-0.8011474609375,0.39697265625,-293.0,153.0,-150.0,101701.0,-3.13100004196167,0,0
1.41700889999629,0.36895751953125,-0.45074462890625,0.312225341796875,-0.75042724609375,-0.18310546875,0.0,-0.06103515625,0.4437255859375,-0.802734375,0.3973388671875,-293.0,153.0,-150.0,101701.0,-3.13100004196167,0,0
1.4170598999917274,0.36895751953125,-0.45074462890625,0.312225341796875,-0.75042724609375,0.1220703125,-0.06103515625,0.0,0.4462890625,-0.801513671875,0.39501953125,-293.0,153.0,-150.0,101701.0,-3.13100004196167,0,0
1.4171132999908878,0.36895751953125,-0.45074462890625,0.312225341796875,-0.75042724609375,0.0,-0.18310546875,0.06103515625,0.44580078125,-0.8004150390625,0.3963623046875,-293.0,153.0,-150.0,101701.0,-3.13100004196167,0,0
1.4798253999906592,0.36895751953125,-0.45074462890625,0.312225341796875,-0.75042724609375,0.18310546875,-0.06103515625,-0.1220703125,0.4471435546875,-0.801513671875,0.39892578125,-293.0,153.0,-150.0,101701.0,-3.13100004196167,0,0
1.4798891999962507,0.36895751953125,-0.45074462890625,0.312225341796875,-0.75042724609375,-0.30517578125,-0.1220703125,-0.244140625,0.44580078125,-0.8009033203125,0.3946533203125,-293.0,153.0,-150.0,101701.0,-3.13100004196167,0,0
1.4799433999869507,0.36895751953125,-0.450775146484375,0.312225341796875,-0.75042724609375,0.18310546875,-0.3662109375,-0.3662109375,0.44482421875,-0.800537109375,0.3975830078125,-293.0,153.0,-150.0,101701.0,-3.13100004196167,0,0
1.4801526999945054,0.36895751953125,-0.450775146484375,0.312225341796875,-0.75042724609375,-0.06103515625,-0.1220703125,-0.1220703125,0.4466552734375,-0.8028564453125,0.396484375,-293.0,153.0,-150.0,101701.0,-3.13100004196167,0,0
1.4802774999989197,0.36895751953125,-0.450775146484375,0.312255859375,-0.75042724609375,0.0,-0.1220703125,-0.06103515625,0.446533203125,-0.8023681640625,0.396240234375,-293.0,153.0,-150.0,101701.0,-3.13100004196167,0,0
1.4803410999884363,0.36895751953125,-0.450775146484375,0.312255859375,-0.75042724609375,0.0,-0.1220703125,-0.06103515625,0.446533203125,-0.8023681640625,0.396240234375,-293.0,153.0,-150.0,101701.0,-3.13100004196167,0,0
1.4803987999912351,0.36895751953125,-0.450775146484375,0.312255859375,-0.750396728515625,-0.06103515625,-0.1220703125,-0.244140625,0.445068359375,-0.8013916015625,0.396240234375,-293.0,153.0,-150.0,101701.0,-3.13100004196167,0,0
1.480511599991587,0.36895751953125,-0.450775146484375,0.312255859375,-0.750396728515625,-0.06103515625,0.0,0.0,0.4451904296875,-0.8004150390625,0.396240234375,-293.0,153.0,-150.0,101701.0,-3.13100004196167,0,0
1.4805775999993784,0.36895751953125,-0.450775146484375,0.312255859375,-0.750396728515625,0.06103515625,-0.244140625,-0.1220703125,0.4464111328125,-0.7991943359375,0.39697265625,-293.0,153.0,-150.0,101701.0,-3.13100004196167,0,0
1.4806318999908399,0.36895751953125,-0.450775146484375,0.312255859375,-0.750396728515625,-0.244140625,0.0,0.1220703125,0.448974609375,-0.8017578125,0.3970947265625,-293.0,153.0,-150.0,101701.0,-3.13100004196167,0,0
1.4806833999900846,0.36895751953125,-0.4508056640625,0.312255859375,-0.750396728515625,0.06103515625,-0.18310546875,-0.18310546875,0.4473876953125,-0.8016357421875,0.3961181640625,-293.0,153.0,-150.0,101701.0,-3.13100004196167,0,0
1.480736599987722,0.368927001953125,-0.4508056640625,0.312255859375,-0.750396728515625,0.1220703125,-0.1220703125,-0.1220703125,0.4500732421875,-0.8013916015625,0.39599609375,-293.0,153.0,-150.0,101701.0,-3.13100004196167,0,0
1.4807891999953426,0.368927001953125,-0.4508056640625,0.312255859375,-0.750396728515625,0.06103515625,0.0,0.0,0.445556640625,-0.7994384765625,0.3980712890625,-293.0,153.0,-150.0,101701.0,-3.13100004196167,0,0
1.5505876999959582,0.369140625,-0.450897216796875,0.3121337890625,-0.75030517578125,0.30517578125,-0.06103515625,0.1220703125,0.4468994140625,-0.80078125,0.3975830078125,-294.0,153.0,-150.0,101701.0,-3.130000114440918,0,0
1.5506634999910602,0.369140625,-0.450897216796875,0.3121337890625,-0.75030517578125,-0.1220703125,-0.30517578125,0.0,0.44677734375,-0.801025390625,0.3974609375,-294.0,153.0,-150.0,101701.0,-3.130000114440918,0,0
1.5507486999995308,0.369140625,-0.450897216796875,0.3121337890625,-0.750274658203125,-0.244140625,-0.244140625,-0.06103515625,0.4464111328125,-0.8028564453125,0.3968505859375,-294.0,153.0,-150.0,101701.0,-3.130000114440918,0,0
1.5508244999946328,0.369140625,-0.450897216796875,0.3121337890625,-0.750274658203125,0.244140625,-0.18310546875,0.0,0.444580078125,-0.801513671875,0.398193359375,-294.0,153.0,-150.0,101701.0,-3.130000114440918,0,0
1.550886699988041,0.369140625,-0.450897216796875,0.312164306640625,-0.750274658203125,0.1220703125,0.06103515625,-0.06103515625,0.4449462890625,-0.800537109375,0.396240234375,-294.0,153.0,-150.0,101701.0,-3.130000114440918,0,0
1.554347899989807,0.369140625,-0.450897216796875,0.312164306640625,-0.750274658203125,-0.06103515625,0.06103515625,0.06103515625,0.44580078125,-0.8011474609375,0.3990478515625,-294.0,153.0,-150.0,101701.0,-3.130000114440918,0,0
1.5544119999976829,0.369140625,-0.450897216796875,0.312164306640625,-0.750274658203125,0.18310546875,0.0,0.0,0.44482421875,-0.802001953125,0.3970947265625,-294.0,153.0,-150.0,101701.0,-3.130000114440918,0,0
1.5544692999974359,0.369140625,-0.450897216796875,0.312164306640625,-0.750274658203125,0.18310546875,0.06103515625,-0.30517578125,0.446533203125,-0.7999267578125,0.39892578125,-294.0,153.0,-150.0,101701.0,-3.130000114440918,0,0
1.5545251999865286,0.369140625,-0.450897216796875,0.312164306640625,-0.750274658203125,0.1220703125,-0.06103515625,0.06103515625,0.4476318359375,-0.8009033203125,0.396484375,-294.0,153.0,-150.0,101701.0,-3.130000114440918,0,0
1.554584799989243,0.369140625,-0.450897216796875,0.312164306640625,-0.750274658203125,0.1220703125,-0.06103515625,0.06103515625,0.4476318359375,-0.8009033203125,0.396484375,-294.0,153.0,-150.0,101701.0,-3.130000114440918,0,0
1.5546406999928877,0.369140625,-0.450897216796875,0.312164306640625,-0.750274658203125,0.0,-0.1220703125,0.0,0.4464111328125,-0.80322265625,0.3980712890625,-294.0,153.0,-150.0,101701.0,-3.130000114440918,0,0
1.6118785999860847,0.369140625,-0.450927734375,0.312164306640625,-0.750274658203125,0.1220703125,-0.1220703125,-0.1220703125,0.4466552734375,-0.80126953125,0.398193359375,-294.0,153.0,-150.0,101701.0,-3.130000114440918,0,0
1.6119450999976834,0.369140625,-0.450927734375,0.312164306640625,-0.750274658203125,0.18310546875,0.0,-0.244140625,0.4459228515625,-0.8018798828125,0.396728515625,-294.0,153.0,-150.0,101701.0,-3.130000114440918,0,0
1.6120032999897376,0.369140625,-0.450927734375,0.312164306640625,-0.750274658203125,0.1220703125,-0.06103515625,0.0,0.447265625,-0.80029296875,0.398193359375,-294.0,153.0,-150.0,101701.0,-3.130000114440918,0,0
1.6120598999987124,0.369140625,-0.450927734375,0.312164306640625,-0.750274658203125,-0.244140625,-0.244140625,0.1220703125,0.4454345703125,-0.8013916015625,0.3975830078125,-294.0,153.0,-150.0,101701.0,-3.130000114440918,0,0
1.6121193999861134,0.369140625,-0.450927734375,0.312164306640625,-0.750274658203125,-0.06103515625,-0.06103515625,-0.244140625,0.444091796875,-0.80126953125,0.3978271484375,-294.0,153.0,-150.0,101701.0,-3.130000114440918,0,0
1.6163943999999901,0.369140625,-0.450927734375,0.312164306640625,-0.750274658203125,-0.06103515625,-0.06103515625,-0.244140625,0.444091796875,-0.80126953125,0.3978271484375,-294.0,153.0,-150.0,101701.0,-3.130000114440918,0,0
1.616460699995514,0.369140625,-0.450927734375,0.312164306640625,-0.750274658203125,-0.244140625,-0.244140625,0.06103515625,0.4468994140625,-0.8013916015625,0.3984375,-294.0,153.0,-150.0,101701.0,-3.130000114440918,0,0
1.616517999995267,0.36932373046875,-0.451019287109375,0.312042236328125,-0.75018310546875,0.0,-0.06103515625,0.1220703125,0.444580078125,-0.8017578125,0.3973388671875,-294.0,153.0,-150.0,101701.0,-3.130000114440918,0,0
1.6165753999957815,0.36932373046875,-0.451019287109375,0.312042236328125,-0.75018310546875,0.244140625,0.06103515625,-0.06103515625,0.4451904296875,-0.798828125,0.3984375,-294.0,153.0,-150.0,101701.0,-3.130000114440918,0,0
1.6166330999985803,0.369354248046875,-0.45098876953125,0.312042236328125,-0.75018310546875,-0.06103515625,-0.06103515625,-0.06103515625,0.4447021484375,-0.7984619140625,0.3974609375,-294.0,153.0,-150.0,101701.0,-3.130000114440918,0,0
1.6166886999999406,0.369354248046875,-0.45098876953125,0.312042236328125,-0.75018310546875,-0.06103515625,-0.06103515625,0.0,0.4462890625,-0.801513671875,0.3997802734375,-294.0,153.0,-150.0,101701.0,-3.130000114440918,0,0
1.6746225999959279,0.369354248046875,-0.45098876953125,0.312042236328125,-0.75018310546875,0.06103515625,0.06103515625,0.06103515625,0.444091796875,-0.8011474609375,0.398681640625,-294.0,153.0,-150.0,101701.0,-3.130000114440918,0,0
1.6747000999894226,0.369354248046875,-0.45098876953125,0.312042236328125,-0.75018310546875,0.0,0.0,0.0,0.447021484375,-0.800537109375,0.3973388671875,-294.0,153.0,-150.0,101701.0,-3.130000114440918,0,0
1.674761899994337,0.369354248046875,-0.45098876953125,0.312042236328125,-0.75018310546875,0.0,-0.3662109375,0.06103515625,0.445556640625,-0.7996826171875,0.3984375,-294.0,153.0,-150.0,101701.0,-3.130000114440918,0,0
1.6748195999971358,0.369354248046875,-0.45098876953125,0.312042236328125,-0.75018310546875,0.0,-0.06103515625,-0.3662109375,0.447021484375,-0.800537109375,0.398681640625,-294.0,153.0,-150.0,101701.0,-3.130000114440918,0,0
1.6748760999907972,0.369354248046875,-0.45098876953125,0.312042236328125,-0.75018310546875,0.0,-0.06103515625,-0.3662109375,0.447021484375,-0.800537109375,0.398681640625,-294.0,153.0,-150.0,101701.0,-3.130000114440918,0,0
1.674933099988266,0.369354248046875,-0.45098876953125,0.312042236328125,-0.75018310546875,0.06103515625,0.1220703125,-0.1220703125,0.443115234375,-0.80126953125,0.395751953125,-294.0,153.0,-150.0,101701.0,-3.130000114440918,0,0
1.6749907999910647,0.369354248046875,-0.45098876953125,0.312042236328125,-0.75018310546875,0.30517578125,-0.06103515625,-0.244140625,0.4425048828125,-0.79931640625,0.3974609375,-294.0,153.0,-150.0,101701.0,-3.130000114440918,0,0
1.6751930999889737,0.369354248046875,-0.45098876953125,0.312042236328125,-0.75018310546875,0.18310546875,-0.1220703125,-0.1220703125,0.447509765625,-0.7998046875,0.3975830078125,-294.0,153.0,-150.0,101701.0,-3.130000114440918,0,0
1.6752513999963412,0.36932373046875,-0.451019287109375,0.312042236328125,-0.75018310546875,-0.06103515625,-0.1220703125,-0.18310546875,0.44580078125,-0.7999267578125,0.3992919921875,-294.0,153.0,-150.0,101701.0,-3.130000114440918,0,0
1.6753095999883953,0.36932373046875,-0.451019287109375,0.312042236328125,-0.75018310546875,0.06103515625,-0.06103515625,0.0,0.4459228515625,-0.8009033203125,0.3983154296875,-294.0,153.0,-150.0,101701.0,-3.130000114440918,0,0
1.6753671999904327,0.369354248046875,-0.451019287109375,0.312042236328125,-0.750152587890625,0.30517578125,-0.1220703125,0.1220703125,0.445068359375,-0.8017578125,0.3955078125,-294.0,153.0,-150.0,101701.0,-3.130000114440918,0,0
1.6754246999917086,0.36932373046875,-0.451019287109375,0.312042236328125,-0.75018310546875,0.06103515625,-0.18310546875,-0.1220703125,0.4453125,-0.804443359375,0.3975830078125,-294.0,153.0,-150.0,101701.0,-3.130000114440918,0,0
1.6754812999861315,0.36932373046875,-0.451019287109375,0.312042236328125,-0.75018310546875,-0.06103515625,-0.244140625,0.0,0.44921875,-0.8023681640625,0.3994140625,-294.0,153.0,-150.0,101701.0,-3.130000114440918,0,0
1.7395248999964679,0.36932373046875,-0.451019287109375,0.312042236328125,-0.750152587890625,0.1220703125,0.06103515625,0.1220703125,0.443115234375,-0.8023681640625,0.3975830078125,-294.0,153.0,-150.0,101701.0,-3.130000114440918,0,0
1.7395891999913147,0.36932373046875,-0.451019287109375,0.312042236328125,-0.750152587890625,0.1220703125,-0.06103515625,0.06103515625,0.446044921875,-0.7994384765625,0.3983154296875,-294.0,151.0,-149.0,101701.0,-3.130000114440918,0,0
1.7396481999894604,0.369537353515625,-0.45111083984375,0.311920166015625,-0.75006103515625,0.1220703125,-0.18310546875,-0.18310546875,0.446044921875,-0.80078125,0.3975830078125,-294.0,151.0,-149.0,101701.0,-3.130000114440918,0,0
1.7397290999942925,0.369537353515625,-0.45111083984375,0.311920166015625,-0.75006103515625,0.06103515625,-0.1220703125,0.06103515625,0.4468994140625,-0.8009033203125,0.3974609375,-294.0,151.0,-149.0,101701.0,-3.130000114440918,0,0
1.740374899993185,0.369537353515625,-0.45111083984375,0.311920166015625,-0.75006103515625,-0.1220703125,-0.244140625,-0.18310546875,0.4462890625,-0.800048828125,0.3975830078125,-294.0,151.0,-149.0,101701.0,-3.130000114440918,0,0
1.7425265999918338,0.369537353515625,-0.45111083984375,0.311920166015625,-0.75006103515625,0.06103515625,0.0,-0.06103515625,0.445556640625,-0.802001953125,0.39794921875,-294.0,151.0,-149.0,101701.0,-3.130000114440918,0,0
1.7425894999905722,0.369537353515625,-0.45111083984375,0.311920166015625,-0.75006103515625,-0.30517578125,0.1220703125,0.1220703125,0.4443359375,-0.80078125,0.39892578125,-294.0,151.0,-149.0,101701.0,-3.130000114440918,0,0
1.7426498999993782,0.369537353515625,-0.45111083984375,0.311920166015625,-0.75006103515625,0.1220703125,-0.06103515625,0.0,0.4461669921875,-0.802001953125,0.3974609375,-294.0,151.0,-149.0,101701.0,-3.130000114440918,0,0
1.742707999990671,0.369537353515625,-0.45111083984375,0.311920166015625,-0.75006103515625,0.1220703125,-0.06103515625,0.0,0.4461669921875,-0.802001953125,0.3974609375,-294.0,151.0,-149.0,101701.0,-3.130000114440918,0,0
1.7427645999996457,0.369537353515625,-0.45111083984375,0.311920166015625,-0.75006103515625,0.0,-0.06103515625,-0.1220703125,0.44677734375,-0.801513671875,0.398681640625,-294.0,151.0,-149.0,101701.0,-3.130000114440918,0,0
1.7428220000001602,0.369537353515625,-0.45111083984375,0.311920166015625,-0.75006103515625,0.06103515625,-0.30517578125,-0.18310546875,0.4471435546875,-0.801025390625,0.3985595703125,-294.0,151.0,-149.0,101701.0,-3.130000114440918,0,0
1.7986658999870997,0.369537353515625,-0.45111083984375,0.311920166015625,-0.75006103515625,0.18310546875,-0.18310546875,-0.1220703125,0.4454345703125,-0.801513671875,0.3984375,-294.0,151.0,-149.0,101701.0,-3.130000114440918,0,0
1.7987392999930307,0.369537353515625,-0.45111083984375,0.311920166015625,-0.75006103515625,-0.1220703125,-0.06103515625,-0.18310546875,0.4456787109375,-0.8017578125,0.398681640625,-294.0,151.0,-149.0,101701.0,-3.130000114440918,0,0
1.7987991999980295,0.369537353515625,-0.45111083984375,0.311920166015625,-0.75006103515625,0.244140625,0.0,0.244140625,0.447265625,-0.8017578125,0.395751953125,-294.0,151.0,-149.0,101701.0,-3.130000114440918,0,0
1.7988551999878837,0.369537353515625,-0.45111083984375,0.311920166015625,-0.75006103515625,0.244140625,0.0,0.244140625,0.447265625,-0.8017578125,0.395751953125,-294.0,151.0,-149.0,101701.0,-3.130000114440918,0,0
1.7989123999868752,0.369537353515625,-0.45111083984375,0.311920166015625,-0.75006103515625,0.244140625,0.0,0.244140625,0.447265625,-0.8017578125,0.395751953125,-294.0,151.0,-149.0,101701.0,-3.130000114440918,0,0
1.79920479998691,0.3695068359375,-0.451141357421875,0.311920166015625,-0.75006103515625,0.30517578125,0.3662109375,0.18310546875,0.446533203125,-0.8018798828125,0.39892578125,-294.0,151.0,-149.0,101701.0,-3.130000114440918,0,0
1.7992596999974921,0.3695068359375,-0.451141357421875,0.311920166015625,-0.75006103515625,-0.1220703125,0.0,0.244140625,0.4476318359375,-0.801025390625,0.3988037109375,-294.0,151.0,-149.0,101701.0,-3.130000114440918,0,0
1.7993166999949608,0.3695068359375,-0.451141357421875,0.311920166015625,-0.75006103515625,-0.06103515625,-0.1220703125,0.18310546875,0.4462890625,-0.8023681640625,0.3975830078125,-294.0,151.0,-149.0,101701.0,-3.130000114440918,0,0
1.7993728999863379,0.369537353515625,-0.451141357421875,0.311920166015625,-0.75006103515625,-0.06103515625,-0.1220703125,0.18310546875,0.4462890625,-0.8023681640625,0.3975830078125,-294.0,151.0,-149.0,101701.0,-3.13100004196167,0,0
1.799428699989221,0.36962890625,-0.451171875,0.311859130859375,-0.75,0.1220703125,-0.06103515625,0.1220703125,0.4443359375,-0.8031005859375,0.399169921875,-294.0,151.0,-149.0,101701.0,-3.13100004196167,0,0
1.7994844999921042,0.36962890625,-0.451171875,0.311859130859375,-0.75,0.30517578125,-0.18310546875,-0.30517578125,0.444091796875,-0.801025390625,0.3973388671875,-294.0,151.0,-149.0,101701.0,-3.13100004196167,0,0
1.8632542999985162,0.36962890625,-0.451171875,0.311859130859375,-0.75,0.18310546875,-0.06103515625,-0.54931640625,0.4456787109375,-0.800048828125,0.3973388671875,-294.0,151.0,-149.0,101701.0,-3.13100004196167,0,0
1.8633219999901485,0.36962890625,-0.451171875,0.311859130859375,-0.75,-0.244140625,-0.06103515625,-0.3662109375,0.446533203125,-0.8009033203125,0.398681640625,-294.0,151.0,-149.0,101701.0,-3.13100004196167,0,0
1.8633803999982774,0.36962890625,-0.451171875,0.311859130859375,-0.75,0.1220703125,-0.06103515625,-0.3662109375,0.446533203125,-0.800537109375,0.398681640625,-294.0,151.0,-149.0,101701.0,-3.13100004196167,0,0
1.8634401999879628,0.36962890625,-0.451171875,0.311859130859375,-0.75,0.1220703125,-0.06103515625,-0.3662109375,0.446533203125,-0.800537109375,0.398681640625,-294.0,151.0,-149.0,101701.0,-3.13100004196167,0,0
1.863496899997699,0.36962890625,-0.451171875,0.311859130859375,-0.75,-0.06103515625,-0.18310546875,-0.244140625,0.4468994140625,-0.7984619140625,0.3978271484375,-294.0,151.0,-149.0,101701.0,-3.13100004196167,0,0
1.8635544999997364,0.36962890625,-0.451171875,0.311859130859375,-0.75,-0.1220703125,-0.1220703125,-0.18310546875,0.4483642578125,-0.8004150390625,0.399658203125,-294.0,151.0,-149.0,101701.0,-3.13100004196167,0,0
1.863610599990352,0.36962890625,-0.451171875,0.311859130859375,-0.75,0.18310546875,0.06103515625,0.1220703125,0.4468994140625,-0.802001953125,0.3970947265625,-294.0,151.0,-149.0,101701.0,-3.13100004196167,0,0
1.8643883999902755,0.36962890625,-0.451171875,0.311859130859375,-0.75,-0.18310546875,0.0,0.0,0.44580078125,-0.8001708984375,0.39794921875,-294.0,151.0,-149.0,101701.0,-3.13100004196167,0,0
1.8644439999916358,0.36962890625,-0.451171875,0.311859130859375,-0.75,-0.244140625,-0.06103515625,0.1220703125,0.44580078125,-0.80224609375,0.3978271484375,-294.0,151.0,-149.0,101701.0,-3.13100004196167,0,0
1.8644987999869045,0.36962890625,-0.451171875,0.311859130859375,-0.75,0.244140625,0.0,0.06103515625,0.44482421875,-0.801513671875,0.39794921875,-294.0,151.0,-149.0,101701.0,-3.13100004196167,0,0
1.8645533999952022,0.36962890625,-0.451171875,0.311859130859375,-0.75,0.06103515625,-0.06103515625,0.0,0.447021484375,-0.8006591796875,0.39697265625,-294.0,151.0,-149.0,101701.0,-3.13100004196167,0,0
1.8646091999980854,0.36962890625,-0.451171875,0.311859130859375,-0.75,-0.1220703125,0.06103515625,0.1220703125,0.44775390625,-0.7989501953125,0.398681640625,-294.0,151.0,-149.0,101701.0,-3.13100004196167,0,0
1.8646645999979228,0.36962890625,-0.451171875,0.311859130859375,-0.75,-0.1220703125,0.06103515625,0.1220703125,0.44775390625,-0.7989501953125,0.398681640625,-294.0,151.0,-149.0,101701.0,-3.13100004196167,0,0
1.9305556999897817,0.36962890625,-0.451171875,0.311859130859375,-0.75,0.06103515625,0.0,-0.3662109375,0.4462890625,-0.802001953125,0.3974609375,-294.0,151.0,-149.0,101701.0,-3.13100004196167,0,0
1.93062959999952,0.36962890625,-0.451171875,0.311859130859375,-0.75,0.0,-0.1220703125,-0.1220703125,0.4462890625,-0.801513671875,0.397216796875,-294.0,151.0,-149.0,101701.0,-3.13100004196167,0,0
1.9306877999915741,0.36962890625,-0.451171875,0.311859130859375,-0.75,-0.1220703125,-0.244140625,0.0,0.4466552734375,-0.79833984375,0.396240234375,-294.0,151.0,-149.0,101701.0,-3.129000186920166,0,0
1.9307440999982646,0.36962890625,-0.451202392578125,0.311859130859375,-0.75,-0.06103515625,-0.18310546875,-0.18310546875,0.446533203125,-0.79931640625,0.3966064453125,-294.0,151.0,-149.0,101701.0,-3.129000186920166,0,0
1.9308024999918416,0.36981201171875,-0.4512939453125,0.311737060546875,-0.749908447265625,-0.18310546875,-0.244140625,0.18310546875,0.44775390625,-0.8006591796875,0.397216796875,-294.0,151.0,-149.0,101701.0,-3.129000186920166,0,0
1.933233299991116,0.36981201171875,-0.4512939453125,0.311737060546875,-0.749908447265625,-0.06103515625,0.0,0.06103515625,0.4471435546875,-0.8004150390625,0.3961181640625,-294.0,151.0,-149.0,101701.0,-3.129000186920166,0,0
1.9332985999935772,0.36981201171875,-0.4512939453125,0.311737060546875,-0.7498779296875,0.06103515625,0.06103515625,0.244140625,0.4466552734375,-0.801025390625,0.397216796875,-294.0,151.0,-149.0,101701.0,-3.129000186920166,0,0
1.9333566999994218,0.36981201171875,-0.4512939453125,0.311737060546875,-0.7498779296875,0.06103515625,0.06103515625,0.244140625,0.4466552734375,-0.801025390625,0.397216796875,-294.0,151.0,-149.0,101701.0,-3.129000186920166,0,0
1.9334138999984134,0.36981201171875,-0.4512939453125,0.311737060546875,-0.7498779296875,0.18310546875,0.1220703125,0.06103515625,0.4443359375,-0.8018798828125,0.3994140625,-294.0,151.0,-149.0,101701.0,-3.129000186920166,0,0
1.9334703999920748,0.36981201171875,-0.4512939453125,0.311767578125,-0.7498779296875,0.0,-0.06103515625,-0.06103515625,0.445068359375,-0.80078125,0.3968505859375,-294.0,151.0,-149.0,101701.0,-3.129000186920166,0,0
1.9335262999957195,0.36981201171875,-0.4512939453125,0.311767578125,-0.7498779296875,0.06103515625,-0.18310546875,-0.244140625,0.4443359375,-0.8009033203125,0.3975830078125,-294.0,151.0,-149.0,101701.0,-3.129000186920166,0,0
1.989208899991354,0.36981201171875,-0.4512939453125,0.311767578125,-0.7498779296875,0.06103515625,-0.1220703125,-0.18310546875,0.4447021484375,-0.8011474609375,0.399658203125,-294.0,151.0,-149.0,101701.0,-3.129000186920166,0,0
1.9892765999975381,0.36981201171875,-0.4512939453125,0.311767578125,-0.7498779296875,0.30517578125,-0.18310546875,-0.06103515625,0.4453125,-0.801025390625,0.3975830078125,-294.0,151.0,-149.0,101701.0,-3.129000186920166,0,0
1.989335199992638,0.36981201171875,-0.4512939453125,0.311767578125,-0.7498779296875,-0.1220703125,-0.06103515625,-0.1220703125,0.445556640625,-0.80078125,0.3955078125,-294.0,151.0,-149.0,101701.0,-3.129000186920166,0,0
1.9893923999916296,0.36981201171875,-0.4512939453125,0.311767578125,-0.7498779296875,-0.1220703125,-0.06103515625,-0.1220703125,0.445556640625,-0.80078125,0.3955078125,-294.0,151.0,-149.0,101701.0,-3.129000186920166,0,0
1.9894494999898598,0.36981201171875,-0.4512939453125,0.311767578125,-0.7498779296875,-0.30517578125,-0.18310546875,0.06103515625,0.445556640625,-0.8017578125,0.3975830078125,-294.0,151.0,-149.0,101701.0,-3.129000186920166,0,0
1.989752999987104,0.36981201171875,-0.4512939453125,0.311767578125,-0.7498779296875,-0.1220703125,0.06103515625,-0.1220703125,0.4432373046875,-0.8017578125,0.39599609375,-294.0,151.0,-149.0,101701.0,-3.129000186920166,0,0
1.9898189999948954,0.36981201171875,-0.4512939453125,0.311767578125,-0.7498779296875,0.1220703125,-0.06103515625,0.0,0.447021484375,-0.80224609375,0.3975830078125,-294.0,151.0,-149.0,101701.0,-3.129000186920166,0,0
1.9898784999968484,0.36981201171875,-0.4512939453125,0.311767578125,-0.7498779296875,0.18310546875,-0.1220703125,0.06103515625,0.44580078125,-0.80224609375,0.395751953125,-294.0,151.0,-149.0,101701.0,-3.129000186920166,0,0
1.989935499994317,0.36981201171875,-0.4512939453125,0.311767578125,-0.7498779296875,0.48828125,0.244140625,0.1220703125,0.4453125,-0.7994384765625,0.3955078125,-294.0,151.0,-149.0,101701.0,-3.129000186920166,0,0
1.9899926999933086,0.36981201171875,-0.4512939453125,0.311767578125,-0.7498779296875,-0.06103515625,-0.1220703125,-0.06103515625,0.4449462890625,-0.7999267578125,0.39794921875,-294.0,151.0,-149.0,101701.0,-3.129000186920166,0,0
1.9900497999915387,0.36981201171875,-0.4512939453125,0.311798095703125,-0.7498779296875,-0.06103515625,-0.1220703125,-0.06103515625,0.4449462890625,-0.7999267578125,0.39794921875,-294.0,151.0,-148.0,101701.0,-3.128000259399414,0,0
2.054440499996417,0.3701171875,-0.451416015625,0.31158447265625,-0.749725341796875,0.06103515625,-0.1220703125,-0.06103515625,0.4423828125,-0.800048828125,0.397216796875,-294.0,151.0,-148.0,101701.0,-3.128000259399414,0,0
2.0545033999951556,0.3701171875,-0.451446533203125,0.31158447265625,-0.749725341796875,0.0,0.06103515625,-0.244140625,0.4459228515625,-0.800537109375,0.39599609375,-294.0,151.0,-148.0,101701.0,-3.128000259399414,0,0
2.054558799994993,0.3701171875,-0.451446533203125,0.31158447265625,-0.749725341796875,0.0,0.06103515625,-0.244140625,0.4459228515625,-0.800537109375,0.39599609375,-294.0,151.0,-148.0,101701.0,-3.128000259399414,0,0
2.0546117999911075,0.3701171875,-0.451446533203125,0.31158447265625,-0.749725341796875,0.18310546875,-0.18310546875,-0.18310546875,0.4456787109375,-0.799072265625,0.396240234375,-294.0,151.0,-148.0,101701.0,-3.128000259399414,0,0
2.054665199990268,0.3701171875,-0.451446533203125,0.31158447265625,-0.749725341796875,0.06103515625,0.06103515625,0.0,0.4456787109375,-0.8011474609375,0.3975830078125,-294.0,151.0,-148.0,101701.0,-3.128000259399414,0,0
2.054718799990951,0.3701171875,-0.451446533203125,0.31158447265625,-0.749725341796875,0.18310546875,0.06103515625,0.06103515625,0.4462890625,-0.7999267578125,0.3978271484375,-294.0,151.0,-148.0,101701.0,-3.128000259399414,0,0
2.0547717999870656,0.3701171875,-0.451446533203125,0.31158447265625,-0.749725341796875,0.18310546875,-0.06103515625,-0.1220703125,0.444580078125,-0.8004150390625,0.39794921875,-294.0,151.0,-148.0,101701.0,-3.128000259399414,0,0
2.054879199989955,0.3701171875,-0.451446533203125,0.31158447265625,-0.749725341796875,0.30517578125,0.0,0.06103515625,0.4478759765625,-0.799560546875,0.39697265625,-294.0,151.0,-148.0,101701.0,-3.128000259399414,0,0
2.054937599998084,0.3701171875,-0.451446533203125,0.31158447265625,-0.749725341796875,-0.244140625,-0.06103515625,0.0,0.4464111328125,-0.8009033203125,0.397216796875,-294.0,151.0,-148.0,101701.0,-3.128000259399414,0,0
2.0549896999873454,0.3701171875,-0.451446533203125,0.31158447265625,-0.749725341796875,-0.244140625,-0.06103515625,0.0,0.4464111328125,-0.8009033203125,0.397216796875,-294.0,151.0,-148.0,101701.0,-3.128000259399414,0,0
2.0550419999926817,0.3701171875,-0.451446533203125,0.31158447265625,-0.749725341796875,-0.244140625,-0.244140625,0.06103515625,0.4481201171875,-0.8017578125,0.39599609375,-294.0,151.0,-148.0,101701.0,-3.128000259399414,0,0
2.0550967999879504,0.3701171875,-0.451446533203125,0.31158447265625,-0.749725341796875,-0.244140625,-0.244140625,0.06103515625,0.4481201171875,-0.8017578125,0.39599609375,-294.0,151.0,-148.0,101701.0,-3.128000259399414,0,0
2.0551514999970095,0.3701171875,-0.451446533203125,0.31158447265625,-0.74969482421875,-0.06103515625,-0.06103515625,-0.06103515625,0.4482421875,-0.802001953125,0.39697265625,-294.0,151.0,-148.0,101701.0,-3.128000259399414,0,0
2.125489399986691,0.3701171875,-0.451446533203125,0.311614990234375,-0.74969482421875,0.1220703125,-0.1220703125,0.0,0.442626953125,-0.8009033203125,0.3958740234375,-294.0,151.0,-148.0,101701.0,-3.128000259399414,0,0
2.125558599989745,0.370086669921875,-0.45147705078125,0.311614990234375,-0.74969482421875,-0.30517578125,0.0,-0.30517578125,0.44580078125,-0.8011474609375,0.397216796875,-294.0,151.0,-148.0,101701.0,-3.128000259399414,0,0
2.125615099997958,0.370086669921875,-0.45147705078125,0.311614990234375,-0.74969482421875,-0.06103515625,-0.1220703125,-0.1220703125,0.4481201171875,-0.80126953125,0.3968505859375,-294.0,151.0,-148.0,101701.0,-3.128000259399414,0,0
2.1256695999909425,0.370086669921875,-0.45147705078125,0.311614990234375,-0.74969482421875,0.3662109375,0.1220703125,-0.06103515625,0.445556640625,-0.800537109375,0.3951416015625,-294.0,151.0,-148.0,101701.0,-3.128000259399414,0,0
2.12572349999391,0.370086669921875,-0.45147705078125,0.311614990234375,-0.74969482421875,0.0,0.06103515625,-0.1220703125,0.445068359375,-0.80126953125,0.3953857421875,-294.0,153.0,-149.0,101701.0,-3.130000114440918,0,0
2.1257969999860507,0.370086669921875,-0.45147705078125,0.311614990234375,-0.74969482421875,0.0,0.0,-0.244140625,0.44677734375,-0.800048828125,0.396484375,-294.0,153.0,-149.0,101701.0,-3.130000114440918,0,0
2.1258504999859724,0.370086669921875,-0.45147705078125,0.311614990234375,-0.74969482421875,0.0,0.0,-0.244140625,0.44677734375,-0.800048828125,0.396484375,-294.0,153.0,-149.0,101701.0,-3.130000114440918,0,0
2.125903499996639,0.37030029296875,-0.451568603515625,0.311492919921875,-0.74957275390625,-0.244140625,0.0,0.0,0.4459228515625,-0.80078125,0.3966064453125,-294.0,153.0,-149.0,101701.0,-3.130000114440918,0,0
2.1259560999897076,0.37030029296875,-0.451568603515625,0.311492919921875,-0.74957275390625,0.1220703125,-0.06103515625,0.18310546875,0.445068359375,-0.8017578125,0.3968505859375,-294.0,153.0,-149.0,101701.0,-3.130000114440918,0,0
2.1260093999881065,0.37030029296875,-0.451568603515625,0.311492919921875,-0.74957275390625,-0.06103515625,0.0,0.18310546875,0.4468994140625,-0.801025390625,0.3956298828125,-294.0,153.0,-149.0,101701.0,-3.130000114440918,0,0
2.1260627999872668,0.37030029296875,-0.451568603515625,0.311492919921875,-0.74957275390625,0.0,-0.244140625,-0.1220703125,0.444091796875,-0.80078125,0.395751953125,-294.0,153.0,-149.0,101701.0,-3.130000114440918,0,0
2.181033299988485,0.37030029296875,-0.45159912109375,0.3115234375,-0.74957275390625,0.0,-0.06103515625,-0.1220703125,0.4481201171875,-0.8021240234375,0.39697265625,-294.0,153.0,-149.0,101701.0,-3.130000114440918,0,0
2.181100799993146,0.37030029296875,-0.45159912109375,0.3115234375,-0.74957275390625,0.30517578125,0.0,-0.244140625,0.443359375,-0.80126953125,0.3963623046875,-294.0,153.0,-149.0,101701.0,-3.130000114440918,0,0
2.1811572999868076,0.37030029296875,-0.45159912109375,0.3115234375,-0.74957275390625,0.30517578125,0.0,-0.244140625,0.443359375,-0.80126953125,0.3963623046875,-294.0,153.0,-149.0,101701.0,-3.130000114440918,0,0
2.181210699985968,0.37030029296875,-0.45159912109375,0.3115234375,-0.74957275390625,-0.18310546875,-0.18310546875,0.1220703125,0.44775390625,-0.8001708984375,0.3961181640625,-294.0,153.0,-149.0,101701.0,-3.130000114440918,0,0
2.1812638999981573,0.37030029296875,-0.45159912109375,0.3115234375,-0.749542236328125,0.18310546875,-0.1220703125,-0.06103515625,0.44580078125,-0.8011474609375,0.3951416015625,-294.0,153.0,-149.0,101701.0,-3.130000114440918,0,0
2.1816587999928743,0.37030029296875,-0.45159912109375,0.3115234375,-0.749542236328125,0.18310546875,-0.1220703125,0.244140625,0.4439697265625,-0.80126953125,0.3980712890625,-294.0,153.0,-149.0,101701.0,-3.130000114440918,0,0
2.1817203999962658,0.37030029296875,-0.45159912109375,0.3115234375,-0.749542236328125,0.18310546875,-0.244140625,-0.1220703125,0.4439697265625,-0.8016357421875,0.395751953125,-294.0,153.0,-149.0,101701.0,-3.130000114440918,0,0
2.18177269998705,0.37030029296875,-0.45159912109375,0.3115234375,-0.749542236328125,-0.1220703125,-0.18310546875,0.06103515625,0.4471435546875,-0.803955078125,0.3973388671875,-294.0,153.0,-149.0,101701.0,-3.130000114440918,0,0
2.181824699990102,0.37030029296875,-0.45159912109375,0.311553955078125,-0.749542236328125,0.0,0.0,-0.06103515625,0.4466552734375,-0.8018798828125,0.3955078125,-294.0,153.0,-149.0,101701.0,-3.130000114440918,0,0
2.1818774999992456,0.37030029296875,-0.451629638671875,0.311553955078125,-0.749542236328125,-0.06103515625,-0.1220703125,-0.06103515625,0.44677734375,-0.8016357421875,0.39599609375,-294.0,153.0,-149.0,101701.0,-3.130000114440918,0,0
2.1819292000000132,0.37030029296875,-0.451629638671875,0.311553955078125,-0.749542236328125,0.18310546875,0.0,0.0,0.4434814453125,-0.8013916015625,0.39599609375,-294.0,153.0,-149.0,101701.0,-3.130000114440918,0,0
2.1819842999975663,0.37030029296875,-0.451629638671875,0.311553955078125,-0.749542236328125,0.18310546875,0.18310546875,-0.18310546875,0.444580078125,-0.7998046875,0.3939208984375,-294.0,153.0,-149.0,101701.0,-3.130000114440918,0,0
2.248347399989143,0.37030029296875,-0.451629638671875,0.311553955078125,-0.749542236328125,0.18310546875,0.18310546875,-0.18310546875,0.444580078125,-0.7998046875,0.3939208984375,-294.0,153.0,-149.0,101701.0,-3.130000114440918,0,0
2.2484131999954116,0.370391845703125,-0.45166015625,0.311492919921875,-0.749481201171875,-0.18310546875,-0.1220703125,-0.06103515625,0.447021484375,-0.7999267578125,0.3961181640625,-292.0,152.0,-150.0,101701.0,-3.130000114440918,0,0
2.248472099992796,0.370391845703125,-0.451690673828125,0.311492919921875,-0.749481201171875,-0.1220703125,-0.18310546875,-0.1220703125,0.445556640625,-0.802490234375,0.39697265625,-292.0,152.0,-150.0,101701.0,-3.130000114440918,0,0
2.2485299999971176,0.370391845703125,-0.451690673828125,0.311492919921875,-0.749481201171875,0.06103515625,-0.06103515625,-0.06103515625,0.44482421875,-0.8001708984375,0.3966064453125,-292.0,152.0,-150.0,101701.0,-3.130000114440918,0,0
2.248586499990779,0.370391845703125,-0.451690673828125,0.311492919921875,-0.749481201171875,-0.1220703125,-0.1220703125,-0.06103515625,0.4462890625,-0.8006591796875,0.39599609375,-292.0,152.0,-150.0,101701.0,-3.130000114440918,0,0
2.248642299993662,0.370391845703125,-0.451690673828125,0.3115234375,-0.74945068359375,0.06103515625,-0.1220703125,-0.06103515625,0.4454345703125,-0.8011474609375,0.39453125,-292.0,152.0,-150.0,101701.0,-3.130000114440918,0,0
2.248922099999618,0.370391845703125,-0.451690673828125,0.3115234375,-0.74945068359375,0.244140625,-0.06103515625,0.0,0.4453125,-0.80224609375,0.3968505859375,-292.0,152.0,-150.0,101701.0,-3.130000114440918,0,0
2.248980499993195,0.370391845703125,-0.451690673828125,0.3115234375,-0.74945068359375,-0.06103515625,-0.30517578125,-0.18310546875,0.44677734375,-0.8011474609375,0.3978271484375,-292.0,152.0,-150.0,101701.0,-3.130000114440918,0,0
2.2490361999953166,0.370391845703125,-0.451690673828125,0.3115234375,-0.74945068359375,-0.48828125,-0.18310546875,-0.1220703125,0.447509765625,-0.801513671875,0.39697265625,-292.0,152.0,-150.0,101701.0,-3.130000114440918,0,0
2.249092899990501,0.370391845703125,-0.451690673828125,0.3115234375,-0.74945068359375,-0.48828125,-0.18310546875,-0.1220703125,0.447509765625,-0.801513671875,0.39697265625,-292.0,152.0,-150.0,101701.0,-3.130000114440918,0,0
2.2491491999971913,0.370391845703125,-0.451690673828125,0.3115234375,-0.74945068359375,-0.06103515625,0.0,-0.244140625,0.4425048828125,-0.8001708984375,0.3978271484375,-292.0,152.0,-150.0,101701.0,-3.130000114440918,0,0
2.2492042999947444,0.370391845703125,-0.451690673828125,0.3115234375,-0.74945068359375,-0.1220703125,-0.06103515625,0.244140625,0.4459228515625,-0.8001708984375,0.3968505859375,-292.0,152.0,-150.0,101701.0,-3.130000114440918,0,0
2.3118777999916347,0.370391845703125,-0.451690673828125,0.3115234375,-0.74945068359375,0.0,0.0,-0.06103515625,0.4454345703125,-0.80078125,0.4000244140625,-292.0,152.0,-150.0,101701.0,-3.130000114440918,0,0
2.311935799996718,0.370391845703125,-0.45166015625,0.3115234375,-0.74945068359375,0.06103515625,0.06103515625,-0.06103515625,0.4425048828125,-0.801025390625,0.3974609375,-292.0,152.0,-150.0,101701.0,-3.130000114440918,0,0
2.3119914999988396,0.370391845703125,-0.451690673828125,0.3115234375,-0.74945068359375,0.3662109375,-0.18310546875,-0.18310546875,0.447265625,-0.8013916015625,0.396240234375,-292.0,152.0,-150.0,101701.0,-3.130000114440918,0,0
2.3120452999864938,0.370391845703125,-0.451690673828125,0.3115234375,-0.74945068359375,0.06103515625,-0.06103515625,-0.06103515625,0.447509765625,-0.802978515625,0.3955078125,-292.0,152.0,-150.0,101701.0,-3.130000114440918,0,0
2.3120965999987675,0.370391845703125,-0.451690673828125,0.3115234375,-0.74945068359375,0.06103515625,-0.06103515625,-0.06103515625,0.447509765625,-0.802978515625,0.3955078125,-292.0,152.0,-150.0,101701.0,-3.130000114440918,0,0
2.312708499986911,0.370391845703125,-0.451690673828125,0.3115234375,-0.74945068359375,0.06103515625,-0.06103515625,-0.06103515625,0.447509765625,-0.802978515625,0.3955078125,-292.0,152.0,-150.0,101701.0,-3.130000114440918,0,0
2.3127678999881027,0.370391845703125,-0.451690673828125,0.311553955078125,-0.74945068359375,0.0,0.06103515625,-0.1220703125,0.4454345703125,-0.8013916015625,0.3958740234375,-293.0,152.0,-150.0,101701.0,-3.130000114440918,0,0
2.3128242999955546,0.370391845703125,-0.451690673828125,0.311553955078125,-0.74945068359375,0.0,-0.06103515625,-0.244140625,0.44384765625,-0.8006591796875,0.3970947265625,-293.0,152.0,-150.0,101701.0,-3.130000114440918,0,0
2.3128770999901462,0.3704833984375,-0.45172119140625,0.311492919921875,-0.7493896484375,0.06103515625,-0.18310546875,-0.244140625,0.4447021484375,-0.8021240234375,0.3984375,-293.0,152.0,-150.0,101701.0,-3.130000114440918,0,0
2.3129288999916753,0.3704833984375,-0.45172119140625,0.31146240234375,-0.7493896484375,0.0,-0.06103515625,-0.1220703125,0.4483642578125,-0.800048828125,0.3990478515625,-293.0,152.0,-150.0,101701.0,-3.130000114440918,0,0
2.31298109999625,0.3704833984375,-0.451751708984375,0.31146240234375,-0.7493896484375,0.18310546875,0.06103515625,-0.06103515625,0.4473876953125,-0.8017578125,0.3983154296875,-293.0,152.0,-150.0,101701.0,-3.130000114440918,0,0
2.3130333999870345,0.3704833984375,-0.451751708984375,0.31146240234375,-0.7493896484375,0.18310546875,0.06103515625,-0.06103515625,0.4468994140625,-0.800537109375,0.398193359375,-293.0,152.0,-150.0,101701.0,-3.130000114440918,0,0
2.376509599998826,0.3704833984375,-0.451751708984375,0.31146240234375,-0.7493896484375,0.06103515625,0.06103515625,0.0,0.444091796875,-0.7999267578125,0.3975830078125,-293.0,152.0,-150.0,101701.0,-3.130000114440918,0,0
2.376572399996803,0.3704833984375,-0.451751708984375,0.31146240234375,-0.7493896484375,-0.1220703125,-0.244140625,0.06103515625,0.4453125,-0.8016357421875,0.3963623046875,-293.0,152.0,-150.0,101701.0,-3.130000114440918,0,0
2.3766305999888573,0.3704833984375,-0.451751708984375,0.31146240234375,-0.7493896484375,0.18310546875,-0.18310546875,-0.18310546875,0.44580078125,-0.802001953125,0.3983154296875,-293.0,152.0,-150.0,101701.0,-3.130000114440918,0,0
2.376686699994025,0.3704833984375,-0.451751708984375,0.31146240234375,-0.7493896484375,-0.18310546875,-0.244140625,-0.18310546875,0.447021484375,-0.799072265625,0.3956298828125,-293.0,152.0,-150.0,101701.0,-3.130000114440918,0,0
2.3767537999956403,0.3704833984375,-0.451751708984375,0.31146240234375,-0.7493896484375,0.0,0.18310546875,-0.244140625,0.443115234375,-0.7996826171875,0.396240234375,-293.0,152.0,-150.0,101701.0,-3.130000114440918,0,0
2.3768079000001308,0.3704833984375,-0.451751708984375,0.31146240234375,-0.7493896484375,-0.18310546875,-0.1220703125,0.1220703125,0.4449462890625,-0.7998046875,0.399169921875,-293.0,152.0,-150.0,101701.0,-3.130000114440918,0,0
2.3768597999878693,0.3704833984375,-0.451751708984375,0.31146240234375,-0.7493896484375,-0.1220703125,-0.06103515625,-0.1220703125,0.444580078125,-0.801025390625,0.3966064453125,-293.0,152.0,-150.0,101701.0,-3.130000114440918,0,0
2.3769115999893984,0.3704833984375,-0.451751708984375,0.31146240234375,-0.7493896484375,-0.1220703125,-0.1220703125,-0.244140625,0.443603515625,-0.8004150390625,0.3983154296875,-293.0,152.0,-150.0,101701.0,-3.130000114440918,0,0
2.3769642999977805,0.3704833984375,-0.451751708984375,0.31146240234375,-0.7493896484375,0.30517578125,0.0,0.244140625,0.447021484375,-0.800537109375,0.398193359375,-293.0,152.0,-150.0,101701.0,-3.130000114440918,0,0
2.3770162999862805,0.3704833984375,-0.451751708984375,0.31146240234375,-0.7493896484375,0.30517578125,0.0,0.244140625,0.447021484375,-0.800537109375,0.398193359375,-293.0,152.0,-150.0,101701.0,-3.130000114440918,0,0
2.3770682999893324,0.3704833984375,-0.451751708984375,0.31146240234375,-0.7493896484375,-0.06103515625,0.06103515625,0.244140625,0.44677734375,-0.7987060546875,0.396484375,-293.0,152.0,-150.0,101701.0,-3.130000114440918,0,0
2.4426989999919897,0.3704833984375,-0.451751708984375,0.31146240234375,-0.7493896484375,-0.1220703125,0.18310546875,-0.1220703125,0.44677734375,-0.802734375,0.39697265625,-293.0,152.0,-150.0,101701.0,-3.130000114440918,0,0
2.442773799994029,0.3704833984375,-0.451751708984375,0.31146240234375,-0.7493896484375,0.06103515625,-0.06103515625,0.1220703125,0.4454345703125,-0.8011474609375,0.3973388671875,-293.0,152.0,-150.0,101701.0,-3.130000114440918,0,0
2.442831499996828,0.3704833984375,-0.451751708984375,0.31146240234375,-0.7493896484375,0.06103515625,-0.1220703125,0.30517578125,0.4462890625,-0.800048828125,0.397216796875,-292.0,150.0,-150.0,101701.0,-3.13100004196167,0,0
2.442886199991335,0.3704833984375,-0.451751708984375,0.31146240234375,-0.7493896484375,-0.1220703125,-0.1220703125,-0.06103515625,0.447021484375,-0.801513671875,0.3968505859375,-292.0,150.0,-150.0,101701.0,-3.13100004196167,0,0
2.442943199988804,0.3704833984375,-0.451751708984375,0.31146240234375,-0.7493896484375,0.0,0.244140625,-0.18310546875,0.4471435546875,-0.80322265625,0.3961181640625,-292.0,150.0,-150.0,101701.0,-3.13100004196167,0,0
2.442999399994733,0.3704833984375,-0.451751708984375,0.31146240234375,-0.7493896484375,-0.18310546875,-0.18310546875,0.06103515625,0.4464111328125,-0.802490234375,0.3963623046875,-292.0,150.0,-150.0,101701.0,-3.13100004196167,0,0
2.4451878999971086,0.3704833984375,-0.451751708984375,0.31146240234375,-0.7493896484375,-0.06103515625,-0.18310546875,-0.1220703125,0.4442138671875,-0.801025390625,0.396484375,-292.0,150.0,-150.0,101701.0,-3.13100004196167,0,0
2.4452497999882326,0.3704833984375,-0.451751708984375,0.31146240234375,-0.7493896484375,0.18310546875,-0.06103515625,-0.06103515625,0.4471435546875,-0.7999267578125,0.3974609375,-292.0,150.0,-150.0,101701.0,-3.13100004196167,0,0
2.4453068999864627,0.3704833984375,-0.451751708984375,0.31146240234375,-0.7493896484375,0.18310546875,-0.06103515625,-0.06103515625,0.4471435546875,-0.7999267578125,0.3974609375,-292.0,150.0,-150.0,101701.0,-3.13100004196167,0,0
2.445366899992223,0.3704833984375,-0.451751708984375,0.311492919921875,-0.7493896484375,0.1220703125,-0.06103515625,-0.06103515625,0.44482421875,-0.801025390625,0.3978271484375,-292.0,150.0,-150.0,101701.0,-3.13100004196167,0,0
2.4454234999866458,0.3704833984375,-0.451751708984375,0.311492919921875,-0.7493896484375,0.18310546875,-0.18310546875,-0.06103515625,0.4443359375,-0.7996826171875,0.3968505859375,-292.0,150.0,-150.0,101701.0,-3.13100004196167,0,0
2.445477799992659,0.3704833984375,-0.451751708984375,0.311492919921875,-0.7493896484375,0.244140625,-0.1220703125,0.06103515625,0.446533203125,-0.799560546875,0.3975830078125,-292.0,150.0,-150.0,101701.0,-3.13100004196167,0,0
2.5026040999946417,0.3704833984375,-0.4517822265625,0.311492919921875,-0.7493896484375,0.244140625,0.0,0.18310546875,0.4481201171875,-0.8033447265625,0.3970947265625,-292.0,150.0,-150.0,101701.0,-3.13100004196167,0,0
2.502665599997272,0.3704833984375,-0.4517822265625,0.311492919921875,-0.7493896484375,0.54931640625,-0.06103515625,0.18310546875,0.4443359375,-0.800537109375,0.3975830078125,-292.0,150.0,-150.0,101701.0,-3.13100004196167,0,0
2.5027190999971936,0.3704833984375,-0.4517822265625,0.311492919921875,-0.7493896484375,-0.1220703125,-0.18310546875,-0.06103515625,0.4459228515625,-0.7991943359375,0.398193359375,-292.0,150.0,-150.0,101701.0,-3.13100004196167,0,0
2.5027732999878936,0.3704833984375,-0.4517822265625,0.311492919921875,-0.7493896484375,-0.1220703125,-0.18310546875,-0.06103515625,0.4459228515625,-0.7991943359375,0.398193359375,-292.0,150.0,-150.0,101701.0,-3.13100004196167,0,0
2.5028257999947527,0.3704833984375,-0.4517822265625,0.311492919921875,-0.7493896484375,-0.06103515625,-0.1220703125,0.18310546875,0.4451904296875,-0.80224609375,0.3968505859375,-292.0,150.0,-150.0,101701.0,-3.13100004196167,0,0
2.5029014999890933,0.3704833984375,-0.4517822265625,0.311492919921875,-0.7493896484375,0.3662109375,0.06103515625,-0.1220703125,0.44580078125,-0.8021240234375,0.39697265625,-292.0,150.0,-150.0,101701.0,-3.13100004196167,0,0
2.502952399998321,0.3704833984375,-0.4517822265625,0.311492919921875,-0.7493896484375,0.06103515625,-0.244140625,-0.06103515625,0.44677734375,-0.8009033203125,0.398681640625,-292.0,150.0,-150.0,101701.0,-3.13100004196167,0,0
2.5030046999891056,0.3704833984375,-0.4517822265625,0.311492919921875,-0.7493896484375,0.06103515625,-0.06103515625,-0.06103515625,0.4471435546875,-0.80126953125,0.396240234375,-292.0,150.0,-150.0,101701.0,-3.13100004196167,0,0
2.503056599991396,0.3704833984375,-0.4517822265625,0.311492919921875,-0.7493896484375,0.06103515625,-0.06103515625,-0.06103515625,0.4471435546875,-0.80126953125,0.396240234375,-292.0,150.0,-151.0,101701.0,-3.13100004196167,0,0
2.5031104999943636,0.3704833984375,-0.4517822265625,0.311492919921875,-0.749359130859375,-0.06103515625,-0.244140625,-0.18310546875,0.4442138671875,-0.802490234375,0.397216796875,-292.0,150.0,-151.0,101701.0,-3.13100004196167,0,0
2.5031672999903094,0.370361328125,-0.451751708984375,0.311553955078125,-0.749420166015625,0.06103515625,-0.30517578125,0.0,0.4468994140625,-0.8018798828125,0.39501953125,-292.0,150.0,-151.0,101701.0,-3.13100004196167,0,0
2.5032221999863395,0.370361328125,-0.451751708984375,0.311553955078125,-0.749420166015625,0.0,0.1220703125,-0.06103515625,0.4442138671875,-0.800537109375,0.396484375,-292.0,150.0,-151.0,101701.0,-3.13100004196167,0,0
2.562400599999819,0.370361328125,-0.451751708984375,0.311553955078125,-0.749420166015625,0.06103515625,0.18310546875,-0.06103515625,0.4462890625,-0.8028564453125,0.399169921875,-292.0,150.0,-151.0,101701.0,-3.13100004196167,0,0
2.562481299988576,0.370361328125,-0.451751708984375,0.311553955078125,-0.749420166015625,-0.06103515625,-0.18310546875,0.1220703125,0.44580078125,-0.8028564453125,0.3984375,-292.0,150.0,-151.0,101701.0,-3.13100004196167,0,0
2.562538299986045,0.370361328125,-0.45172119140625,0.311553955078125,-0.749420166015625,0.244140625,0.1220703125,0.18310546875,0.446044921875,-0.8011474609375,0.3988037109375,-292.0,150.0,-151.0,101701.0,-3.13100004196167,0,0
2.5627415999915684,0.370391845703125,-0.45172119140625,0.311553955078125,-0.749420166015625,-0.18310546875,0.0,0.1220703125,0.443603515625,-0.8013916015625,0.3975830078125,-292.0,150.0,-151.0,101701.0,-3.13100004196167,0,0
2.5628180999920005,0.370391845703125,-0.45172119140625,0.311553955078125,-0.749420166015625,0.06103515625,-0.1220703125,0.1220703125,0.4456787109375,-0.8013916015625,0.3992919921875,-292.0,150.0,-151.0,101701.0,-3.130000114440918,0,0
2.565534299996216,0.370391845703125,-0.45172119140625,0.311553955078125,-0.749420166015625,0.06103515625,0.1220703125,-0.1220703125,0.445068359375,-0.8011474609375,0.398681640625,-292.0,150.0,-151.0,101701.0,-3.130000114440918,0,0
2.5656073999998625,0.370391845703125,-0.45172119140625,0.311553955078125,-0.749420166015625,-0.3662109375,-0.1220703125,0.0,0.4454345703125,-0.8013916015625,0.3975830078125,-292.0,150.0,-151.0,101701.0,-3.130000114440918,0,0
2.5657256999984384,0.370391845703125,-0.45172119140625,0.311553955078125,-0.749420166015625,0.30517578125,0.06103515625,-0.06103515625,0.4439697265625,-0.80126953125,0.397216796875,-292.0,150.0,-151.0,101701.0,-3.130000114440918,0,0
2.5657821999920998,0.370391845703125,-0.45172119140625,0.311553955078125,-0.749420166015625,0.30517578125,0.06103515625,-0.06103515625,0.4439697265625,-0.80126953125,0.397216796875,-292.0,150.0,-151.0,101701.0,-3.130000114440918,0,0
2.565886299998965,0.370391845703125,-0.45172119140625,0.311553955078125,-0.749420166015625,0.1220703125,-0.1220703125,-0.06103515625,0.4473876953125,-0.8017578125,0.3984375,-292.0,150.0,-151.0,101701.0,-3.130000114440918,0,0
2.565941999986535,0.370391845703125,-0.45172119140625,0.311553955078125,-0.749420166015625,0.1220703125,-0.18310546875,-0.1220703125,0.4451904296875,-0.7998046875,0.396728515625,-292.0,150.0,-151.0,101701.0,-3.130000114440918,0,0
2.6308251999871572,0.370391845703125,-0.45172119140625,0.311553955078125,-0.749420166015625,-0.1220703125,-0.42724609375,-0.06103515625,0.447509765625,-0.80224609375,0.3984375,-292.0,150.0,-151.0,101701.0,-3.130000114440918,0,0
2.6308921999880113,0.370391845703125,-0.45172119140625,0.311553955078125,-0.749420166015625,-0.18310546875,-0.3662109375,-0.1220703125,0.4461669921875,-0.8013916015625,0.3990478515625,-292.0,150.0,-151.0,101701.0,-3.130000114440918,0,0
2.6309504999953788,0.370391845703125,-0.45172119140625,0.311553955078125,-0.749420166015625,-0.06103515625,-0.06103515625,0.06103515625,0.448974609375,-0.800537109375,0.3995361328125,-292.0,150.0,-151.0,101701.0,-3.130000114440918,0,0
2.6310037999937776,0.370391845703125,-0.45172119140625,0.311553955078125,-0.749420166015625,0.0,-0.1220703125,-0.18310546875,0.4478759765625,-0.8011474609375,0.39697265625,-292.0,150.0,-151.0,101701.0,-3.130000114440918,0,0
2.6310561999998754,0.370391845703125,-0.45172119140625,0.311553955078125,-0.749420166015625,0.18310546875,-0.1220703125,-0.18310546875,0.446044921875,-0.801513671875,0.397216796875,-291.0,150.0,-151.0,101701.0,-3.130000114440918,0,0
2.631110099988291,0.37017822265625,-0.451629638671875,0.311676025390625,-0.749542236328125,0.0,0.3662109375,0.0,0.446533203125,-0.8013916015625,0.399169921875,-291.0,150.0,-151.0,101701.0,-3.130000114440918,0,0
2.631209499988472,0.37017822265625,-0.451629638671875,0.311676025390625,-0.749542236328125,0.18310546875,-0.06103515625,-0.06103515625,0.446044921875,-0.8018798828125,0.39697265625,-291.0,150.0,-151.0,101701.0,-3.130000114440918,0,0
2.63126189999457,0.37017822265625,-0.451629638671875,0.311676025390625,-0.749542236328125,0.18310546875,-0.06103515625,-0.06103515625,0.446044921875,-0.8018798828125,0.39697265625,-291.0,150.0,-151.0,101701.0,-3.130000114440918,0,0
2.6313140999991447,0.37017822265625,-0.451629638671875,0.311676025390625,-0.749542236328125,-0.06103515625,0.06103515625,-0.18310546875,0.444580078125,-0.7987060546875,0.3980712890625,-291.0,150.0,-151.0,101701.0,-3.130000114440918,0,0
2.6313662999891676,0.37017822265625,-0.451629638671875,0.311676025390625,-0.749542236328125,0.0,0.18310546875,-0.06103515625,0.4449462890625,-0.8013916015625,0.3983154296875,-291.0,150.0,-151.0,101701.0,-3.130000114440918,0,0
2.6314177999884123,0.37017822265625,-0.451629638671875,0.311676025390625,-0.749542236328125,0.0,0.0,-0.18310546875,0.44482421875,-0.8013916015625,0.398681640625,-291.0,150.0,-151.0,101701.0,-3.130000114440918,0,0
2.6314695999899413,0.37017822265625,-0.451629638671875,0.311676025390625,-0.749542236328125,-0.06103515625,-0.30517578125,-0.06103515625,0.4466552734375,-0.8018798828125,0.3970947265625,-291.0,150.0,-151.0,101701.0,-3.130000114440918,0,0
2.6315218999952776,0.37017822265625,-0.451629638671875,0.311676025390625,-0.749542236328125,0.06103515625,-0.244140625,0.244140625,0.446044921875,-0.802001953125,0.3975830078125,-291.0,150.0,-151.0,101701.0,-3.130000114440918,0,0
2.6943997999915155,0.37017822265625,-0.45159912109375,0.3116455078125,-0.749542236328125,0.1220703125,0.1220703125,0.0,0.4478759765625,-0.8011474609375,0.3992919921875,-291.0,150.0,-151.0,101701.0,-3.13100004196167,0,0
2.6944660999870393,0.37017822265625,-0.45159912109375,0.3116455078125,-0.749542236328125,0.1220703125,0.1220703125,0.0,0.4478759765625,-0.8011474609375,0.3992919921875,-291.0,150.0,-151.0,101701.0,-3.13100004196167,0,0
2.694521599987638,0.37017822265625,-0.45159912109375,0.3116455078125,-0.749542236328125,0.244140625,-0.06103515625,0.0,0.445068359375,-0.800048828125,0.3983154296875,-291.0,150.0,-151.0,101701.0,-3.13100004196167,0,0
2.694575299989083,0.370208740234375,-0.45159912109375,0.311676025390625,-0.749542236328125,0.1220703125,-0.1220703125,-0.06103515625,0.44384765625,-0.8016357421875,0.399169921875,-291.0,150.0,-151.0,101701.0,-3.13100004196167,0,0
2.694651999991038,0.37017822265625,-0.45159912109375,0.311676025390625,-0.749542236328125,0.1220703125,-0.1220703125,0.0,0.4466552734375,-0.8016357421875,0.3975830078125,-291.0,150.0,-151.0,101701.0,-3.13100004196167,0,0
2.694709099989268,0.370208740234375,-0.45159912109375,0.311676025390625,-0.749542236328125,0.06103515625,-0.06103515625,-0.244140625,0.4449462890625,-0.7998046875,0.3968505859375,-291.0,150.0,-151.0,101701.0,-3.13100004196167,0,0
2.69476179999765,0.37017822265625,-0.45159912109375,0.311676025390625,-0.749542236328125,0.0,-0.30517578125,-0.244140625,0.4466552734375,-0.80078125,0.3961181640625,-291.0,150.0,-151.0,101701.0,-3.13100004196167,0,0
2.6948156999860657,0.37017822265625,-0.45159912109375,0.3116455078125,-0.749542236328125,0.1220703125,-0.18310546875,-0.06103515625,0.445556640625,-0.798583984375,0.3975830078125,-291.0,150.0,-151.0,101701.0,-3.13100004196167,0,0
2.694871499988949,0.370208740234375,-0.45159912109375,0.3116455078125,-0.749542236328125,-0.06103515625,0.18310546875,-0.18310546875,0.4437255859375,-0.80078125,0.3984375,-291.0,150.0,-151.0,101701.0,-3.13100004196167,0,0
2.6949303000001237,0.3699951171875,-0.451507568359375,0.311767578125,-0.749664306640625,-0.06103515625,0.18310546875,-0.18310546875,0.4437255859375,-0.80078125,0.3984375,-291.0,151.0,-151.0,101701.0,-3.13100004196167,0,0
2.694984599991585,0.3699951171875,-0.451507568359375,0.311767578125,-0.749664306640625,-0.1220703125,0.0,-0.1220703125,0.4468994140625,-0.8013916015625,0.3978271484375,-291.0,151.0,-151.0,101701.0,-3.13100004196167,0,0
2.7572808999975678,0.3699951171875,-0.451507568359375,0.311767578125,-0.749664306640625,0.06103515625,-0.18310546875,-0.06103515625,0.447265625,-0.8006591796875,0.3968505859375,-291.0,151.0,-151.0,101701.0,-3.13100004196167,0,0
2.7573493999952916,0.3699951171875,-0.451507568359375,0.311798095703125,-0.749664306640625,0.0,-0.18310546875,0.06103515625,0.447021484375,-0.801513671875,0.3973388671875,-291.0,151.0,-151.0,101701.0,-3.13100004196167,0,0
2.757409599988023,0.3699951171875,-0.451507568359375,0.311798095703125,-0.7496337890625,0.244140625,0.1220703125,0.0,0.44482421875,-0.8013916015625,0.3966064453125,-291.0,151.0,-151.0,101701.0,-3.13100004196167,0,0
2.7574659999954747,0.3699951171875,-0.451507568359375,0.311798095703125,-0.7496337890625,0.06103515625,-0.30517578125,-0.18310546875,0.4443359375,-0.802734375,0.3975830078125,-291.0,151.0,-151.0,101701.0,-3.13100004196167,0,0
2.757518499987782,0.3699951171875,-0.451507568359375,0.311798095703125,-0.7496337890625,0.1220703125,-0.1220703125,0.06103515625,0.4451904296875,-0.8006591796875,0.3973388671875,-291.0,151.0,-151.0,101701.0,-3.13100004196167,0,0
2.7608682999998564,0.3699951171875,-0.451507568359375,0.311798095703125,-0.7496337890625,0.244140625,0.06103515625,0.0,0.44482421875,-0.802001953125,0.3985595703125,-291.0,151.0,-151.0,101701.0,-3.13100004196167,0,0
2.7609291999979177,0.3699951171875,-0.451507568359375,0.311798095703125,-0.7496337890625,-0.06103515625,-0.1220703125,0.0,0.444580078125,-0.802490234375,0.396728515625,-291.0,151.0,-151.0,101701.0,-3.13100004196167,0,0
2.7609879999945406,0.3699951171875,-0.451507568359375,0.311798095703125,-0.7496337890625,-0.06103515625,-0.1220703125,0.0,0.444580078125,-0.802490234375,0.396728515625,-291.0,151.0,-151.0,101701.0,-3.13100004196167,0,0
2.761040999990655,0.3699951171875,-0.451507568359375,0.311798095703125,-0.7496337890625,-0.18310546875,-0.1220703125,0.30517578125,0.4466552734375,-0.80078125,0.396728515625,-291.0,151.0,-151.0,101701.0,-3.13100004196167,0,0
2.7610925999906613,0.3699951171875,-0.4515380859375,0.311798095703125,-0.7496337890625,-0.18310546875,-0.06103515625,0.0,0.447265625,-0.8018798828125,0.396240234375,-291.0,151.0,-151.0,101701.0,-3.13100004196167,0,0
2.761145399999805,0.3699951171875,-0.4515380859375,0.311798095703125,-0.7496337890625,0.1220703125,-0.06103515625,0.0,0.4461669921875,-0.8009033203125,0.396240234375,-291.0,151.0,-151.0,101701.0,-3.13100004196167,0,0
2.821293199987849,0.3699951171875,-0.4515380859375,0.311798095703125,-0.7496337890625,-0.30517578125,0.0,-0.06103515625,0.4453125,-0.8026123046875,0.3974609375,-291.0,151.0,-151.0,101701.0,-3.13100004196167,0,0
2.821374499995727,0.3699951171875,-0.4515380859375,0.311798095703125,-0.7496337890625,0.06103515625,-0.1220703125,0.06103515625,0.44482421875,-0.80029296875,0.3983154296875,-291.0,151.0,-151.0,101701.0,-3.13100004196167,0,0
2.821431599993957,0.3699951171875,-0.4515380859375,0.311798095703125,-0.7496337890625,0.1220703125,0.06103515625,0.06103515625,0.4451904296875,-0.799560546875,0.3968505859375,-291.0,151.0,-151.0,101701.0,-3.13100004196167,0,0
2.8227075999893714,0.3699951171875,-0.4515380859375,0.311798095703125,-0.7496337890625,-0.1220703125,-0.18310546875,-0.06103515625,0.4443359375,-0.8011474609375,0.3973388671875,-291.0,151.0,-151.0,101701.0,-3.13100004196167,0,0
2.8228591999941273,0.3699951171875,-0.4515380859375,0.311798095703125,-0.7496337890625,0.18310546875,-0.06103515625,0.0,0.4471435546875,-0.80078125,0.397216796875,-291.0,151.0,-151.0,101701.0,-3.13100004196167,0,0
2.8229887999914354,0.3699951171875,-0.4515380859375,0.311798095703125,-0.7496337890625,-0.06103515625,-0.244140625,0.0,0.4434814453125,-0.801025390625,0.39697265625,-289.0,150.0,-151.0,101701.0,-3.13100004196167,0,0
2.8231331999995746,0.3699951171875,-0.4515380859375,0.311798095703125,-0.7496337890625,-0.06103515625,-0.244140625,0.0,0.4434814453125,-0.801025390625,0.39697265625,-289.0,150.0,-151.0,101701.0,-3.13100004196167,0,0
2.823249899985967,0.36956787109375,-0.45135498046875,0.31207275390625,-0.749847412109375,0.06103515625,0.1220703125,0.1220703125,0.444091796875,-0.8023681640625,0.39697265625,-289.0,150.0,-151.0,101701.0,-3.13100004196167,0,0
2.823368199999095,0.36956787109375,-0.45135498046875,0.31207275390625,-0.74981689453125,-0.6103515625,0.0,0.244140625,0.448974609375,-0.801513671875,0.394775390625,-289.0,150.0,-151.0,101701.0,-3.13100004196167,0,0
2.823428799994872,0.36956787109375,-0.45135498046875,0.31207275390625,-0.749847412109375,0.0,-0.244140625,0.244140625,0.447265625,-0.8011474609375,0.3970947265625,-289.0,150.0,-151.0,101701.0,-3.13100004196167,0,0
2.8235150999971665,0.36956787109375,-0.45135498046875,0.31207275390625,-0.74981689453125,-0.1220703125,-0.1220703125,0.0,0.4461669921875,-0.8016357421875,0.3968505859375,-289.0,150.0,-151.0,101701.0,-3.13100004196167,0,0
2.8235740999953123,0.36956787109375,-0.451385498046875,0.31207275390625,-0.74981689453125,0.0,-0.18310546875,0.0,0.4466552734375,-0.80078125,0.3956298828125,-289.0,150.0,-151.0,101701.0,-3.13100004196167,0,0
2.8236265999876196,0.36956787109375,-0.451385498046875,0.31207275390625,-0.74981689453125,0.30517578125,0.06103515625,0.06103515625,0.4454345703125,-0.8009033203125,0.39794921875,-289.0,150.0,-151.0,101701.0,-3.13100004196167,0,0
2.883906699993531,0.36956787109375,-0.451385498046875,0.31207275390625,-0.74981689453125,0.0,-0.1220703125,-0.1220703125,0.44287109375,-0.79931640625,0.3968505859375,-289.0,150.0,-151.0,101701.0,-3.13100004196167,0,0
2.8839858999999706,0.36956787109375,-0.451385498046875,0.31207275390625,-0.74981689453125,-0.06103515625,-0.06103515625,-0.1220703125,0.4476318359375,-0.802490234375,0.3980712890625,-289.0,150.0,-151.0,101701.0,-3.130000114440918,0,0
2.884046399994986,0.36956787109375,-0.451385498046875,0.31207275390625,-0.74981689453125,-0.18310546875,-0.244140625,0.0,0.4461669921875,-0.7994384765625,0.3973388671875,-289.0,150.0,-151.0,101701.0,-3.130000114440918,0,0
2.8841041999985464,0.36956787109375,-0.451385498046875,0.312042236328125,-0.74981689453125,0.06103515625,0.0,0.0,0.446533203125,-0.8009033203125,0.3975830078125,-289.0,150.0,-151.0,101701.0,-3.130000114440918,0,0
2.884162699992885,0.36956787109375,-0.451385498046875,0.312042236328125,-0.74981689453125,-0.06103515625,-0.1220703125,0.0,0.4471435546875,-0.800537109375,0.397216796875,-289.0,150.0,-151.0,101701.0,-3.130000114440918,0,0
2.8842726000002585,0.36956787109375,-0.451385498046875,0.312042236328125,-0.749847412109375,0.1220703125,-0.1220703125,-0.18310546875,0.445556640625,-0.799560546875,0.3975830078125,-289.0,150.0,-151.0,101701.0,-3.130000114440918,0,0
2.8843339999875752,0.36956787109375,-0.451385498046875,0.31207275390625,-0.74981689453125,0.244140625,0.06103515625,-0.244140625,0.4434814453125,-0.801513671875,0.3955078125,-289.0,150.0,-151.0,101701.0,-3.130000114440918,0,0
2.884391499988851,0.36956787109375,-0.451385498046875,0.31207275390625,-0.74981689453125,0.06103515625,0.06103515625,-0.06103515625,0.4462890625,-0.8021240234375,0.397216796875,-289.0,150.0,-151.0,101701.0,-3.130000114440918,0,0
