Time stamp(sec),quaternion_0,quaternion_1,quaternion_2,quaternion_3,roll_angular_rate,pitch_angular_rate,yaw_angular_rate,acc_X,acc_Y,acc_Z,mag_X,mag_Y,mag_Z,pressure,altitude
29.463996,0.14801025390625,0.17315673828125,0.973297119140625,0.027435302734375,2.5634765625,16.845703125,29.96826171875,-0.26611328125,0.0146484375,-0.85009765625,17.0,228.0,-145.0,101264.0,0.5020000338554382,0,0
29.470996,0.14666748046875,0.1751708984375,0.97314453125,0.027313232421875,2.44140625,17.7001953125,30.33447265625,-0.257568359375,0.017822265625,-0.8350830078125,17.0,228.0,-145.0,101264.0,0.5020000338554382,0,0
29.477995,0.1451416015625,0.177337646484375,0.972991943359375,0.027130126953125,5.06591796875,18.73779296875,32.77587890625,-0.21240234375,0.0177001953125,-0.8387451171875,17.0,228.0,-145.0,101264.0,0.5020000338554382,0,0
29.484995,0.14434814453125,0.178466796875,0.972900390625,0.02703857421875,3.7841796875,17.88330078125,33.63037109375,-0.2076416015625,-0.0067138671875,-0.856689453125,20.0,219.0,-135.0,101264.0,0.5020000338554382,0,0
29.491994,0.14263916015625,0.182464599609375,0.972442626953125,0.02655029296875,6.2255859375,18.61572265625,34.24072265625,-0.199951171875,0.017578125,-0.8514404296875,20.0,219.0,-135.0,101264.0,0.5020000338554382,0,0
29.498999,0.14068603515625,0.184967041015625,0.972259521484375,0.02630615234375,8.30078125,18.1884765625,36.80419921875,-0.1473388671875,0.0267333984375,-0.849853515625,20.0,219.0,-135.0,101264.0,0.5020000338554382,0,0
29.505998,0.13958740234375,0.186279296875,0.97216796875,0.02618408203125,10.25390625,19.59228515625,37.4755859375,-0.1265869140625,0.038330078125,-0.85009765625,20.0,219.0,-135.0,101264.0,0.5020000338554382,0,0
29.512998,0.137481689453125,0.18890380859375,0.971954345703125,0.02587890625,9.82666015625,17.333984375,38.4521484375,-0.1224365234375,0.024658203125,-0.875,20.0,219.0,-135.0,101264.0,0.5020000338554382,0,0
29.519997,0.13555908203125,0.191680908203125,0.971710205078125,0.02545166015625,10.92529296875,14.6484375,40.10009765625,-0.126220703125,0.021484375,-0.89111328125,20.0,219.0,-135.0,101264.0,0.5020000338554382,0,0
29.526997,0.133819580078125,0.19451904296875,0.97137451171875,0.02484130859375,11.65771484375,12.8173828125,41.32080078125,-0.1419677734375,0.0113525390625,-0.8946533203125,20.0,219.0,-135.0,101264.0,0.5020000338554382,0,0
29.533996,0.132965087890625,0.19598388671875,0.971221923828125,0.02459716796875,11.23046875,13.48876953125,41.68701171875,-0.1468505859375,0.022216796875,-0.8902587890625,20.0,219.0,-135.0,101264.0,0.5020000338554382,0,0
29.540995,0.130462646484375,0.200469970703125,0.970672607421875,0.02398681640625,11.23046875,12.75634765625,42.96875,-0.138427734375,0.0384521484375,-0.8934326171875,20.0,219.0,-135.0,101264.0,0.5020000338554382,0,0
29.560996,0.126312255859375,0.206451416015625,0.969970703125,0.023773193359375,12.3291015625,18.73779296875,41.93115234375,-0.0855712890625,0.07958984375,-0.8704833984375,20.0,219.0,-135.0,101264.0,0.5070000290870667,0,0
29.567995,0.123870849609375,0.20941162109375,0.969635009765625,0.023712158203125,11.90185546875,20.1416015625,42.3583984375,-0.059814453125,0.064208984375,-0.8885498046875,20.0,219.0,-135.0,101264.0,0.5070000290870667,0,0
29.574995,0.12261962890625,0.210906982421875,0.969482421875,0.023681640625,12.14599609375,20.1416015625,42.3583984375,-0.05419921875,0.0751953125,-0.885498046875,20.0,219.0,-135.0,101264.0,0.5070000290870667,0,0
29.581995,0.118988037109375,0.215240478515625,0.968963623046875,0.02349853515625,14.34326171875,19.10400390625,41.07666015625,-0.058349609375,0.0848388671875,-0.90380859375,23.0,210.0,-123.0,101264.0,0.5070000290870667,0,0
29.588999,0.11785888671875,0.2186279296875,0.968353271484375,0.023101806640625,16.4794921875,18.12744140625,38.9404296875,-0.060791015625,0.0943603515625,-0.9083251953125,23.0,210.0,-123.0,101264.0,0.5070000290870667,0,0
29.595993,0.114288330078125,0.222808837890625,0.967864990234375,0.022308349609375,18.12744140625,18.9208984375,38.9404296875,-0.0640869140625,0.079345703125,-0.90478515625,23.0,210.0,-123.0,101264.0,0.5070000290870667,0,0
29.602993,0.11309814453125,0.224212646484375,0.967681884765625,0.022003173828125,19.4091796875,19.8974609375,38.63525390625,-0.0858154296875,0.0782470703125,-0.9200439453125,23.0,210.0,-123.0,101264.0,0.5070000290870667,0,0
29.609997,0.111907958984375,0.2255859375,0.967498779296875,0.0216064453125,21.54541015625,20.8740234375,38.57421875,-0.0982666015625,0.0684814453125,-0.91650390625,23.0,210.0,-123.0,101264.0,0.5070000290870667,0,0
29.616996,0.10845947265625,0.229705810546875,0.966949462890625,0.02044677734375,21.484375,19.95849609375,39.61181640625,-0.1124267578125,0.054443359375,-0.9429931640625,23.0,210.0,-123.0,101264.0,0.5070000290870667,0,0
29.623996,0.107269287109375,0.2310791015625,0.966766357421875,0.02001953125,21.54541015625,21.42333984375,38.0859375,-0.1019287109375,0.0611572265625,-0.9361572265625,23.0,210.0,-123.0,101264.0,0.5070000290870667,0,0
29.630995,0.10491943359375,0.233734130859375,0.9664306640625,0.01910400390625,21.78955078125,21.54541015625,37.2314453125,-0.098876953125,0.0567626953125,-0.94482421875,23.0,210.0,-123.0,101264.0,0.5070000290870667,0,0
29.650996,0.099578857421875,0.23980712890625,0.965545654296875,0.01580810546875,20.93505859375,19.53125,33.50830078125,-0.1343994140625,-0.0152587890625,-0.9862060546875,23.0,210.0,-123.0,101264.0,0.5070000290870667,0,0
29.657995,0.09765625,0.242034912109375,0.9652099609375,0.014312744140625,21.728515625,19.53125,33.69140625,-0.146728515625,-0.03125,-1.0093994140625,23.0,210.0,-123.0,101264.0,0.5040000081062317,0,0
29.664995,0.09674072265625,0.24310302734375,0.965057373046875,0.01361083984375,21.30126953125,20.01953125,30.517578125,-0.189453125,-0.0174560546875,-1.01220703125,23.0,210.0,-123.0,101264.0,0.5040000081062317,0,0
29.671994,0.094879150390625,0.24517822265625,0.9647216796875,0.012451171875,20.08056640625,20.8740234375,29.541015625,-0.184326171875,-0.00244140625,-1.00830078125,23.0,210.0,-123.0,101264.0,0.5040000081062317,0,0
29.678995,0.093048095703125,0.247100830078125,0.96441650390625,0.0118408203125,15.869140625,23.193359375,27.2216796875,-0.1778564453125,0.051025390625,-0.972412109375,23.0,210.0,-123.0,101264.0,0.5040000081062317,0,0
29.685993,0.0921630859375,0.248046875,0.964263916015625,0.01153564453125,16.357421875,23.5595703125,27.099609375,-0.1925048828125,0.0611572265625,-0.9698486328125,26.0,200.0,-111.0,101264.0,0.5040000081062317,0,0
29.692993,0.090484619140625,0.24456787109375,0.965301513671875,0.01141357421875,15.7470703125,22.5830078125,25.2685546875,-0.227783203125,0.0677490234375,-1.016845703125,26.0,200.0,-111.0,101264.0,0.5040000081062317,0,0
29.699997,0.088897705078125,0.246246337890625,0.96502685546875,0.010894775390625,17.02880859375,25.2685546875,23.193359375,-0.23388671875,0.0994873046875,-1.0048828125,26.0,200.0,-111.0,101264.0,0.5040000081062317,0,0
29.706996,0.0880126953125,0.2470703125,0.96490478515625,0.0106201171875,16.2353515625,26.67236328125,23.13232421875,-0.22802734375,0.0755615234375,-1.0146484375,26.0,200.0,-111.0,101264.0,0.5040000081062317,0,0
29.713996,0.086090087890625,0.248626708984375,0.964691162109375,0.01007080078125,17.76123046875,31.982421875,22.216796875,-0.2413330078125,0.0758056640625,-0.9888916015625,26.0,200.0,-111.0,101264.0,0.5040000081062317,0,0
29.720995,0.08514404296875,0.2503662109375,0.964324951171875,0.010223388671875,-0.06103515625,-68.78662109375,29.4189453125,0.282470703125,0.0438232421875,-2.1446533203125,26.0,200.0,-111.0,101264.0,0.5040000081062317,0,0
29.727995,0.10321044921875,0.249786376953125,0.9627685546875,0.0025634765625,44.37255859375,-325.68359375,-37.41455078125,0.77294921875,0.24658203125,-2.0364990234375,26.0,200.0,-111.0,101264.0,0.5040000081062317,0,0
29.734994,0.116607666015625,0.248443603515625,0.961578369140625,-0.001556396484375,10.498046875,-411.376953125,-41.80908203125,0.075927734375,-0.095458984375,-1.4093017578125,26.0,200.0,-111.0,101264.0,0.5040000081062317,0,0
29.741027,0.116607666015625,0.248443603515625,0.961578369140625,-0.001556396484375,10.498046875,-411.376953125,-41.80908203125,0.075927734375,-0.095458984375,-1.4093017578125,26.0,200.0,-111.0,101264.0,0.5040000081062317,0,0
29.747995,0.16192626953125,0.246337890625,0.955413818359375,-0.015533447265625,-1.28173828125,-264.95361328125,9.58251953125,-0.271240234375,-0.3516845703125,-0.6551513671875,26.0,200.0,-111.0,101264.0,0.5040000081062317,0,0
29.754995,0.171539306640625,0.245391845703125,0.95391845703125,-0.018341064453125,-1.3427734375,-301.94091796875,-22.8271484375,0.153564453125,-0.22509765625,-1.22412109375,26.0,200.0,-111.0,101264.0,0.5040000081062317,0,0
29.761994,0.196319580078125,0.245361328125,0.949005126953125,-0.02398681640625,-0.91552734375,-416.56494140625,1.0986328125,0.2825927734375,-0.075927734375,-1.38525390625,26.0,200.0,-111.0,101264.0,0.5040000081062317,0,0
29.768995,0.22509765625,0.242828369140625,0.942901611328125,-0.035491943359375,112.060546875,-463.623046875,-61.70654296875,0.0008544921875,0.7469482421875,-1.5025634765625,26.0,200.0,-111.0,101264.0,0.5040000081062317,0,0
29.775993,0.239990234375,0.239410400390625,0.939788818359375,-0.043243408203125,92.529296875,-499.32861328125,-109.4970703125,0.0230712890625,0.3397216796875,-1.8819580078125,26.0,200.0,-111.0,101264.0,0.5040000081062317,0,0
29.782993,0.296417236328125,0.227508544921875,0.92535400390625,-0.063812255859375,28.076171875,-647.216796875,-103.8818359375,0.251220703125,-0.311767578125,-2.2823486328125,29.0,188.0,-97.0,101264.0,0.5040000081062317,0,0
29.789997,0.31390380859375,0.22125244140625,0.920867919921875,-0.066925048828125,-37.2314453125,-541.3818359375,-79.58984375,-0.096435546875,0.0518798828125,-0.6959228515625,29.0,188.0,-97.0,101264.0,0.5040000081062317,0,0
29.796997,0.3521728515625,0.205841064453125,0.9095458984375,-0.079345703125,19.287109375,-419.12841796875,-125.1220703125,-0.3641357421875,0.5323486328125,0.2181396484375,29.0,188.0,-97.0,101264.0,0.5040000081062317,0,0
29.803996,0.35943603515625,0.201812744140625,0.907440185546875,-0.0811767578125,-27.28271484375,-214.05029296875,-98.14453125,-1.03564453125,0.2391357421875,0.0506591796875,29.0,188.0,-97.0,101264.0,0.5040000081062317,0,0
29.824995,0.392547607421875,0.18475341796875,0.8961181640625,-0.0931396484375,20.8740234375,-192.56591796875,-72.8759765625,-0.734619140625,-0.1380615234375,-0.0885009765625,29.0,188.0,-97.0,101263.0,0.5120000243186951,0,0
29.831027,0.392547607421875,0.18475341796875,0.8961181640625,-0.0931396484375,20.8740234375,-192.56591796875,-72.8759765625,-0.734619140625,-0.1380615234375,-0.0885009765625,29.0,188.0,-97.0,101263.0,0.5120000243186951,0,0
29.837995,0.41680908203125,0.172454833984375,0.886444091796875,-0.1033935546875,-7.26318359375,-236.99951171875,-87.58544921875,-0.2325439453125,-0.0301513671875,-0.138671875,29.0,188.0,-97.0,101263.0,0.5120000243186951,0,0
29.844995,0.42205810546875,0.169708251953125,0.884307861328125,-0.105133056640625,-9.09423828125,-187.68310546875,-62.255859375,-0.02587890625,-0.093505859375,-0.733642578125,29.0,188.0,-97.0,101263.0,0.5120000243186951,0,0
29.851995,0.43243408203125,0.16546630859375,0.8798828125,-0.10662841796875,-29.6630859375,-191.10107421875,-42.90771484375,-0.0068359375,-0.3006591796875,-0.6434326171875,29.0,188.0,-97.0,101263.0,0.5120000243186951,0,0
29.858999,0.44256591796875,0.16217041015625,0.875640869140625,-0.105133056640625,-28.01513671875,-161.92626953125,-19.53125,-0.0655517578125,-0.32177734375,-0.4161376953125,29.0,188.0,-97.0,101263.0,0.5120000243186951,0,0
29.865998,0.446563720703125,0.160980224609375,0.873779296875,-0.105499267578125,-17.4560546875,-140.7470703125,-14.404296875,-0.380126953125,0.0455322265625,-0.9031982421875,29.0,188.0,-97.0,101263.0,0.5120000243186951,0,0
29.872998,0.453582763671875,0.158447265625,0.87042236328125,-0.1070556640625,-7.32421875,-134.70458984375,-24.23095703125,-0.402099609375,-0.02880859375,-1.0338134765625,29.0,188.0,-97.0,101263.0,0.5120000243186951,0,0
29.879997,0.4591064453125,0.156951904296875,0.867767333984375,-0.107421875,-17.39501953125,-102.783203125,2.38037109375,-0.16162109375,-0.274658203125,-1.0618896484375,29.0,188.0,-97.0,101263.0,0.5120000243186951,0,0
29.886997,0.462005615234375,0.15594482421875,0.866455078125,-0.10693359375,-33.75244140625,-108.2763671875,-4.150390625,-0.08251953125,-0.0074462890625,-1.0533447265625,33.0,178.0,-97.0,101263.0,0.5120000243186951,0,0
29.907995,0.47296142578125,0.146209716796875,0.8631591796875,-0.099334716796875,-48.03466796875,-107.23876953125,-30.3955078125,-0.0816650390625,-0.0068359375,-0.698974609375,33.0,178.0,-97.0,101263.0,0.51500004529953,0,0
29.914994,0.475433349609375,0.1448974609375,0.86199951171875,-0.099273681640625,-21.1181640625,-87.70751953125,-27.03857421875,-0.112060546875,0.10302734375,-0.175537109375,33.0,178.0,-97.0,101263.0,0.51500004529953,0,0
29.921995,0.484222412109375,0.138519287109375,0.858123779296875,-0.099517822265625,-30.45654296875,-109.4970703125,-49.6826171875,-0.1160888671875,0.1685791015625,-0.3739013671875,33.0,178.0,-97.0,101263.0,0.51500004529953,0,0
29.928026,0.484222412109375,0.138519287109375,0.858123779296875,-0.099517822265625,-30.45654296875,-109.4970703125,-49.6826171875,-0.1160888671875,0.1685791015625,-0.3739013671875,33.0,178.0,-97.0,101263.0,0.51500004529953,0,0
29.934995,0.490386962890625,0.13458251953125,0.855072021484375,-0.10113525390625,-12.5732421875,-95.458984375,-32.5927734375,-0.19384765625,-0.1610107421875,0.008056640625,33.0,178.0,-97.0,101263.0,0.51500004529953,0,0
29.941994,0.498504638671875,0.13067626953125,0.851043701171875,-0.100341796875,-46.69189453125,-86.5478515625,7.99560546875,-0.105224609375,-0.27880859375,-0.0704345703125,33.0,178.0,-97.0,101263.0,0.51500004529953,0,0
29.948995,0.501678466796875,0.12957763671875,0.849456787109375,-0.0994873046875,-42.96875,-101.806640625,-1.708984375,-0.080322265625,0.1060791015625,-0.160400390625,33.0,178.0,-97.0,101263.0,0.51500004529953,0,0
29.955994,0.50482177734375,0.12841796875,0.847808837890625,-0.099029541015625,-33.87451171875,-102.6611328125,-7.99560546875,-0.08984375,0.089111328125,-0.06884765625,33.0,178.0,-97.0,101263.0,0.51500004529953,0,0
29.962993,0.51507568359375,0.124755859375,0.84228515625,-0.09814453125,-33.935546875,-113.525390625,-8.85009765625,-0.105224609375,0.0294189453125,-0.2113037109375,33.0,178.0,-97.0,101263.0,0.51500004529953,0,0
29.969997,0.518646240234375,0.123291015625,0.840301513671875,-0.098175048828125,-28.38134765625,-120.361328125,-17.822265625,-0.094482421875,-0.0289306640625,-0.0914306640625,33.0,178.0,-97.0,101263.0,0.51500004529953,0,0
29.976996,0.522369384765625,0.12188720703125,0.838226318359375,-0.097991943359375,-33.935546875,-125.1220703125,-10.19287109375,-0.072509765625,-0.165771484375,-0.108642578125,33.0,178.0,-97.0,101263.0,0.51500004529953,0,0
29.983996,0.5335693359375,0.11798095703125,0.831817626953125,-0.0970458984375,-29.296875,-123.9013671875,-9.6435546875,-0.0621337890625,0.0360107421875,-0.056396484375,44.0,172.0,-101.0,101263.0,0.51500004529953,0,0
29.990995,0.53631591796875,0.1231689453125,0.828857421875,-0.100555419921875,-32.40966796875,-114.31884765625,2.99072265625,-0.060546875,-0.12548828125,0.019287109375,44.0,172.0,-101.0,101263.0,0.51500004529953,0,0
29.997995,0.5455322265625,0.1219482421875,0.82318115234375,-0.0992431640625,-33.203125,-106.5673828125,11.23046875,-0.0750732421875,-0.131591796875,0.0382080078125,44.0,172.0,-101.0,101263.0,0.51500004529953,0,0
30.004994,0.547943115234375,0.12200927734375,0.821624755859375,-0.098602294921875,-21.05712890625,-77.0263671875,32.40966796875,-0.052734375,-0.1087646484375,-0.004150390625,44.0,172.0,-101.0,101263.0,0.51500004529953,0,0
30.011995,0.5501708984375,0.122161865234375,0.82025146484375,-0.097686767578125,-25.7568359375,-72.8759765625,36.0107421875,-0.0404052734375,-0.0904541015625,-0.0479736328125,44.0,172.0,-101.0,101262.0,0.5210000276565552,0,0
30.018026,0.5501708984375,0.122161865234375,0.82025146484375,-0.097686767578125,-25.7568359375,-72.8759765625,36.0107421875,-0.0404052734375,-0.0904541015625,-0.0479736328125,44.0,172.0,-101.0,101262.0,0.5210000276565552,0,0
30.024995,0.559967041015625,0.119903564453125,0.814605712890625,-0.0916748046875,-45.95947265625,-102.23388671875,-4.69970703125,-0.0712890625,0.245361328125,-0.190185546875,44.0,172.0,-101.0,101262.0,0.5210000276565552,0,0
30.031994,0.562652587890625,0.118804931640625,0.813018798828125,-0.09100341796875,-36.1328125,-98.93798828125,-8.97216796875,-0.082275390625,0.082275390625,-0.15625,44.0,172.0,-101.0,101262.0,0.5210000276565552,0,0
30.038995,0.567230224609375,0.1153564453125,0.810302734375,-0.091033935546875,-28.38134765625,-65.00244140625,65.4296875,-0.3817138671875,-1.2418212890625,-0.8775634765625,44.0,172.0,-101.0,101262.0,0.5210000276565552,0,0
30.045994,0.57366943359375,0.114990234375,0.806549072265625,-0.084228515625,-175.6591796875,-189.63623046875,131.04248046875,-1.2332763671875,-0.935302734375,-1.7890625,44.0,172.0,-101.0,101262.0,0.5210000276565552,0,0
30.052993,0.5828857421875,0.111083984375,0.80181884765625,-0.070281982421875,-239.19677734375,-147.3388671875,84.9609375,-1.206298828125,0.776611328125,-0.7823486328125,44.0,172.0,-101.0,101262.0,0.5210000276565552,0,0
30.059997,0.590179443359375,0.10406494140625,0.798370361328125,-0.0584716796875,-314.3310546875,-63.78173828125,29.78515625,-1.24560546875,-1.4638671875,-1.7706298828125,44.0,172.0,-101.0,101262.0,0.5210000276565552,0,0
30.066996,0.593994140625,0.10101318359375,0.796417236328125,-0.05133056640625,-222.96142578125,-103.45458984375,63.232421875,-0.7962646484375,-0.908203125,-3.35791015625,44.0,172.0,-101.0,101262.0,0.5210000276565552,0,0
30.087995,0.60601806640625,0.07635498046875,0.7900390625,-0.05206298828125,-77.57568359375,-45.654296875,-155.6396484375,0.4554443359375,-0.7552490234375,-1.3824462890625,53.0,172.0,-118.0,101262.0,0.5210000276565552,0,0
30.094994,0.605865478515625,0.067718505859375,0.790191650390625,-0.0623779296875,10.8642578125,-5.31005859375,-215.75927734375,0.50146484375,-0.8642578125,-0.848388671875,53.0,172.0,-118.0,101262.0,0.5210000276565552,0,0
30.101999,0.60308837890625,0.0528564453125,0.792083740234375,-0.077911376953125,37.41455078125,30.94482421875,-289.61181640625,0.073486328125,-1.2630615234375,-0.0181884765625,53.0,172.0,-118.0,101262.0,0.5210000276565552,0,0
30.108031,0.60308837890625,0.0528564453125,0.792083740234375,-0.077911376953125,37.41455078125,30.94482421875,-289.61181640625,0.073486328125,-1.2630615234375,-0.0181884765625,53.0,172.0,-118.0,101262.0,0.5210000276565552,0,0
30.114995,0.59674072265625,0.030181884765625,0.796142578125,-0.09539794921875,-10.986328125,37.841796875,-280.94482421875,-0.0238037109375,-0.603759765625,0.094482421875,53.0,172.0,-118.0,101263.0,0.5139999985694885,0,0
30.121995,0.592803955078125,0.012359619140625,0.798583984375,-0.103179931640625,-73.2421875,41.3818359375,-244.20166015625,0.087890625,-0.8753662109375,0.0147705078125,53.0,172.0,-118.0,101263.0,0.5139999985694885,0,0
30.128999,0.588623046875,-0.004608154296875,0.801116943359375,-0.10797119140625,-92.28515625,34.97314453125,-237.97607421875,0.09375,-0.386962890625,0.0616455078125,53.0,172.0,-118.0,101263.0,0.5139999985694885,0,0
30.135998,0.5867919921875,-0.01361083984375,0.80218505859375,-0.10943603515625,-122.1923828125,41.68701171875,-240.66162109375,-0.095458984375,0.171630859375,0.4451904296875,53.0,172.0,-118.0,101263.0,0.5139999985694885,0,0
30.142998,0.560333251953125,0.023345947265625,0.821319580078125,-0.10430908203125,251.64794921875,357.97119140625,213.43994140625,-2.6707763671875,3.41650390625,2.0372314453125,53.0,172.0,-118.0,101263.0,0.5139999985694885,0,0
30.149997,0.536285400390625,0.039154052734375,0.8370361328125,-0.100738525390625,139.0380859375,868.46923828125,347.7783203125,1.2696533203125,0.4996337890625,2.51513671875,53.0,172.0,-118.0,101263.0,0.5139999985694885,0,0
30.156997,0.519775390625,0.050750732421875,0.847503662109375,1.5181628120978372e-27,3.6814071442351807e-28,3.9428405786060817e-28,7.346544032300178e-28,2.4409449893387654e-27,2.802292587736565e-27,2.043309789300799e-27,5.55250177050458e-28,7.379577582706308e-28,1.5856411380768467e-27,2.205420705323717e-27,2.0665978268670865e-31,29503,3166
30.170995,0.4813232421875,0.099945068359375,0.86370849609375,-0.11077880859375,356.01806640625,362.9150390625,291.9921875,-2.242431640625,-3.982421875,3.9688720703125,53.0,172.0,-118.0,101263.0,0.5139999985694885,0,0
30.177995,0.475616455078125,0.137786865234375,0.861328125,-0.113555908203125,72.998046875,443.54248046875,391.6015625,-2.002685546875,-3.982421875,1.517822265625,53.0,172.0,-118.0,101263.0,0.5139999985694885,0,0
30.184995,0.475982666015625,0.150848388671875,0.85906982421875,-0.112335205078125,229.6142578125,-214.9658203125,235.83984375,-3.6712646484375,-1.614990234375,-1.3712158203125,59.0,172.0,-141.0,101263.0,0.5139999985694885,0,0
30.191995,0.46771240234375,0.156402587890625,0.86334228515625,-0.106781005859375,200.74462890625,316.34521484375,318.29833984375,-1.857666015625,-0.3258056640625,3.744140625,59.0,172.0,-141.0,101263.0,0.5139999985694885,0,0
30.198993,0.47637939453125,0.18408203125,0.852569580078125,-0.11065673828125,143.4326171875,42.8466796875,272.52197265625,-1.349609375,0.03271484375,-2.1959228515625,59.0,172.0,-141.0,101263.0,0.5139999985694885,0,0
30.205021,0.47637939453125,0.18408203125,0.852569580078125,-0.11065673828125,143.4326171875,42.8466796875,272.52197265625,-1.349609375,0.03271484375,-2.1959228515625,59.0,172.0,-141.0,101263.0,0.5139999985694885,0,0
30.211994,0.47967529296875,0.204681396484375,0.845703125,-0.11285400390625,168.701171875,-125.30517578125,302.001953125,-2.8587646484375,-0.809814453125,-1.5223388671875,59.0,172.0,-141.0,101262.0,0.5170000195503235,0,0
30.218995,0.49383544921875,0.21466064453125,0.83563232421875,-0.10833740234375,8.48388671875,-62.56103515625,230.16357421875,-3.5833740234375,0.5968017578125,-1.0277099609375,59.0,172.0,-141.0,101262.0,0.5170000195503235,0,0
30.225994,0.49859619140625,0.213348388671875,0.832672119140625,-0.111785888671875,50.96435546875,-163.26904296875,-57.67822265625,-2.15234375,0.6376953125,-0.22314453125,59.0,172.0,-141.0,101262.0,0.5170000195503235,0,0
30.232993,0.498779296875,0.207763671875,0.832183837890625,-0.124481201171875,132.99560546875,-26.06201171875,-149.84130859375,-1.6036376953125,1.0478515625,0.636474609375,59.0,172.0,-141.0,101262.0,0.5170000195503235,0,0
30.239997,0.500396728515625,0.1973876953125,0.832305908203125,-0.133636474609375,21.240234375,-38.87939453125,-183.41064453125,-0.998046875,-0.1771240234375,-0.47998046875,59.0,172.0,-141.0,101262.0,0.5170000195503235,0,0
30.260995,0.48773193359375,0.172088623046875,0.839599609375,-0.165924072265625,146.1181640625,25.08544921875,-317.9931640625,-0.33544921875,0.5369873046875,-0.81787109375,59.0,172.0,-141.0,101262.0,0.5170000195503235,0,0
30.267995,0.4833984375,0.1656494140625,0.84149169921875,-0.175323486328125,143.310546875,45.59326171875,-305.11474609375,-0.1497802734375,-0.6424560546875,-0.46728515625,59.0,172.0,-141.0,101262.0,0.5170000195503235,0,0
30.274994,0.4727783203125,0.15582275390625,0.84564208984375,-0.19244384765625,144.287109375,81.9091796875,-257.8125,-0.027099609375,-0.3646240234375,-0.6038818359375,59.0,172.0,-141.0,101262.0,0.5170000195503235,0,0
30.281995,0.462982177734375,0.1458740234375,0.8487548828125,-0.209564208984375,162.59765625,96.6796875,-278.6865234375,-0.197509765625,0.230224609375,0.2572021484375,68.0,170.0,-163.0,101262.0,0.5170000195503235,0,0
30.288994,0.43817138671875,0.180206298828125,0.844390869140625,-0.249969482421875,179.26025390625,127.685546875,-282.958984375,-0.1680908203125,0.17822265625,0.1953125,68.0,170.0,-163.0,101262.0,0.5170000195503235,0,0
30.295021,0.43817138671875,0.180206298828125,0.844390869140625,-0.249969482421875,179.26025390625,127.685546875,-282.958984375,-0.1680908203125,0.17822265625,0.1953125,68.0,170.0,-163.0,101262.0,0.5170000195503235,0,0
30.301994,0.418212890625,0.17291259765625,0.850830078125,-0.26690673828125,77.1484375,147.8271484375,-123.1689453125,-0.243408203125,-0.9385986328125,-0.25390625,68.0,170.0,-163.0,101262.0,0.5170000195503235,0,0
30.308995,0.4127197265625,0.17236328125,0.85302734375,-0.268829345703125,45.166015625,144.59228515625,-79.2236328125,-0.21337890625,-0.683349609375,-0.2451171875,68.0,170.0,-163.0,101266.0,0.48900002241134644,0,0
30.315994,0.401947021484375,0.17242431640625,0.8575439453125,-0.270660400390625,23.681640625,149.169921875,-46.9970703125,-0.2884521484375,-0.517333984375,-0.370361328125,68.0,170.0,-163.0,101266.0,0.48900002241134644,0,0
30.322993,0.391815185546875,0.175537109375,0.8612060546875,-0.271942138671875,44.5556640625,153.74755859375,-2.44140625,-0.4144287109375,-0.44677734375,-0.3475341796875,68.0,170.0,-163.0,101266.0,0.48900002241134644,0,0
30.329997,0.38189697265625,0.180755615234375,0.86431884765625,-0.272674560546875,58.349609375,158.50830078125,23.98681640625,-0.46826171875,-0.401123046875,-0.386962890625,68.0,170.0,-163.0,101266.0,0.48900002241134644,0,0
30.350995,0.384185791015625,0.185638427734375,0.8604736328125,-0.278350830078125,126.8310546875,83.3740234375,79.77294921875,-2.49267578125,-0.8619384765625,0.0714111328125,68.0,170.0,-163.0,101266.0,0.48900002241134644,0,0
30.357995,0.38897705078125,0.192230224609375,0.855377197265625,-0.282928466796875,201.0498046875,-145.99609375,177.6123046875,-0.8944091796875,-0.95361328125,-2.58056640625,68.0,170.0,-163.0,101266.0,0.48900002241134644,0,0
30.364994,0.392822265625,0.195770263671875,0.85223388671875,-0.28460693359375,90.63720703125,-76.171875,2.62451171875,-0.36474609375,0.8873291015625,-0.6904296875,68.0,170.0,-163.0,101266.0,0.48900002241134644,0,0
30.371995,0.395782470703125,0.19537353515625,0.851226806640625,-0.283782958984375,-24.47509765625,-101.5625,27.52685546875,-0.5662841796875,-0.1513671875,-1.503662109375,68.0,170.0,-163.0,101266.0,0.48900002241134644,0,0
30.378993,0.40185546875,0.196502685546875,0.846649169921875,-0.288177490234375,41.8701171875,-108.33740234375,43.15185546875,-0.4547119140625,-0.2833251953125,-1.247802734375,68.0,170.0,-163.0,101266.0,0.48900002241134644,0,0
30.385993,0.401458740234375,0.196380615234375,0.846435546875,-0.289398193359375,39.55078125,-9.765625,-24.84130859375,-0.1873779296875,0.003662109375,-0.24755859375,74.0,175.0,-189.0,101266.0,0.48900002241134644,0,0
30.392025,0.401458740234375,0.196380615234375,0.846435546875,-0.289398193359375,39.55078125,-9.765625,-24.84130859375,-0.1873779296875,0.003662109375,-0.24755859375,74.0,175.0,-189.0,101266.0,0.48900002241134644,0,0
30.398999,0.3809814453125,0.224517822265625,0.8421630859375,-0.308502197265625,-18.4326171875,9.3994140625,6.34765625,-0.2926025390625,-0.8800048828125,-0.5980224609375,74.0,175.0,-189.0,101266.0,0.48900002241134644,0,0
30.405998,0.37738037109375,0.223114013671875,0.8441162109375,-0.308624267578125,-33.8134765625,61.34033203125,-16.6015625,-0.455810546875,-1.1541748046875,-0.8121337890625,74.0,175.0,-189.0,101266.0,0.48900002241134644,0,0
30.412998,0.37603759765625,0.22503662109375,0.844512939453125,-0.307708740234375,56.884765625,71.71630859375,-43.8232421875,-0.89013671875,0.88720703125,-0.4248046875,74.0,175.0,-189.0,101265.0,0.492000013589859,0,0
30.433996,0.3653564453125,0.216888427734375,0.851318359375,-0.307708740234375,-41.44287109375,82.70263671875,-62.1337890625,-1.3251953125,0.2890625,-0.017578125,74.0,175.0,-189.0,101265.0,0.492000013589859,0,0
30.440995,0.366851806640625,0.21484375,0.852630615234375,-0.303680419921875,-34.0576171875,47.36328125,-74.5849609375,-1.559814453125,0.1685791015625,-0.4410400390625,74.0,175.0,-189.0,101265.0,0.492000013589859,0,0
30.447995,0.366943359375,0.212799072265625,0.853424072265625,-0.302825927734375,-39.97802734375,-11.16943359375,-55.0537109375,-1.3397216796875,-0.47265625,-1.0418701171875,74.0,175.0,-189.0,101265.0,0.492000013589859,0,0
30.454995,0.3685302734375,0.209228515625,0.8538818359375,-0.302032470703125,-41.44287109375,-25.87890625,-45.47119140625,-1.1600341796875,-0.3919677734375,-0.727783203125,74.0,175.0,-189.0,101265.0,0.492000013589859,0,0
30.461999,0.3702392578125,0.20654296875,0.853973388671875,-0.301544189453125,-13.12255859375,-34.36279296875,-28.50341796875,-1.022216796875,-0.323974609375,-0.7215576171875,74.0,175.0,-189.0,101265.0,0.492000013589859,0,0
30.468998,0.37103271484375,0.2054443359375,0.85369873046875,-0.30206298828125,-8.11767578125,-17.4560546875,-25.634765625,-1.03076171875,-0.4638671875,-0.46728515625,74.0,175.0,-189.0,101265.0,0.492000013589859,0,0
30.475998,0.372283935546875,0.203887939453125,0.852935791015625,-0.303802490234375,-6.53076171875,-20.99609375,4.150390625,-1.0042724609375,-0.7889404296875,-0.4886474609375,74.0,175.0,-189.0,101265.0,0.492000013589859,0,0
30.48203,0.372283935546875,0.203887939453125,0.852935791015625,-0.303802490234375,-6.53076171875,-20.99609375,4.150390625,-1.0042724609375,-0.7889404296875,-0.4886474609375,74.0,175.0,-189.0,101265.0,0.492000013589859,0,0
30.488995,0.376220703125,0.20416259765625,0.8504638671875,-0.305633544921875,2.8076171875,-40.83251953125,23.193359375,-1.22314453125,-0.6004638671875,-0.677978515625,78.0,179.0,-221.0,101265.0,0.492000013589859,0,0
30.495994,0.3695068359375,0.231964111328125,0.841033935546875,-0.31982421875,8.48388671875,-18.24951171875,33.447265625,-1.24560546875,-0.7987060546875,-0.2886962890625,78.0,179.0,-221.0,101265.0,0.492000013589859,0,0
30.502993,0.372528076171875,0.23333740234375,0.8387451171875,-0.321258544921875,2.9296875,-16.7236328125,50.84228515625,-1.275390625,-0.79345703125,-0.4234619140625,78.0,179.0,-221.0,101265.0,0.492000013589859,0,0
30.523996,0.380126953125,0.238983154296875,0.83349609375,-0.321929931640625,-16.05224609375,-6.8359375,68.42041015625,-1.1373291015625,-0.68115234375,-0.3167724609375,78.0,179.0,-221.0,101268.0,0.46700000762939453,0,0
30.530995,0.3824462890625,0.24200439453125,0.83197021484375,-0.32080078125,-14.46533203125,11.71875,60.05859375,-1.0418701171875,-0.51123046875,-0.310791015625,78.0,179.0,-221.0,101268.0,0.46700000762939453,0,0
30.537995,0.3831787109375,0.24359130859375,0.83148193359375,-0.320037841796875,-14.0380859375,14.58740234375,63.53759765625,-1.00048828125,-0.5484619140625,-0.3765869140625,78.0,179.0,-221.0,101268.0,0.46700000762939453,0,0
30.544994,0.38421630859375,0.24835205078125,0.83056640625,-0.317474365234375,2.50244140625,27.9541015625,46.93603515625,-0.9068603515625,-0.28515625,-0.3150634765625,78.0,179.0,-221.0,101268.0,0.46700000762939453,0,0
30.551995,0.38427734375,0.249969482421875,0.8304443359375,-0.31646728515625,-5.43212890625,28.80859375,43.8232421875,-0.9085693359375,-0.2833251953125,-0.4351806640625,78.0,179.0,-221.0,101268.0,0.46700000762939453,0,0
30.558993,0.384246826171875,0.25146484375,0.8304443359375,-0.315338134765625,-4.33349609375,33.203125,33.26416015625,-0.970458984375,-0.1866455078125,-0.466064453125,78.0,179.0,-221.0,101268.0,0.46700000762939453,0,0
30.565993,0.384429931640625,0.25469970703125,0.83050537109375,-0.312347412109375,-13.85498046875,30.517578125,26.55029296875,-1.111328125,-0.3768310546875,-0.5030517578125,78.0,179.0,-221.0,101268.0,0.46700000762939453,0,0
30.572997,0.384857177734375,0.25555419921875,0.8304443359375,-0.311279296875,-11.962890625,34.24072265625,7.32421875,-1.2880859375,-0.0938720703125,-0.3939208984375,78.0,179.0,-221.0,101268.0,0.46700000762939453,0,0
30.579025,0.384857177734375,0.25555419921875,0.8304443359375,-0.311279296875,-11.962890625,34.24072265625,7.32421875,-1.2880859375,-0.0938720703125,-0.3939208984375,78.0,179.0,-221.0,101268.0,0.46700000762939453,0,0
30.585993,0.3870849609375,0.2552490234375,0.83087158203125,-0.30755615234375,-23.86474609375,24.47509765625,-22.0947265625,-1.3095703125,-0.089111328125,-0.297607421875,81.0,185.0,-257.0,101268.0,0.46700000762939453,0,0
30.592993,0.379364013671875,0.2760009765625,0.82452392578125,-0.3162841796875,-35.46142578125,33.3251953125,-21.3623046875,-1.222412109375,-0.171630859375,-0.345703125,81.0,185.0,-257.0,101268.0,0.46700000762939453,0,0
30.599993,0.3795166015625,0.273223876953125,0.826751708984375,-0.312591552734375,-38.87939453125,34.5458984375,-32.04345703125,-1.179443359375,-0.0517578125,-0.3359375,81.0,185.0,-257.0,101268.0,0.46700000762939453,0,0
30.606996,0.379241943359375,0.272003173828125,0.82769775390625,-0.3115234375,-44.98291015625,44.86083984375,-46.81396484375,-1.1351318359375,-0.1629638671875,-0.2882080078125,81.0,185.0,-257.0,101268.0,0.46700000762939453,0,0
30.613996,0.3787841796875,0.270538330078125,0.828826904296875,-0.31036376953125,-52.24609375,46.7529296875,-46.69189453125,-1.126220703125,-0.2635498046875,-0.3323974609375,81.0,185.0,-257.0,101268.0,0.4700000286102295,0,0
30.620995,0.376251220703125,0.26605224609375,0.83270263671875,-0.30694580078125,-51.1474609375,49.4384765625,-47.119140625,-1.0926513671875,-0.28076171875,-0.3477783203125,81.0,185.0,-257.0,101268.0,0.4700000286102295,0,0
30.627995,0.37493896484375,0.26470947265625,0.8341064453125,-0.305877685546875,-55.5419921875,62.255859375,-34.3017578125,-1.037109375,-0.5362548828125,-0.406005859375,81.0,185.0,-257.0,101268.0,0.4700000286102295,0,0
30.634994,0.372161865234375,0.262847900390625,0.8370361328125,-0.3028564453125,-54.6875,70.25146484375,-29.9072265625,-1.049560546875,-0.418701171875,-0.40625,81.0,185.0,-257.0,101268.0,0.4700000286102295,0,0
30.641995,0.369384765625,0.260894775390625,0.83984375,-0.300140380859375,-50.6591796875,63.17138671875,-25.32958984375,-1.0386962890625,-0.4866943359375,-0.5220947265625,81.0,185.0,-257.0,101268.0,0.4700000286102295,0,0
30.648993,0.36810302734375,0.260223388671875,0.841094970703125,-0.29876708984375,-47.91259765625,61.09619140625,-19.71435546875,-1.0233154296875,-0.440185546875,-0.5325927734375,81.0,185.0,-257.0,101268.0,0.4700000286102295,0,0
30.655993,0.365936279296875,0.259246826171875,0.8433837890625,-0.295867919921875,-42.96875,55.72509765625,-14.7705078125,-1.0147705078125,-0.369873046875,-0.5574951171875,81.0,185.0,-257.0,101268.0,0.4700000286102295,0,0
30.662997,0.364044189453125,0.25909423828125,0.845184326171875,-0.29315185546875,-30.57861328125,51.26953125,-7.14111328125,-1.099609375,-0.3193359375,-0.6397705078125,81.0,185.0,-257.0,101268.0,0.4700000286102295,0,0
30.669025,0.364044189453125,0.25909423828125,0.845184326171875,-0.29315185546875,-30.57861328125,51.26953125,-7.14111328125,-1.099609375,-0.3193359375,-0.6397705078125,81.0,185.0,-257.0,101268.0,0.4700000286102295,0,0
30.675993,0.362518310546875,0.259796142578125,0.84686279296875,-0.289581298828125,-18.85986328125,40.46630859375,-5.06591796875,-1.151123046875,-0.2080078125,-0.5986328125,81.0,185.0,-257.0,101268.0,0.4700000286102295,0,0
30.696997,0.35394287109375,0.280548095703125,0.842529296875,-0.29345703125,-4.150390625,43.15185546875,-14.34326171875,-1.029541015625,-0.075439453125,-0.5072021484375,84.0,193.0,-290.0,101268.0,0.4700000286102295,0,0
30.703996,0.352294921875,0.280792236328125,0.843475341796875,-0.29248046875,-4.45556640625,49.4384765625,-17.27294921875,-0.98046875,-0.2069091796875,-0.4847412109375,84.0,193.0,-290.0,101268.0,0.4700000286102295,0,0
30.710995,0.34979248046875,0.2806396484375,0.84490966796875,-0.291473388671875,-4.08935546875,52.734375,-21.66748046875,-0.9490966796875,-0.183837890625,-0.5069580078125,84.0,193.0,-290.0,101268.0,0.46800002455711365,0,0
30.717995,0.348175048828125,0.280364990234375,0.8458251953125,-0.291015625,-9.46044921875,58.16650390625,-26.0009765625,-0.892333984375,-0.3070068359375,-0.5545654296875,84.0,193.0,-290.0,101268.0,0.46800002455711365,0,0
30.724995,0.342437744140625,0.279052734375,0.84930419921875,-0.2889404296875,-17.51708984375,64.697265625,-29.96826171875,-0.8406982421875,-0.318603515625,-0.6011962890625,84.0,193.0,-290.0,101268.0,0.46800002455711365,0,0
30.731999,0.3402099609375,0.278533935546875,0.85064697265625,-0.288177490234375,-20.263671875,71.71630859375,-32.53173828125,-0.8016357421875,-0.356689453125,-0.6104736328125,84.0,193.0,-290.0,101268.0,0.46800002455711365,0,0
30.738998,0.337890625,0.2779541015625,0.852081298828125,-0.2872314453125,-21.54541015625,72.998046875,-35.2783203125,-0.7769775390625,-0.3154296875,-0.6478271484375,84.0,193.0,-290.0,101268.0,0.46800002455711365,0,0
30.745998,0.33123779296875,0.276031494140625,0.856414794921875,-0.283935546875,-24.71923828125,70.61767578125,-37.109375,-0.782958984375,-0.290283203125,-0.682861328125,84.0,193.0,-290.0,101268.0,0.46800002455711365,0,0
30.752997,0.329193115234375,0.275299072265625,0.8577880859375,-0.2828369140625,-23.86474609375,65.97900390625,-40.22216796875,-0.7999267578125,-0.253173828125,-0.6878662109375,84.0,193.0,-290.0,101268.0,0.46800002455711365,0,0
30.759997,0.327178955078125,0.274505615234375,0.859130859375,-0.281829833984375,-23.3154296875,64.697265625,-41.50390625,-0.809814453125,-0.2591552734375,-0.6885986328125,84.0,193.0,-290.0,101268.0,0.46800002455711365,0,0
30.766029,0.327178955078125,0.274505615234375,0.859130859375,-0.281829833984375,-23.3154296875,64.697265625,-41.50390625,-0.809814453125,-0.2591552734375,-0.6885986328125,84.0,193.0,-290.0,101268.0,0.46800002455711365,0,0
30.786997,0.31719970703125,0.266204833984375,0.86749267578125,-0.2755126953125,-23.4375,22.3388671875,-39.48974609375,-0.920166015625,-0.2940673828125,-0.7698974609375,84.0,200.0,-304.0,101268.0,0.46800002455711365,0,0
30.793996,0.3143310546875,0.27410888671875,0.865203857421875,-0.278289794921875,-25.2685546875,10.55908203125,-37.53662109375,-0.97119140625,-0.279541015625,-0.703369140625,84.0,200.0,-304.0,101268.0,0.46800002455711365,0,0
30.800995,0.315826416015625,0.270782470703125,0.866180419921875,-0.276824951171875,-24.5361328125,6.53076171875,-34.36279296875,-0.99853515625,-0.2906494140625,-0.68408203125,84.0,200.0,-304.0,101268.0,0.46800002455711365,0,0
30.807995,0.316650390625,0.269744873046875,0.866302490234375,-0.2764892578125,-26.55029296875,-5.126953125,-24.84130859375,-1.0140380859375,-0.3118896484375,-0.61572265625,84.0,200.0,-304.0,101268.0,0.46800002455711365,0,0
30.814994,0.317169189453125,0.26873779296875,0.866485595703125,-0.276336669921875,-34.3017578125,-7.01904296875,-9.82666015625,-1.0198974609375,-0.640380859375,-0.75390625,84.0,200.0,-304.0,101268.0,0.4700000286102295,0,0
30.821995,0.320648193359375,0.266998291015625,0.866058349609375,-0.27532958984375,-16.7236328125,-15.93017578125,-16.78466796875,-0.9508056640625,-0.218994140625,-0.5233154296875,84.0,200.0,-304.0,101268.0,0.4700000286102295,0,0
30.828994,0.321624755859375,0.266265869140625,0.86590576171875,-0.275390625,-20.93505859375,-6.89697265625,-11.16943359375,-0.928466796875,-0.37890625,-0.438232421875,84.0,200.0,-304.0,101268.0,0.4700000286102295,0,0
30.835993,0.322998046875,0.26544189453125,0.86590576171875,-0.274505615234375,-18.73779296875,-2.3193359375,-4.150390625,-0.9349365234375,-0.3895263671875,-0.515380859375,84.0,200.0,-304.0,101268.0,0.4700000286102295,0,0
30.842997,0.3243408203125,0.265106201171875,0.865478515625,-0.27459716796875,11.90185546875,5.2490234375,-14.95361328125,-0.901611328125,-0.23681640625,-0.4564208984375,84.0,200.0,-304.0,101268.0,0.4700000286102295,0,0
30.849996,0.324371337890625,0.264984130859375,0.86529541015625,-0.275299072265625,3.0517578125,5.31005859375,1.5869140625,-0.95947265625,-0.5682373046875,-0.640380859375,84.0,200.0,-304.0,101268.0,0.4700000286102295,0,0
30.856029,0.324371337890625,0.264984130859375,0.86529541015625,-0.275299072265625,3.0517578125,5.31005859375,1.5869140625,-0.95947265625,-0.5682373046875,-0.640380859375,84.0,200.0,-304.0,101268.0,0.4700000286102295,0,0
30.862993,0.324676513671875,0.26434326171875,0.86505126953125,-0.276336669921875,-22.27783203125,6.77490234375,18.73779296875,-0.9794921875,-0.967529296875,-0.802490234375,84.0,200.0,-304.0,101268.0,0.4700000286102295,0,0
30.869997,0.324920654296875,0.2645263671875,0.864990234375,-0.27606201171875,-4.150390625,17.27294921875,-2.50244140625,-0.9339599609375,-0.1973876953125,-0.5111083984375,84.0,200.0,-304.0,101268.0,0.4700000286102295,0,0
30.876996,0.323394775390625,0.263275146484375,0.8656005859375,-0.277069091796875,-2.685546875,22.64404296875,-10.07080078125,-0.8497314453125,-0.7882080078125,-0.647216796875,84.0,200.0,-304.0,101268.0,0.4700000286102295,0,0
30.883996,0.322479248046875,0.263275146484375,0.866058349609375,-0.276702880859375,-5.0048828125,30.3955078125,-13.00048828125,-0.9534912109375,-0.283203125,-0.5418701171875,84.0,200.0,-304.0,101268.0,0.4700000286102295,0,0
30.890995,0.319976806640625,0.265472412109375,0.8660888671875,-0.277435302734375,-8.48388671875,43.02978515625,-14.7705078125,-0.9432373046875,-0.376220703125,-0.4635009765625,78.0,205.0,-306.0,101268.0,0.4700000286102295,0,0
30.897995,0.318817138671875,0.26531982421875,0.866668701171875,-0.277130126953125,-11.65771484375,52.3681640625,-16.17431640625,-0.8865966796875,-0.375244140625,-0.5308837890625,78.0,205.0,-306.0,101268.0,0.4700000286102295,0,0
30.904994,0.31549072265625,0.264984130859375,0.868438720703125,-0.275634765625,-20.6298828125,67.44384765625,-17.88330078125,-0.753662109375,-0.3348388671875,-0.599365234375,78.0,205.0,-306.0,101268.0,0.4700000286102295,0,0
30.911995,0.31170654296875,0.264556884765625,0.870574951171875,-0.273651123046875,-18.9208984375,65.185546875,-17.08984375,-0.7420654296875,-0.3472900390625,-0.6690673828125,78.0,205.0,-306.0,101268.0,0.47300001978874207,0,0
30.918994,0.30950927734375,0.264129638671875,0.871795654296875,-0.27264404296875,-24.658203125,75.98876953125,-28.13720703125,-0.7119140625,-0.3182373046875,-0.585205078125,78.0,205.0,-306.0,101268.0,0.47300001978874207,0,0
30.925993,0.302001953125,0.26251220703125,0.87603759765625,-0.269073486328125,-22.76611328125,75.62255859375,-33.5693359375,-0.6697998046875,-0.3531494140625,-0.7677001953125,78.0,205.0,-306.0,101268.0,0.47300001978874207,0,0
30.932997,0.299896240234375,0.261810302734375,0.877593994140625,-0.267059326171875,-28.564453125,74.03564453125,-50.6591796875,-0.75390625,0.0428466796875,-0.8099365234375,78.0,205.0,-306.0,101268.0,0.47300001978874207,0,0
30.939996,0.297149658203125,0.26080322265625,0.879486083984375,-0.264801025390625,-33.0810546875,65.49072265625,-54.26025390625,-0.63671875,-0.076416015625,-1.1636962890625,78.0,205.0,-306.0,101268.0,0.47300001978874207,0,0
30.959997,0.290802001953125,0.25140380859375,0.88568115234375,-0.260284423828125,-33.447265625,15.2587890625,-37.9638671875,-0.8026123046875,-0.57373046875,-0.7125244140625,78.0,205.0,-306.0,101268.0,0.47300001978874207,0,0
30.966996,0.2879638671875,0.2481689453125,0.887725830078125,-0.259552001953125,-21.8505859375,44.921875,-36.4990234375,-0.793701171875,-0.4132080078125,-0.548095703125,78.0,205.0,-306.0,101268.0,0.47300001978874207,0,0
30.973996,0.286895751953125,0.247589111328125,0.888336181640625,-0.25921630859375,-27.77099609375,49.072265625,-16.2353515625,-0.8450927734375,-0.5653076171875,-0.5880126953125,78.0,205.0,-306.0,101268.0,0.47300001978874207,0,0
30.980995,0.283599853515625,0.247772216796875,0.890045166015625,-0.256805419921875,-27.7099609375,58.65478515625,-7.6904296875,-0.8599853515625,-0.4766845703125,-0.4786376953125,78.0,205.0,-306.0,101268.0,0.47300001978874207,0,0
30.987995,0.282440185546875,0.247894287109375,0.890777587890625,-0.25543212890625,-28.564453125,60.4248046875,1.40380859375,-0.7945556640625,-0.4002685546875,-0.623046875,71.0,211.0,-306.0,101268.0,0.47300001978874207,0,0
30.994995,0.280517578125,0.249755859375,0.89093017578125,-0.25518798828125,-23.86474609375,55.6640625,-2.50244140625,-0.7296142578125,-0.439453125,-0.6793212890625,71.0,211.0,-306.0,101268.0,0.47300001978874207,0,0
31.001999,0.275299072265625,0.251129150390625,0.892547607421875,-0.25390625,-20.8740234375,58.2275390625,6.65283203125,-0.723388671875,-0.6094970703125,-0.677490234375,71.0,211.0,-306.0,101268.0,0.47300001978874207,0,0
31.008998,0.2734375,0.25201416015625,0.893035888671875,-0.2532958984375,-11.77978515625,73.3642578125,16.845703125,-0.7210693359375,-0.4976806640625,-0.6385498046875,71.0,211.0,-306.0,101268.0,0.47300001978874207,0,0
31.015998,0.271392822265625,0.252899169921875,0.89361572265625,-0.252471923828125,-7.01904296875,84.1064453125,6.9580078125,-0.678466796875,-0.279541015625,-0.52197265625,71.0,211.0,-306.0,101268.0,0.47300001978874207,0,0
31.022997,0.2642822265625,0.25592041015625,0.895721435546875,-0.249603271484375,-10.80322265625,94.8486328125,14.16015625,-0.715087890625,-0.370361328125,-0.6761474609375,71.0,211.0,-306.0,101268.0,0.47300001978874207,0,0
31.029997,0.26165771484375,0.257080078125,0.896484375,-0.2484130859375,-12.02392578125,95.5810546875,15.380859375,-0.6571044921875,-0.361083984375,-0.7186279296875,71.0,211.0,-306.0,101268.0,0.47300001978874207,0,0
31.049997,0.24835205078125,0.260833740234375,0.90118408203125,-0.24102783203125,-8.97216796875,80.9326171875,-9.82666015625,-0.621337890625,-0.22412109375,-0.766845703125,71.0,211.0,-306.0,101268.0,0.47300001978874207,0,0
31.056997,0.24395751953125,0.261444091796875,0.90283203125,-0.23870849609375,-11.53564453125,78.79638671875,-10.009765625,-0.609375,-0.2188720703125,-0.7451171875,71.0,211.0,-306.0,101268.0,0.47300001978874207,0,0
31.063996,0.239654541015625,0.2620849609375,0.90423583984375,-0.236968994140625,-10.009765625,73.42529296875,-5.126953125,-0.636474609375,-0.3135986328125,-0.742919921875,71.0,211.0,-306.0,101268.0,0.47300001978874207,0,0
31.070995,0.23785400390625,0.262481689453125,0.9049072265625,-0.23590087890625,-13.671875,69.3359375,-4.39453125,-0.6656494140625,-0.2716064453125,-0.776611328125,71.0,211.0,-306.0,101268.0,0.47300001978874207,0,0
31.077995,0.234710693359375,0.263031005859375,0.906036376953125,-0.234100341796875,-15.44189453125,65.36865234375,-4.150390625,-0.6744384765625,-0.3302001953125,-0.7049560546875,71.0,211.0,-306.0,101268.0,0.47300001978874207,0,0
31.084995,0.23114013671875,0.263519287109375,0.9072265625,-0.232421875,-10.986328125,65.673828125,-7.38525390625,-0.592529296875,-0.29541015625,-0.7396240234375,66.0,217.0,-300.0,101268.0,0.47300001978874207,0,0
31.091995,0.226318359375,0.266448974609375,0.90789794921875,-0.231201171875,-12.5732421875,68.2373046875,-7.50732421875,-0.5445556640625,-0.30810546875,-0.7244873046875,66.0,217.0,-300.0,101268.0,0.47300001978874207,0,0
31.098993,0.22393798828125,0.266845703125,0.908599853515625,-0.23028564453125,-11.90185546875,66.10107421875,1.64794921875,-0.4227294921875,-0.3748779296875,-0.8446044921875,66.0,217.0,-300.0,101268.0,0.47300001978874207,0,0
31.105993,0.219879150390625,0.26806640625,0.909698486328125,-0.228485107421875,-8.11767578125,56.884765625,9.82666015625,-0.4654541015625,-0.3385009765625,-0.8231201171875,66.0,217.0,-300.0,101268.0,0.47300001978874207,0,0
31.112997,0.21685791015625,0.269256591796875,0.91046142578125,-0.226959228515625,-8.60595703125,49.37744140625,13.3056640625,-0.493896484375,-0.3858642578125,-0.7933349609375,66.0,217.0,-300.0,101267.0,0.48100003600120544,0,0
31.119996,0.21514892578125,0.269561767578125,0.9110107421875,-0.225982666015625,-14.892578125,59.26513671875,-0.9765625,-0.4761962890625,-0.2811279296875,-0.71533203125,66.0,217.0,-300.0,101267.0,0.48100003600120544,0,0
31.126996,0.210784912109375,0.27020263671875,0.91229248046875,-0.224090576171875,-12.63427734375,53.955078125,-1.64794921875,-0.5523681640625,-0.3525390625,-0.6942138671875,66.0,217.0,-300.0,101267.0,0.48100003600120544,0,0
31.133995,0.2095947265625,0.2703857421875,0.9127197265625,-0.22332763671875,-16.54052734375,44.12841796875,0.732421875,-0.560302734375,-0.3646240234375,-0.8291015625,66.0,217.0,-300.0,101267.0,0.48100003600120544,0,0
31.140028,0.2095947265625,0.2703857421875,0.9127197265625,-0.22332763671875,-16.54052734375,44.12841796875,0.732421875,-0.560302734375,-0.3646240234375,-0.8291015625,66.0,217.0,-300.0,101267.0,0.48100003600120544,0,0
31.146996,0.205657958984375,0.27252197265625,0.91357421875,-0.220855712890625,-17.15087890625,45.34912109375,12.6953125,-0.5633544921875,-0.3421630859375,-0.6435546875,66.0,217.0,-300.0,101267.0,0.48100003600120544,0,0
31.153996,0.204681396484375,0.273162841796875,0.913848876953125,-0.2198486328125,-18.73779296875,50.29296875,12.02392578125,-0.568115234375,-0.2725830078125,-0.685302734375,66.0,217.0,-300.0,101267.0,0.48100003600120544,0,0
31.160995,0.203582763671875,0.2738037109375,0.91412353515625,-0.21881103515625,-22.3388671875,55.908203125,12.451171875,-0.5916748046875,-0.31396484375,-0.66650390625,66.0,217.0,-300.0,101267.0,0.48100003600120544,0,0
31.167995,0.20001220703125,0.2763671875,0.914794921875,-0.216064453125,-18.73779296875,58.41064453125,20.08056640625,-0.6041259765625,-0.3975830078125,-0.733642578125,66.0,217.0,-300.0,101267.0,0.48100003600120544,0,0
31.174994,0.198974609375,0.277252197265625,0.914947509765625,-0.21527099609375,-10.19287109375,50.47607421875,17.2119140625,-0.5963134765625,-0.289306640625,-0.7716064453125,66.0,217.0,-300.0,101267.0,0.48100003600120544,0,0
31.181995,0.19561767578125,0.279937744140625,0.9156494140625,-0.211944580078125,-20.751953125,50.23193359375,21.42333984375,-0.60205078125,-0.423095703125,-0.77001953125,66.0,217.0,-300.0,101267.0,0.48100003600120544,0,0
31.188993,0.194305419921875,0.280609130859375,0.916015625,-0.210662841796875,-25.32958984375,53.03955078125,15.380859375,-0.47021484375,-0.300048828125,-0.7752685546875,61.0,221.0,-291.0,101267.0,0.48100003600120544,0,0
31.195993,0.1934814453125,0.279693603515625,0.916839599609375,-0.2091064453125,-18.798828125,47.30224609375,-1.8310546875,-0.47900390625,-0.1453857421875,-0.760009765625,61.0,221.0,-291.0,101267.0,0.48100003600120544,0,0
31.202997,0.189727783203125,0.279998779296875,0.91778564453125,-0.20794677734375,-2.74658203125,53.955078125,-6.89697265625,-0.6085205078125,-0.295654296875,-0.8702392578125,61.0,221.0,-291.0,101267.0,0.48100003600120544,0,0
31.223995,0.18426513671875,0.280487060546875,0.919219970703125,-0.20587158203125,-19.83642578125,58.349609375,4.2724609375,-0.6251220703125,-0.304931640625,-0.77587890625,61.0,221.0,-291.0,101267.0,0.48100003600120544,0,0
31.230028,0.18426513671875,0.280487060546875,0.919219970703125,-0.20587158203125,-19.83642578125,58.349609375,4.2724609375,-0.6251220703125,-0.304931640625,-0.77587890625,61.0,221.0,-291.0,101267.0,0.48100003600120544,0,0
31.236996,0.181304931640625,0.281646728515625,0.9202880859375,-0.202056884765625,-21.8505859375,54.50439453125,1.8310546875,-0.5887451171875,-0.2041015625,-0.755126953125,61.0,221.0,-291.0,101267.0,0.48100003600120544,0,0
31.243996,0.179443359375,0.282073974609375,0.921112060546875,-0.199432373046875,-21.240234375,41.9921875,-3.90625,-0.47119140625,-0.15771484375,-0.797119140625,61.0,221.0,-291.0,101267.0,0.48100003600120544,0,0
31.250995,0.178497314453125,0.282012939453125,0.921539306640625,-0.198272705078125,-24.71923828125,40.10009765625,-5.4931640625,-0.454833984375,-0.2373046875,-0.7825927734375,61.0,221.0,-291.0,101267.0,0.48100003600120544,0,0
31.257995,0.175994873046875,0.282196044921875,0.922454833984375,-0.196044921875,-20.08056640625,47.36328125,-3.60107421875,-0.4307861328125,-0.2340087890625,-0.7313232421875,61.0,221.0,-291.0,101267.0,0.48100003600120544,0,0
31.264994,0.173095703125,0.28240966796875,0.9234619140625,-0.19354248046875,-20.3857421875,50.4150390625,-2.50244140625,-0.318359375,-0.201904296875,-0.7403564453125,61.0,221.0,-291.0,101267.0,0.48100003600120544,0,0
31.271995,0.171417236328125,0.282684326171875,0.923980712890625,-0.19219970703125,-26.67236328125,51.20849609375,5.18798828125,-0.2740478515625,-0.2757568359375,-0.7957763671875,61.0,221.0,-291.0,101267.0,0.48100003600120544,0,0
31.278993,0.16839599609375,0.283538818359375,0.9249267578125,-0.189056396484375,-29.47998046875,46.44775390625,10.498046875,-0.23095703125,-0.2049560546875,-0.7635498046875,61.0,221.0,-291.0,101267.0,0.48100003600120544,0,0
31.285993,0.165679931640625,0.2847900390625,0.925750732421875,-0.185455322265625,-38.39111328125,43.9453125,19.83642578125,-0.22900390625,-0.21875,-0.767578125,55.0,226.0,-280.0,101267.0,0.48100003600120544,0,0
31.306996,0.16278076171875,0.2900390625,0.926727294921875,-0.17474365234375,-40.6494140625,31.43310546875,31.73828125,-0.49755859375,-0.233154296875,-0.8690185546875,55.0,226.0,-280.0,101267.0,0.48100003600120544,0,0
31.313995,0.162689208984375,0.29107666015625,0.926727294921875,-0.173004150390625,-38.63525390625,30.45654296875,32.28759765625,-0.5035400390625,-0.1998291015625,-0.8297119140625,55.0,226.0,-280.0,101267.0,0.48100003600120544,0,0
31.320995,0.16253662109375,0.2921142578125,0.926727294921875,-0.17138671875,-33.203125,30.45654296875,30.57861328125,-0.4498291015625,-0.1478271484375,-0.7904052734375,55.0,226.0,-280.0,101267.0,0.48100003600120544,0,0
31.327027,0.16253662109375,0.2921142578125,0.926727294921875,-0.17138671875,-33.203125,30.45654296875,30.57861328125,-0.4498291015625,-0.1478271484375,-0.7904052734375,55.0,226.0,-280.0,101267.0,0.48100003600120544,0,0
31.333996,0.160858154296875,0.296630859375,0.92681884765625,-0.16455078125,-37.04833984375,37.353515625,37.53662109375,-0.34765625,-0.1614990234375,-0.76171875,55.0,226.0,-280.0,101267.0,0.48100003600120544,0,0
31.340995,0.160186767578125,0.297943115234375,0.9268798828125,-0.162567138671875,-37.59765625,40.283203125,38.818359375,-0.3255615234375,-0.1273193359375,-0.7633056640625,55.0,226.0,-280.0,101267.0,0.48100003600120544,0,0
31.347995,0.15740966796875,0.30206298828125,0.927093505859375,-0.15625,-38.4521484375,47.30224609375,39.97802734375,-0.2860107421875,-0.115234375,-0.7291259765625,55.0,226.0,-280.0,101267.0,0.48100003600120544,0,0
31.354995,0.15631103515625,0.3035888671875,0.927154541015625,-0.154022216796875,-39.24560546875,52.18505859375,43.39599609375,-0.2694091796875,-0.1011962890625,-0.743896484375,55.0,226.0,-280.0,101267.0,0.48100003600120544,0,0
31.361999,0.15509033203125,0.30511474609375,0.92724609375,-0.151763916015625,-38.39111328125,54.62646484375,44.0673828125,-0.26025390625,-0.1048583984375,-0.7421875,55.0,226.0,-280.0,101265.0,0.4960000216960907,0,0
31.368998,0.15081787109375,0.31005859375,0.927337646484375,-0.145416259765625,-38.9404296875,58.04443359375,48.33984375,-0.248046875,-0.1903076171875,-0.7916259765625,55.0,226.0,-280.0,101265.0,0.4960000216960907,0,0
31.375998,0.149444580078125,0.311920166015625,0.927276611328125,-0.143218994140625,-42.05322265625,57.861328125,56.2744140625,-0.259765625,-0.2088623046875,-0.841796875,55.0,226.0,-280.0,101265.0,0.4960000216960907,0,0
31.382997,0.145355224609375,0.317718505859375,0.926910400390625,-0.13677978515625,-41.68701171875,56.70166015625,58.16650390625,-0.2669677734375,-0.188720703125,-0.851806640625,55.0,226.0,-280.0,101265.0,0.4960000216960907,0,0
31.389996,0.14398193359375,0.319732666015625,0.9267578125,-0.134674072265625,-41.80908203125,55.48095703125,62.1337890625,-0.2454833984375,-0.251220703125,-0.887939453125,50.0,230.0,-261.0,101265.0,0.4960000216960907,0,0
31.396996,0.143035888671875,0.318756103515625,0.9276123046875,-0.132049560546875,-41.80908203125,55.23681640625,61.58447265625,-0.24267578125,-0.2196044921875,-0.8828125,50.0,230.0,-261.0,101265.0,0.4960000216960907,0,0
31.403995,0.138946533203125,0.324493408203125,0.927093505859375,-0.125946044921875,-39.85595703125,49.6826171875,58.7158203125,-0.2001953125,-0.236083984375,-0.9075927734375,50.0,230.0,-261.0,101265.0,0.4960000216960907,0,0
31.410995,0.137664794921875,0.326324462890625,0.926910400390625,-0.1240234375,-39.1845703125,47.30224609375,57.43408203125,-0.1993408203125,-0.2335205078125,-0.9085693359375,50.0,230.0,-261.0,101265.0,0.4960000216960907,0,0
31.417027,0.137664794921875,0.326324462890625,0.926910400390625,-0.1240234375,-39.1845703125,47.30224609375,57.43408203125,-0.1993408203125,-0.2335205078125,-0.9085693359375,50.0,230.0,-261.0,101265.0,0.4960000216960907,0,0
31.423996,0.133453369140625,0.33343505859375,0.925994873046875,-0.116119384765625,-41.9921875,42.05322265625,55.48095703125,-0.24365234375,-0.1622314453125,-0.9033203125,50.0,230.0,-261.0,101265.0,0.4960000216960907,0,0
31.430995,0.132781982421875,0.335113525390625,0.925750732421875,-0.113983154296875,-43.5791015625,39.48974609375,53.7109375,-0.2598876953125,-0.1273193359375,-0.901123046875,50.0,230.0,-261.0,101265.0,0.4960000216960907,0,0
31.437995,0.131683349609375,0.3385009765625,0.925201416015625,-0.109649658203125,-44.7998046875,37.90283203125,54.01611328125,-0.2691650390625,-0.1181640625,-0.884765625,50.0,230.0,-261.0,101265.0,0.4960000216960907,0,0
31.444994,0.130767822265625,0.342041015625,0.924591064453125,-0.10498046875,-49.4384765625,37.78076171875,57.31201171875,-0.263671875,-0.0770263671875,-0.8421630859375,50.0,230.0,-261.0,101265.0,0.4960000216960907,0,0
31.451995,0.13037109375,0.343780517578125,0.92425537109375,-0.10260009765625,-49.4384765625,36.92626953125,56.396484375,-0.2691650390625,-0.0606689453125,-0.8416748046875,50.0,230.0,-261.0,101265.0,0.4960000216960907,0,0
31.458994,0.129730224609375,0.34710693359375,0.923583984375,-0.09808349609375,-48.583984375,34.1796875,54.0771484375,-0.308837890625,-0.0928955078125,-0.8883056640625,50.0,230.0,-261.0,101265.0,0.4960000216960907,0,0
31.465993,0.129302978515625,0.350250244140625,0.92291259765625,-0.093841552734375,-48.03466796875,31.6162109375,51.94091796875,-0.30078125,-0.0927734375,-0.886962890625,50.0,230.0,-261.0,101265.0,0.4960000216960907,0,0
31.486996,0.12640380859375,0.358062744140625,0.921295166015625,-0.083465576171875,-50.29296875,35.0341796875,55.419921875,-0.1549072265625,-0.1768798828125,-0.884765625,45.0,231.0,-236.0,101265.0,0.4960000216960907,0,0
31.493995,0.1256103515625,0.350067138671875,0.92498779296875,-0.077667236328125,-51.57470703125,35.15625,56.15234375,-0.13525390625,-0.1878662109375,-0.904052734375,45.0,231.0,-236.0,101265.0,0.4960000216960907,0,0
31.500995,0.124114990234375,0.351715087890625,0.92474365234375,-0.075408935546875,-48.33984375,45.95947265625,54.6875,-0.023193359375,-0.166259765625,-0.865966796875,45.0,231.0,-236.0,101265.0,0.4960000216960907,0,0
31.507994,0.12127685546875,0.356536865234375,0.92376708984375,-0.069091796875,-54.3212890625,33.935546875,54.6875,-0.1624755859375,-0.15478515625,-0.9329833984375,45.0,231.0,-236.0,101265.0,0.4960000216960907,0,0
31.514027,0.12127685546875,0.356536865234375,0.92376708984375,-0.069091796875,-54.3212890625,33.935546875,54.6875,-0.1624755859375,-0.15478515625,-0.9329833984375,45.0,231.0,-236.0,101265.0,0.4960000216960907,0,0
31.520995,0.119873046875,0.3594970703125,0.923126220703125,-0.0648193359375,-55.23681640625,33.50830078125,50.9033203125,-0.2037353515625,-0.18115234375,-1.021484375,45.0,231.0,-236.0,101265.0,0.4960000216960907,0,0
31.527995,0.1181640625,0.3634033203125,0.922210693359375,-0.05865478515625,-55.96923828125,31.982421875,47.30224609375,-0.195068359375,-0.170654296875,-0.9691162109375,45.0,231.0,-236.0,101265.0,0.4960000216960907,0,0
31.534994,0.11773681640625,0.364532470703125,0.92193603515625,-0.05670166015625,-54.19921875,28.74755859375,41.9921875,-0.20947265625,-0.1502685546875,-0.964111328125,45.0,231.0,-236.0,101265.0,0.4960000216960907,0,0
31.541995,0.117340087890625,0.36566162109375,0.921661376953125,-0.05474853515625,-55.84716796875,26.55029296875,42.05322265625,-0.2010498046875,-0.173583984375,-0.9705810546875,45.0,231.0,-236.0,101265.0,0.4960000216960907,0,0
31.548994,0.116119384765625,0.368621826171875,0.92095947265625,-0.04925537109375,-53.7109375,26.123046875,37.78076171875,-0.1953125,-0.1654052734375,-0.969482421875,45.0,231.0,-236.0,101265.0,0.4960000216960907,0,0
31.569996,0.1138916015625,0.37213134765625,0.920257568359375,-0.040008544921875,-54.5654296875,23.8037109375,24.84130859375,-0.1519775390625,-0.087158203125,-0.8836669921875,45.0,231.0,-236.0,101264.0,0.5049999952316284,0,0
31.576996,0.1136474609375,0.372650146484375,0.920166015625,-0.037994384765625,-54.6875,23.37646484375,21.78955078125,-0.1600341796875,-0.06005859375,-0.8807373046875,45.0,231.0,-236.0,101264.0,0.5049999952316284,0,0
31.583995,0.11285400390625,0.373687744140625,0.92010498046875,-0.03155517578125,-53.77197265625,23.5595703125,18.49365234375,-0.1475830078125,-0.0157470703125,-0.873291015625,45.0,231.0,-236.0,101264.0,0.5049999952316284,0,0
31.590995,0.11260986328125,0.3739013671875,0.92010498046875,-0.029327392578125,-53.52783203125,25.146484375,12.02392578125,-0.130859375,0.04931640625,-0.836181640625,43.0,230.0,-209.0,101264.0,0.5049999952316284,0,0
31.597995,0.113037109375,0.35223388671875,0.9287109375,-0.0244140625,-54.01611328125,24.10888671875,10.8642578125,-0.142333984375,0.058837890625,-0.8448486328125,43.0,230.0,-209.0,101264.0,0.5049999952316284,0,0
31.604027,0.113037109375,0.35223388671875,0.9287109375,-0.0244140625,-54.01611328125,24.10888671875,10.8642578125,-0.142333984375,0.058837890625,-0.8448486328125,43.0,230.0,-209.0,101264.0,0.5049999952316284,0,0
31.610995,0.1126708984375,0.352569580078125,0.9288330078125,-0.015533447265625,-56.57958984375,24.23095703125,6.53076171875,-0.1600341796875,0.0565185546875,-0.8902587890625,43.0,230.0,-209.0,101264.0,0.5049999952316284,0,0
31.617995,0.112396240234375,0.352630615234375,0.928863525390625,-0.01336669921875,-57.373046875,23.37646484375,8.30078125,-0.136474609375,0.01611328125,-0.931640625,43.0,230.0,-209.0,101264.0,0.5049999952316284,0,0
31.624995,0.111297607421875,0.352752685546875,0.929046630859375,-0.00653076171875,-58.77685546875,23.4375,7.14111328125,-0.0494384765625,0.035400390625,-0.902587890625,43.0,230.0,-209.0,101264.0,0.5049999952316284,0,0
31.631999,0.110748291015625,0.352813720703125,0.9290771484375,-0.004241943359375,-58.2275390625,25.45166015625,8.48388671875,-0.0426025390625,0.0238037109375,-0.91552734375,43.0,230.0,-209.0,101264.0,0.5049999952316284,0,0
31.638998,0.109344482421875,0.35296630859375,0.92919921875,0.000152587890625,-58.59375,26.55029296875,8.4228515625,-0.0341796875,0.0159912109375,-0.9312744140625,43.0,230.0,-209.0,101264.0,0.5049999952316284,0,0
31.645998,0.10760498046875,0.353240966796875,0.929290771484375,0.004058837890625,-56.640625,27.9541015625,11.16943359375,-0.0206298828125,-0.0989990234375,-1.027099609375,43.0,230.0,-209.0,101264.0,0.5049999952316284,0,0
31.652997,0.106658935546875,0.3533935546875,0.9293212890625,0.00592041015625,-56.21337890625,28.80859375,12.14599609375,-0.03271484375,-0.1031494140625,-1.0301513671875,43.0,230.0,-209.0,101264.0,0.5049999952316284,0,0
31.659997,0.104736328125,0.353790283203125,0.929351806640625,0.009552001953125,-53.7109375,33.63037109375,12.75634765625,-0.061767578125,-0.0921630859375,-1.0130615234375,43.0,230.0,-209.0,101264.0,0.5049999952316284,0,0
31.666996,0.102691650390625,0.35430908203125,0.929351806640625,0.013092041015625,-52.06298828125,35.64453125,14.46533203125,-0.0615234375,-0.078369140625,-0.9996337890625,43.0,230.0,-209.0,101264.0,0.503000020980835,0,0
31.673995,0.100433349609375,0.355010986328125,0.929290771484375,0.0167236328125,-48.88916015625,36.376953125,16.4794921875,-0.0565185546875,-0.07177734375,-1.0057373046875,43.0,230.0,-209.0,101264.0,0.503000020980835,0,0
31.680995,0.09912109375,0.355377197265625,0.929229736328125,0.018646240234375,-46.69189453125,40.771484375,17.02880859375,-0.0098876953125,-0.0234375,-0.9580078125,43.0,230.0,-209.0,101264.0,0.503000020980835,0,0
31.687994,0.096221923828125,0.356109619140625,0.92919921875,0.022247314453125,-42.236328125,44.12841796875,16.357421875,-0.005859375,-0.0264892578125,-0.966796875,41.0,227.0,-184.0,101264.0,0.503000020980835,0,0
31.694995,0.092620849609375,0.332122802734375,0.938232421875,0.027740478515625,-38.2080078125,44.00634765625,16.17431640625,-0.03759765625,-0.020263671875,-0.9921875,41.0,227.0,-184.0,101264.0,0.503000020980835,0,0
31.701026,0.092620849609375,0.332122802734375,0.938232421875,0.027740478515625,-38.2080078125,44.00634765625,16.17431640625,-0.03759765625,-0.020263671875,-0.9921875,41.0,227.0,-184.0,101264.0,0.503000020980835,0,0
31.707995,0.087982177734375,0.333221435546875,0.938201904296875,0.030975341796875,-24.71923828125,42.54150390625,12.63427734375,-0.023193359375,-0.028564453125,-1.0379638671875,41.0,227.0,-184.0,101264.0,0.503000020980835,0,0
31.714994,0.084259033203125,0.333465576171875,0.938385009765625,0.03289794921875,-22.39990234375,43.9453125,8.36181640625,0.01611328125,-0.0262451171875,-1.041259765625,41.0,227.0,-184.0,101264.0,0.503000020980835,0,0
31.721995,0.082244873046875,0.333465576171875,0.93853759765625,0.033660888671875,-16.54052734375,45.166015625,2.197265625,0.0474853515625,-0.0494384765625,-1.0621337890625,41.0,227.0,-184.0,101264.0,0.503000020980835,0,0
31.742997,0.072784423828125,0.33349609375,0.939239501953125,0.036041259765625,-11.29150390625,41.3818359375,4.94384765625,-0.00634765625,-0.0924072265625,-1.0562744140625,41.0,227.0,-184.0,101264.0,0.503000020980835,0,0
31.749996,0.06768798828125,0.33416748046875,0.9393310546875,0.037261962890625,-10.8642578125,42.78564453125,11.5966796875,-0.063720703125,-0.050048828125,-1.0628662109375,41.0,227.0,-184.0,101264.0,0.503000020980835,0,0
31.756996,0.066192626953125,0.33453369140625,0.93927001953125,0.037811279296875,-11.962890625,42.41943359375,13.916015625,-0.0775146484375,-0.02783203125,-1.0206298828125,41.0,227.0,-184.0,101264.0,0.503000020980835,0,0
31.763995,0.06488037109375,0.334930419921875,0.939208984375,0.038330078125,-10.498046875,39.00146484375,15.2587890625,-0.083251953125,0.0068359375,-1.03466796875,41.0,227.0,-184.0,101263.0,0.5100000500679016,0,0
31.770995,0.061767578125,0.3360595703125,0.938934326171875,0.040069580078125,-9.21630859375,31.73828125,12.75634765625,-0.106201171875,0.082763671875,-0.977783203125,41.0,227.0,-184.0,101263.0,0.5100000500679016,0,0
31.777994,0.060943603515625,0.336395263671875,0.9388427734375,0.04058837890625,-8.11767578125,28.076171875,12.63427734375,-0.0989990234375,0.082763671875,-0.9752197265625,41.0,227.0,-184.0,101263.0,0.5100000500679016,0,0
31.784995,0.05926513671875,0.337249755859375,0.9385986328125,0.0421142578125,-6.89697265625,25.390625,11.16943359375,-0.0999755859375,0.11328125,-0.95556640625,41.0,227.0,-184.0,101263.0,0.5100000500679016,0,0
31.791026,0.05926513671875,0.337249755859375,0.9385986328125,0.0421142578125,-6.89697265625,25.390625,11.16943359375,-0.0999755859375,0.11328125,-0.95556640625,41.0,227.0,-184.0,101263.0,0.5100000500679016,0,0
31.797995,0.058135986328125,0.330413818359375,0.941009521484375,0.04345703125,-5.7373046875,18.798828125,11.3525390625,-0.1343994140625,0.1170654296875,-0.9136962890625,38.0,218.0,-159.0,101263.0,0.5100000500679016,0,0
31.804994,0.0562744140625,0.33160400390625,0.940673828125,0.044219970703125,-5.126953125,18.310546875,13.24462890625,-0.1248779296875,0.0870361328125,-0.9354248046875,38.0,218.0,-159.0,101263.0,0.5100000500679016,0,0
31.811995,0.055206298828125,0.331878662109375,0.940643310546875,0.04449462890625,0.732421875,21.6064453125,8.97216796875,0.02978515625,0.0921630859375,-1.001953125,38.0,218.0,-159.0,101263.0,0.5100000500679016,0,0
31.832997,0.046539306640625,0.3330078125,0.940704345703125,0.0443115234375,13.97705078125,29.47998046875,3.47900390625,0.220703125,-0.013671875,-0.984130859375,38.0,218.0,-159.0,101263.0,0.5100000500679016,0,0
31.839996,0.042724609375,0.3331298828125,0.94085693359375,0.0438232421875,14.5263671875,29.78515625,2.38037109375,0.1990966796875,-0.0208740234375,-1.0093994140625,38.0,218.0,-159.0,101263.0,0.5100000500679016,0,0
31.846996,0.039459228515625,0.332916259765625,0.941131591796875,0.043304443359375,16.90673828125,24.59716796875,-5.4931640625,0.143798828125,0.061767578125,-1.0194091796875,38.0,218.0,-159.0,101263.0,0.5100000500679016,0,0
31.853995,0.037017822265625,0.33233642578125,0.941436767578125,0.043121337890625,14.404296875,22.216796875,-8.1787109375,0.1182861328125,0.0931396484375,-1.0181884765625,38.0,218.0,-159.0,101263.0,0.5100000500679016,0,0
31.860995,0.036163330078125,0.33203125,0.941558837890625,0.04302978515625,11.41357421875,15.68603515625,-9.46044921875,0.05078125,0.116943359375,-0.944580078125,38.0,218.0,-159.0,101263.0,0.5100000500679016,0,0
31.867994,0.034881591796875,0.331573486328125,0.9417724609375,0.04302978515625,7.568359375,12.75634765625,-6.103515625,0.010009765625,0.124755859375,-0.906005859375,38.0,218.0,-159.0,101264.0,0.5070000290870667,0,0
31.874995,0.03350830078125,0.331390380859375,0.94189453125,0.04302978515625,6.103515625,13.61083984375,-4.0283203125,0.0057373046875,0.099853515625,-0.9136962890625,38.0,218.0,-159.0,101264.0,0.5070000290870667,0,0
31.881026,0.03350830078125,0.331390380859375,0.94189453125,0.04302978515625,6.103515625,13.61083984375,-4.0283203125,0.0057373046875,0.099853515625,-0.9136962890625,38.0,218.0,-159.0,101264.0,0.5070000290870667,0,0
31.887995,0.031097412109375,0.331634521484375,0.941864013671875,0.0438232421875,-1.953125,14.95361328125,3.47900390625,0.0828857421875,0.1043701171875,-0.9405517578125,35.0,204.0,-132.0,101264.0,0.5070000290870667,0,0
31.894995,0.029266357421875,0.322265625,0.945098876953125,0.04498291015625,-1.15966796875,14.70947265625,1.52587890625,0.0880126953125,0.138671875,-0.9273681640625,35.0,204.0,-132.0,101264.0,0.5070000290870667,0,0
31.901999,0.028656005859375,0.322052001953125,0.9451904296875,0.0452880859375,2.5634765625,13.0615234375,-5.92041015625,0.0521240234375,0.1600341796875,-0.9072265625,35.0,204.0,-132.0,101264.0,0.5070000290870667,0,0
31.908998,0.0274658203125,0.3212890625,0.945465087890625,0.045623779296875,7.4462890625,10.68115234375,-13.36669921875,0.0552978515625,0.1529541015625,-0.904296875,35.0,204.0,-132.0,101264.0,0.5070000290870667,0,0
31.915998,0.02618408203125,0.320220947265625,0.94586181640625,0.045654296875,7.9345703125,11.53564453125,-15.13671875,0.0537109375,0.1318359375,-0.88671875,35.0,204.0,-132.0,101264.0,0.5070000290870667,0,0
31.922997,0.025482177734375,0.31964111328125,0.946075439453125,0.04559326171875,8.23974609375,12.75634765625,-18.06640625,0.0567626953125,0.0987548828125,-0.914306640625,35.0,204.0,-132.0,101264.0,0.5070000290870667,0,0
31.929997,0.023529052734375,0.317596435546875,0.94683837890625,0.04547119140625,5.92041015625,11.90185546875,-20.8740234375,0.042236328125,0.09326171875,-0.9296875,35.0,204.0,-132.0,101264.0,0.5070000290870667,0,0
31.936996,0.022735595703125,0.31683349609375,0.94708251953125,0.0455322265625,4.150390625,13.7939453125,-22.5830078125,0.0938720703125,0.0784912109375,-0.9119873046875,35.0,204.0,-132.0,101264.0,0.5070000290870667,0,0
31.943995,0.021820068359375,0.3160400390625,0.9473876953125,0.045654296875,4.2724609375,15.31982421875,-24.0478515625,0.1240234375,0.0792236328125,-0.9091796875,35.0,204.0,-132.0,101264.0,0.5070000290870667,0,0
31.950995,0.01837158203125,0.313201904296875,0.9483642578125,0.04595947265625,4.5166015625,19.8974609375,-30.6396484375,0.1373291015625,0.052490234375,-0.955810546875,35.0,204.0,-132.0,101264.0,0.5070000290870667,0,0
31.957995,0.017425537109375,0.312164306640625,0.94873046875,0.045867919921875,4.638671875,18.49365234375,-30.76171875,0.0914306640625,0.021240234375,-0.9664306640625,35.0,204.0,-132.0,101264.0,0.5070000290870667,0,0
31.964999,0.0166015625,0.31109619140625,0.9490966796875,0.04583740234375,3.41796875,18.6767578125,-32.1044921875,0.059326171875,0.0430908203125,-0.947998046875,35.0,204.0,-132.0,101263.0,0.5160000324249268,0,0
31.971998,0.013916015625,0.307586669921875,0.950286865234375,0.045867919921875,4.7607421875,26.18408203125,-35.5224609375,0.0467529296875,0.0496826171875,-0.9266357421875,35.0,204.0,-132.0,101263.0,0.5160000324249268,0,0
31.978031,0.013916015625,0.307586669921875,0.950286865234375,0.045867919921875,4.7607421875,26.18408203125,-35.5224609375,0.0467529296875,0.0496826171875,-0.9266357421875,35.0,204.0,-132.0,101263.0,0.5160000324249268,0,0
31.984994,0.010589599609375,0.302825927734375,0.951873779296875,0.04583740234375,1.953125,24.59716796875,-34.72900390625,0.0228271484375,0.0157470703125,-0.9857177734375,35.0,204.0,-132.0,101263.0,0.5160000324249268,0,0
32.005993,0.003875732421875,0.236907958984375,0.970428466796875,0.046051025390625,2.01416015625,21.54541015625,-36.2548828125,0.015869140625,-0.0223388671875,-0.968505859375,31.0,192.0,-108.0,101263.0,0.5160000324249268,0,0
32.012997,0.00323486328125,0.235504150390625,0.97076416015625,0.045867919921875,2.25830078125,17.2119140625,-40.10009765625,0.0316162109375,-0.0015869140625,-0.9539794921875,31.0,192.0,-108.0,101263.0,0.5160000324249268,0,0
32.019996,0.00250244140625,0.234130859375,0.971099853515625,0.045654296875,3.5400390625,18.310546875,-40.46630859375,0.038330078125,-0.0079345703125,-0.921875,31.0,192.0,-108.0,101263.0,0.5160000324249268,0,0
32.026996,0.00054931640625,0.230194091796875,0.972076416015625,0.04510498046875,2.99072265625,18.6767578125,-39.4287109375,0.042724609375,-0.0155029296875,-0.9205322265625,31.0,192.0,-108.0,101263.0,0.5160000324249268,0,0
32.033995,3.0517578125e-05,0.22906494140625,0.97235107421875,0.04498291015625,-1.46484375,10.92529296875,-33.38623046875,0.063232421875,-0.0098876953125,-0.9180908203125,31.0,192.0,-108.0,101263.0,0.5160000324249268,0,0
32.040995,-0.00091552734375,0.227142333984375,0.972808837890625,0.044769287109375,-1.0986328125,11.90185546875,-28.80859375,0.0435791015625,-0.0421142578125,-0.911865234375,31.0,192.0,-108.0,101263.0,0.5160000324249268,0,0
32.047994,-0.0018310546875,0.22552490234375,0.973175048828125,0.044769287109375,-3.11279296875,12.26806640625,-22.3388671875,0.02734375,0.0084228515625,-0.91845703125,31.0,192.0,-108.0,101263.0,0.5160000324249268,0,0
32.054995,-0.002227783203125,0.22479248046875,0.973358154296875,0.04473876953125,-1.708984375,10.6201171875,-20.99609375,0.039794921875,0.0216064453125,-0.921142578125,31.0,192.0,-108.0,101263.0,0.5160000324249268,0,0
32.061993,-0.003387451171875,0.223236083984375,0.97369384765625,0.0450439453125,-1.40380859375,9.94873046875,-21.91162109375,0.08544921875,0.05712890625,-0.9193115234375,31.0,192.0,-108.0,101263.0,0.5160000324249268,0,0
32.068021,-0.003387451171875,0.223236083984375,0.97369384765625,0.0450439453125,-1.40380859375,9.94873046875,-21.91162109375,0.08544921875,0.05712890625,-0.9193115234375,31.0,192.0,-108.0,101263.0,0.5160000324249268,0,0
32.074994,-0.006103515625,0.220611572265625,0.974273681640625,0.045013427734375,7.8125,10.7421875,-25.32958984375,0.1883544921875,0.066162109375,-0.91259765625,31.0,192.0,-108.0,101263.0,0.51500004529953,0,0
32.095993,-0.009063720703125,0.20440673828125,0.977874755859375,0.04345703125,9.82666015625,10.009765625,-17.2119140625,0.0343017578125,0.0491943359375,-0.844482421875,27.0,177.0,-89.0,101263.0,0.51500004529953,0,0
32.102997,-0.009857177734375,0.203521728515625,0.978057861328125,0.0428466796875,8.9111328125,7.75146484375,-11.29150390625,0.0472412109375,0.0408935546875,-0.8994140625,27.0,177.0,-89.0,101263.0,0.51500004529953,0,0
32.109996,-0.010589599609375,0.20318603515625,0.978179931640625,0.041900634765625,10.8642578125,4.69970703125,-2.9296875,0.0765380859375,0.002685546875,-0.925048828125,27.0,177.0,-89.0,101263.0,0.51500004529953,0,0
32.116996,-0.01153564453125,0.203277587890625,0.978179931640625,0.040985107421875,11.474609375,3.96728515625,0.06103515625,0.0955810546875,0.0133056640625,-0.923583984375,27.0,177.0,-89.0,101263.0,0.51500004529953,0,0
32.123995,-0.012298583984375,0.20355224609375,0.978118896484375,0.040496826171875,14.5263671875,6.591796875,7.568359375,0.1707763671875,0.0272216796875,-0.9027099609375,27.0,177.0,-89.0,101263.0,0.51500004529953,0,0
32.130995,-0.01531982421875,0.205810546875,0.977691650390625,0.03857421875,17.88330078125,6.7138671875,22.76611328125,0.2413330078125,-0.0123291015625,-0.9298095703125,27.0,177.0,-89.0,101263.0,0.51500004529953,0,0
32.137994,-0.016387939453125,0.206878662109375,0.97747802734375,0.037841796875,21.17919921875,8.1787109375,31.6162109375,0.227783203125,0.002685546875,-0.9593505859375,27.0,177.0,-89.0,101263.0,0.51500004529953,0,0
32.144995,-0.017364501953125,0.207977294921875,0.977264404296875,0.03704833984375,22.52197265625,7.38525390625,32.16552734375,0.215087890625,0.0157470703125,-0.9921875,27.0,177.0,-89.0,101263.0,0.51500004529953,0,0
32.151994,-0.0194091796875,0.210723876953125,0.97674560546875,0.03424072265625,29.84619140625,-0.244140625,26.7333984375,0.191650390625,0.0726318359375,-1.017578125,27.0,177.0,-89.0,101263.0,0.51500004529953,0,0
32.158993,-0.0198974609375,0.211578369140625,0.976593017578125,0.03302001953125,36.43798828125,-4.82177734375,25.45166015625,0.1673583984375,0.06396484375,-0.96484375,27.0,177.0,-89.0,101263.0,0.51500004529953,0,0
32.165025,-0.0198974609375,0.211578369140625,0.976593017578125,0.03302001953125,36.43798828125,-4.82177734375,25.45166015625,0.1673583984375,0.06396484375,-0.96484375,27.0,177.0,-89.0,101263.0,0.51500004529953,0,0
32.171995,-0.022186279296875,0.214691162109375,0.97601318359375,0.027984619140625,39.9169921875,0.9765625,23.5595703125,0.1285400390625,0.05419921875,-0.9300537109375,27.0,177.0,-89.0,101262.0,0.5180000066757202,0,0
32.178994,-0.022735595703125,0.215606689453125,0.975830078125,0.026763916015625,35.64453125,4.2724609375,27.03857421875,0.079345703125,0.034912109375,-0.918701171875,27.0,177.0,-89.0,101262.0,0.5180000066757202,0,0
32.185993,-0.023223876953125,0.216552734375,0.97564697265625,0.02557373046875,35.09521484375,5.92041015625,28.6865234375,0.056640625,0.0238037109375,-0.9337158203125,27.0,177.0,-89.0,101262.0,0.5180000066757202,0,0
32.192997,-0.025299072265625,0.163238525390625,0.986053466796875,0.01971435546875,37.17041015625,2.99072265625,30.6396484375,-0.0045166015625,-0.0506591796875,-1.0172119140625,23.0,166.0,-71.0,101262.0,0.5180000066757202,0,0
32.199997,-0.025238037109375,0.164154052734375,0.985931396484375,0.01824951171875,34.3017578125,0.54931640625,27.40478515625,-0.052001953125,-0.046630859375,-1.07421875,23.0,166.0,-71.0,101262.0,0.5180000066757202,0,0
32.206996,-0.025634765625,0.166656494140625,0.985565185546875,0.013275146484375,37.78076171875,0.91552734375,26.55029296875,-0.0504150390625,-0.0360107421875,-1.0374755859375,23.0,166.0,-71.0,101262.0,0.5180000066757202,0,0
32.213995,-0.02593994140625,0.16754150390625,0.985443115234375,0.011383056640625,45.95947265625,9.1552734375,26.55029296875,-0.0521240234375,-0.080078125,-1.021728515625,23.0,166.0,-71.0,101262.0,0.5180000066757202,0,0
32.220995,-0.026123046875,0.16845703125,0.98529052734375,0.009613037109375,43.45703125,7.8125,27.2216796875,-0.07763671875,-0.06689453125,-1.0369873046875,23.0,166.0,-71.0,101262.0,0.5180000066757202,0,0
32.227995,-0.025604248046875,0.17083740234375,0.98492431640625,0.005218505859375,39.85595703125,4.94384765625,25.146484375,-0.1077880859375,-0.027099609375,-1.0186767578125,23.0,166.0,-71.0,101262.0,0.5180000066757202,0,0
32.234999,-0.0255126953125,0.171661376953125,0.98480224609375,0.003753662109375,34.36279296875,3.60107421875,25.32958984375,-0.1114501953125,-0.065673828125,-0.9478759765625,23.0,166.0,-71.0,101262.0,0.5180000066757202,0,0
32.241998,-0.025360107421875,0.173309326171875,0.984527587890625,0.00103759765625,34.48486328125,4.57763671875,24.96337890625,-0.1043701171875,-0.044677734375,-0.94873046875,23.0,166.0,-71.0,101262.0,0.5180000066757202,0,0
32.248998,-0.024993896484375,0.17462158203125,0.98431396484375,-0.00140380859375,33.447265625,-2.25830078125,18.4326171875,-0.0709228515625,-0.010498046875,-0.967041015625,23.0,166.0,-71.0,101262.0,0.5180000066757202,0,0
32.268998,-0.025970458984375,0.177398681640625,0.9837646484375,-0.0069580078125,30.94482421875,6.7138671875,18.6767578125,0.0458984375,0.0531005859375,-0.8267822265625,23.0,166.0,-71.0,101262.0,0.5200000405311584,0,0
32.275998,-0.026580810546875,0.178253173828125,0.98358154296875,-0.0078125,28.25927734375,9.6435546875,25.87890625,0.08984375,0.004638671875,-0.84423828125,23.0,166.0,-71.0,101262.0,0.5200000405311584,0,0
32.282997,-0.02825927734375,0.180084228515625,0.983184814453125,-0.0091552734375,36.0107421875,15.625,26.79443359375,0.1292724609375,0.1337890625,-0.82421875,23.0,166.0,-71.0,101262.0,0.5200000405311584,0,0
32.289996,-0.03045654296875,0.18170166015625,0.9827880859375,-0.010986328125,44.43359375,18.9208984375,25.08544921875,0.1485595703125,0.0927734375,-0.8953857421875,23.0,166.0,-71.0,101262.0,0.5200000405311584,0,0
32.296996,-0.032318115234375,0.140625,0.989410400390625,-0.01495361328125,51.025390625,20.1416015625,24.10888671875,0.1610107421875,0.1126708984375,-0.9068603515625,18.0,157.0,-57.0,101262.0,0.5200000405311584,0,0
32.303995,-0.033782958984375,0.141326904296875,0.989227294921875,-0.01666259765625,63.232421875,23.98681640625,23.01025390625,0.191650390625,0.0667724609375,-0.941162109375,18.0,157.0,-57.0,101262.0,0.5200000405311584,0,0
32.310995,-0.036529541015625,0.143035888671875,0.988800048828125,-0.02056884765625,62.01171875,23.25439453125,27.099609375,0.153076171875,-0.0220947265625,-0.98193359375,18.0,157.0,-57.0,101262.0,0.5200000405311584,0,0
32.317994,-0.038787841796875,0.144866943359375,0.988372802734375,-0.024749755859375,63.29345703125,21.1181640625,28.25927734375,0.1220703125,-0.0267333984375,-1.0234375,18.0,157.0,-57.0,101262.0,0.5200000405311584,0,0
32.324995,-0.03985595703125,0.145751953125,0.988128662109375,-0.027099609375,68.66455078125,20.20263671875,28.25927734375,0.082763671875,-0.0928955078125,-1.0709228515625,18.0,157.0,-57.0,101262.0,0.5200000405311584,0,0
32.331994,-0.042510986328125,0.148406982421875,0.987396240234375,-0.034423828125,68.17626953125,17.76123046875,25.93994140625,0.0753173828125,-0.1041259765625,-1.12451171875,18.0,157.0,-57.0,101262.0,0.5200000405311584,0,0
32.338993,-0.042938232421875,0.1494140625,0.987152099609375,-0.0367431640625,59.38720703125,8.72802734375,30.6396484375,0.0283203125,-0.190185546875,-1.2227783203125,18.0,157.0,-57.0,101262.0,0.5200000405311584,0,0
32.358994,-0.042449951171875,0.15386962890625,0.986053466796875,-0.04693603515625,54.931640625,-7.32421875,22.216796875,-0.1297607421875,-0.0552978515625,-1.2344970703125,18.0,157.0,-57.0,101262.0,0.5200000405311584,0,0
32.365993,-0.041259765625,0.15460205078125,0.98590087890625,-0.048797607421875,51.8798828125,-17.88330078125,23.0712890625,-0.184814453125,-0.0736083984375,-1.215087890625,18.0,157.0,-57.0,101262.0,0.5160000324249268,0,0
32.372997,-0.037872314453125,0.156097412109375,0.98553466796875,-0.053802490234375,55.23681640625,-18.12744140625,15.07568359375,-0.1748046875,0.0537109375,-1.125,18.0,157.0,-57.0,101262.0,0.5160000324249268,0,0
32.379996,-0.037322998046875,0.156524658203125,0.985382080078125,-0.05548095703125,56.396484375,-10.009765625,13.916015625,-0.08642578125,0.0089111328125,-1.0150146484375,18.0,157.0,-57.0,101262.0,0.5160000324249268,0,0
32.386996,-0.0367431640625,0.15753173828125,0.98492431640625,-0.060791015625,56.33544921875,-8.23974609375,12.39013671875,-0.0323486328125,-0.005859375,-1.0245361328125,18.0,157.0,-57.0,101262.0,0.5160000324249268,0,0
32.393995,-0.034332275390625,0.125732421875,0.989410400390625,-0.063812255859375,59.50927734375,-6.04248046875,11.71875,-0.016357421875,-0.0621337890625,-1.0965576171875,13.0,150.0,-47.0,101262.0,0.5160000324249268,0,0
32.400995,-0.033843994140625,0.125823974609375,0.989288330078125,-0.065582275390625,55.60302734375,-8.72802734375,4.94384765625,-0.07763671875,-0.069091796875,-1.1014404296875,13.0,150.0,-47.0,101262.0,0.5160000324249268,0,0
32.407994,-0.03326416015625,0.125030517578125,0.98907470703125,-0.070526123046875,57.80029296875,-7.62939453125,-1.8310546875,-0.0430908203125,-0.013671875,-1.0386962890625,13.0,150.0,-47.0,101262.0,0.5160000324249268,0,0
32.414995,-0.03326416015625,0.12469482421875,0.988983154296875,-0.0721435546875,51.8798828125,-4.0283203125,-8.4228515625,0.022216796875,-0.089599609375,-0.9921875,13.0,150.0,-47.0,101262.0,0.5160000324249268,0,0
32.421994,-0.033355712890625,0.124481201171875,0.9888916015625,-0.07373046875,45.2880859375,-0.18310546875,-4.638671875,0.0084228515625,-0.159423828125,-0.978759765625,13.0,150.0,-47.0,101262.0,0.5160000324249268,0,0
