Time stamp(sec),quaternion_0,quaternion_1,quaternion_2,quaternion_3,roll_angular_rate,pitch_angular_rate,yaw_angular_rate,acc_X,acc_Y,acc_Z,mag_X,mag_Y,mag_Z,pressure,altitude
265.556997,-0.4906005859375,-0.773345947265625,-0.342681884765625,-0.209228515625,-0.1220703125,0.1220703125,-0.06103515625,-0.0093994140625,0.9007568359375,-0.430419921875,111.0,-14.0,-106.0,103165.0,-15.208001136779785,0,0
265.563996,-0.4906005859375,-0.773345947265625,-0.342681884765625,-0.209228515625,-0.3662109375,-0.244140625,-0.1220703125,-0.013427734375,0.90380859375,-0.4310302734375,111.0,-14.0,-106.0,103165.0,-15.208001136779785,0,0
265.570997,-0.4906005859375,-0.773345947265625,-0.342681884765625,-0.209228515625,-0.1220703125,0.0,-0.06103515625,-0.01318359375,0.901611328125,-0.4302978515625,111.0,-14.0,-106.0,103165.0,-15.208001136779785,0,0
265.577995,-0.4906005859375,-0.773345947265625,-0.342681884765625,-0.209228515625,0.18310546875,0.1220703125,0.0,-0.01123046875,0.904052734375,-0.431640625,111.0,-14.0,-106.0,103165.0,-15.208001136779785,0,0
265.584995,-0.4906005859375,-0.773345947265625,-0.342681884765625,-0.209228515625,0.0,0.18310546875,-0.1220703125,-0.01171875,0.903564453125,-0.4322509765625,111.0,-14.0,-106.0,103165.0,-15.208001136779785,0,0
265.591995,-0.4906005859375,-0.773345947265625,-0.342681884765625,-0.209228515625,-0.06103515625,0.42724609375,0.244140625,-0.01171875,0.9033203125,-0.4315185546875,111.0,-14.0,-106.0,103165.0,-15.208001136779785,0,0
265.598999,-0.4906005859375,-0.773345947265625,-0.342681884765625,-0.209228515625,0.67138671875,0.244140625,-0.1220703125,-0.013427734375,0.9033203125,-0.431640625,111.0,-14.0,-106.0,103165.0,-15.208001136779785,0,0
265.605998,-0.4906005859375,-0.773345947265625,-0.342681884765625,-0.209228515625,-0.30517578125,0.1220703125,-0.18310546875,-0.0130615234375,0.9007568359375,-0.4296875,111.0,-14.0,-106.0,103165.0,-15.208001136779785,0,0
265.612997,-0.4906005859375,-0.773345947265625,-0.342681884765625,-0.209228515625,0.3662109375,0.1220703125,0.1220703125,-0.0111083984375,0.9019775390625,-0.4300537109375,111.0,-14.0,-106.0,103165.0,-15.208001136779785,0,0
265.619997,-0.4906005859375,-0.773345947265625,-0.342681884765625,-0.209228515625,-0.3662109375,0.1220703125,0.18310546875,-0.0103759765625,0.9039306640625,-0.43115234375,111.0,-14.0,-106.0,103165.0,-15.208001136779785,0,0
265.626996,-0.4906005859375,-0.7733154296875,-0.3426513671875,-0.209228515625,0.06103515625,0.244140625,-0.06103515625,-0.012451171875,0.905517578125,-0.431884765625,111.0,-14.0,-106.0,103165.0,-15.208001136779785,0,0
265.634001,-0.4906005859375,-0.773345947265625,-0.3426513671875,-0.209259033203125,0.1220703125,-0.06103515625,0.06103515625,-0.0125732421875,0.902587890625,-0.431640625,111.0,-14.0,-106.0,103165.0,-15.208001136779785,0,0
265.640033,-0.4906005859375,-0.773345947265625,-0.3426513671875,-0.209259033203125,0.1220703125,-0.06103515625,0.06103515625,-0.0125732421875,0.902587890625,-0.431640625,111.0,-14.0,-106.0,103165.0,-15.208001136779785,0,0
265.646997,-0.4906005859375,-0.773345947265625,-0.3426513671875,-0.209259033203125,0.1220703125,0.1220703125,0.0,-0.0120849609375,0.9036865234375,-0.4327392578125,111.0,-14.0,-107.0,103165.0,-15.209000587463379,0,0
265.653996,-0.490570068359375,-0.773284912109375,-0.342803955078125,-0.209320068359375,-0.18310546875,0.06103515625,-0.06103515625,-0.0120849609375,0.901611328125,-0.4337158203125,111.0,-14.0,-107.0,103165.0,-15.209000587463379,0,0
265.661001,-0.49053955078125,-0.773284912109375,-0.342803955078125,-0.209320068359375,-0.18310546875,0.3662109375,0.06103515625,-0.0108642578125,0.9031982421875,-0.4298095703125,111.0,-14.0,-107.0,103165.0,-15.209000587463379,0,0
265.667996,-0.490570068359375,-0.773284912109375,-0.342803955078125,-0.209320068359375,-0.244140625,0.30517578125,0.06103515625,-0.013671875,0.90283203125,-0.429931640625,111.0,-14.0,-107.0,103165.0,-15.209000587463379,0,0
265.674996,-0.490570068359375,-0.773284912109375,-0.342803955078125,-0.209320068359375,0.18310546875,0.18310546875,0.244140625,-0.01220703125,0.9013671875,-0.4326171875,111.0,-14.0,-107.0,103165.0,-15.209000587463379,0,0
265.681999,-0.49053955078125,-0.773284912109375,-0.3427734375,-0.209320068359375,-0.42724609375,0.06103515625,0.0,-0.01318359375,0.90380859375,-0.4324951171875,111.0,-14.0,-107.0,103165.0,-15.209000587463379,0,0
265.688999,-0.49053955078125,-0.773284912109375,-0.342803955078125,-0.209320068359375,0.18310546875,0.1220703125,-0.1220703125,-0.0126953125,0.9039306640625,-0.429931640625,111.0,-14.0,-107.0,103165.0,-15.209000587463379,0,0
265.695998,-0.49053955078125,-0.773284912109375,-0.342803955078125,-0.209320068359375,-0.18310546875,0.1220703125,-0.3662109375,-0.0120849609375,0.9031982421875,-0.4326171875,111.0,-14.0,-107.0,103165.0,-15.209000587463379,0,0
265.702997,-0.490570068359375,-0.773284912109375,-0.3427734375,-0.209320068359375,0.06103515625,0.18310546875,-0.18310546875,-0.012451171875,0.906494140625,-0.4312744140625,111.0,-14.0,-107.0,103165.0,-15.209000587463379,0,0
265.709997,-0.490570068359375,-0.773284912109375,-0.3427734375,-0.2093505859375,-0.9765625,0.18310546875,0.3662109375,-0.011962890625,0.9039306640625,-0.430908203125,111.0,-14.0,-107.0,103165.0,-15.209000587463379,0,0
265.730995,-0.49053955078125,-0.773284912109375,-0.3427734375,-0.2093505859375,-0.1220703125,-0.1220703125,0.18310546875,-0.0113525390625,0.90283203125,-0.4320068359375,111.0,-14.0,-107.0,103165.0,-15.209000587463379,0,0
265.737023,-0.49053955078125,-0.773284912109375,-0.3427734375,-0.2093505859375,-0.1220703125,-0.1220703125,0.18310546875,-0.0113525390625,0.90283203125,-0.4320068359375,111.0,-14.0,-107.0,103165.0,-15.209000587463379,0,0
265.743996,-0.49053955078125,-0.773284912109375,-0.3427734375,-0.2093505859375,-0.1220703125,0.3662109375,-0.30517578125,-0.0142822265625,0.9027099609375,-0.431640625,112.0,-14.0,-107.0,103165.0,-15.208001136779785,0,0
265.750997,-0.490570068359375,-0.773284912109375,-0.3427734375,-0.2093505859375,-0.30517578125,0.06103515625,-0.06103515625,-0.0135498046875,0.90478515625,-0.4302978515625,112.0,-14.0,-107.0,103165.0,-15.208001136779785,0,0
265.757995,-0.490570068359375,-0.773284912109375,-0.3427734375,-0.2093505859375,-0.1220703125,0.18310546875,0.0,-0.0108642578125,0.9046630859375,-0.4307861328125,112.0,-14.0,-107.0,103165.0,-15.208001136779785,0,0
265.764995,-0.490570068359375,-0.773284912109375,-0.3427734375,-0.209381103515625,0.06103515625,0.18310546875,-0.06103515625,-0.010986328125,0.901611328125,-0.429931640625,112.0,-14.0,-107.0,103165.0,-15.208001136779785,0,0
265.771995,-0.490570068359375,-0.773284912109375,-0.3427734375,-0.209381103515625,0.18310546875,0.244140625,0.1220703125,-0.0115966796875,0.9024658203125,-0.4315185546875,112.0,-14.0,-107.0,103165.0,-15.208001136779785,0,0
265.778998,-0.49053955078125,-0.773284912109375,-0.3427734375,-0.209381103515625,-0.30517578125,0.30517578125,0.0,-0.0098876953125,0.9005126953125,-0.43212890625,112.0,-14.0,-107.0,103165.0,-15.208001136779785,0,0
265.785998,-0.49053955078125,-0.773284912109375,-0.3427734375,-0.209381103515625,0.3662109375,0.30517578125,0.1220703125,-0.0126953125,0.9024658203125,-0.4315185546875,112.0,-14.0,-107.0,103165.0,-15.208001136779785,0,0
265.792997,-0.49053955078125,-0.773284912109375,-0.3427734375,-0.209381103515625,-0.06103515625,-0.06103515625,-0.1220703125,-0.0128173828125,0.9005126953125,-0.4312744140625,112.0,-14.0,-107.0,103165.0,-15.208001136779785,0,0
265.799997,-0.49053955078125,-0.773284912109375,-0.3427734375,-0.209381103515625,-0.244140625,0.18310546875,0.1220703125,-0.014892578125,0.9012451171875,-0.4305419921875,112.0,-14.0,-107.0,103165.0,-15.208001136779785,0,0
265.820995,-0.49053955078125,-0.773284912109375,-0.3427734375,-0.209381103515625,0.06103515625,0.18310546875,-0.30517578125,-0.013427734375,0.9052734375,-0.4322509765625,112.0,-14.0,-107.0,103165.0,-15.208001136779785,0,0
265.827023,-0.49053955078125,-0.773284912109375,-0.3427734375,-0.209381103515625,0.06103515625,0.18310546875,-0.30517578125,-0.013427734375,0.9052734375,-0.4322509765625,112.0,-14.0,-107.0,103165.0,-15.208001136779785,0,0
265.833996,-0.49053955078125,-0.7733154296875,-0.3427734375,-0.209381103515625,-0.06103515625,0.1220703125,-0.18310546875,-0.01220703125,0.9012451171875,-0.431884765625,112.0,-14.0,-107.0,103165.0,-15.208001136779785,0,0
265.840997,-0.49053955078125,-0.7733154296875,-0.3427734375,-0.209381103515625,0.0,0.244140625,0.0,-0.01025390625,0.900146484375,-0.4300537109375,112.0,-14.0,-107.0,103165.0,-15.208001136779785,0,0
265.847995,-0.49053955078125,-0.773284912109375,-0.3427734375,-0.209381103515625,0.732421875,0.54931640625,0.0,-0.0130615234375,0.89990234375,-0.427490234375,112.0,-15.0,-108.0,103165.0,-15.210000991821289,0,0
265.854995,-0.49053955078125,-0.773284912109375,-0.342742919921875,-0.209381103515625,-0.18310546875,0.244140625,-0.244140625,-0.0096435546875,0.9007568359375,-0.42919921875,112.0,-15.0,-108.0,103165.0,-15.210000991821289,0,0
265.861995,-0.49053955078125,-0.773284912109375,-0.3427734375,-0.209381103515625,0.3662109375,0.244140625,-0.06103515625,-0.0107421875,0.901611328125,-0.43115234375,112.0,-15.0,-108.0,103165.0,-15.210000991821289,0,0
265.868998,-0.49053955078125,-0.773284912109375,-0.342742919921875,-0.209381103515625,-0.06103515625,0.30517578125,0.06103515625,-0.0111083984375,0.9039306640625,-0.4306640625,112.0,-15.0,-108.0,103165.0,-15.210000991821289,0,0
265.875998,-0.49053955078125,-0.773284912109375,-0.3427734375,-0.209381103515625,-0.06103515625,0.18310546875,0.06103515625,-0.013671875,0.9044189453125,-0.4326171875,112.0,-15.0,-108.0,103165.0,-15.210000991821289,0,0
265.882997,-0.49053955078125,-0.773284912109375,-0.3427734375,-0.209381103515625,0.1220703125,0.3662109375,-0.1220703125,-0.0113525390625,0.902587890625,-0.4315185546875,112.0,-15.0,-108.0,103165.0,-15.210000991821289,0,0
265.889997,-0.49053955078125,-0.773284912109375,-0.3427734375,-0.209381103515625,0.1220703125,0.3662109375,-0.1220703125,-0.0113525390625,0.902587890625,-0.4315185546875,112.0,-15.0,-108.0,103165.0,-15.210000991821289,0,0
265.896996,-0.49053955078125,-0.7733154296875,-0.3427734375,-0.209381103515625,0.67138671875,0.06103515625,0.06103515625,-0.0123291015625,0.9024658203125,-0.4327392578125,112.0,-15.0,-108.0,103165.0,-15.210000991821289,0,0
265.904001,-0.49053955078125,-0.7733154296875,-0.342742919921875,-0.209381103515625,-0.06103515625,0.18310546875,0.1220703125,-0.009033203125,0.9034423828125,-0.4322509765625,112.0,-15.0,-108.0,103165.0,-15.210000991821289,0,0
265.910996,-0.49053955078125,-0.7733154296875,-0.342742919921875,-0.20941162109375,0.54931640625,0.244140625,-0.1220703125,-0.0107421875,0.90234375,-0.4307861328125,112.0,-15.0,-108.0,103165.0,-15.210000991821289,0,0
265.917028,-0.49053955078125,-0.7733154296875,-0.342742919921875,-0.20941162109375,0.54931640625,0.244140625,-0.1220703125,-0.0107421875,0.90234375,-0.4307861328125,112.0,-15.0,-108.0,103165.0,-15.210000991821289,0,0
265.923996,-0.49053955078125,-0.7733154296875,-0.342742919921875,-0.20941162109375,-0.3662109375,-0.1220703125,-0.244140625,-0.011962890625,0.9031982421875,-0.43115234375,112.0,-15.0,-108.0,103165.0,-15.210000991821289,0,0
265.931001,-0.49053955078125,-0.7733154296875,-0.342742919921875,-0.20941162109375,-0.06103515625,0.244140625,0.18310546875,-0.0120849609375,0.9012451171875,-0.4306640625,112.0,-15.0,-108.0,103165.0,-15.210000991821289,0,0
265.937996,-0.49053955078125,-0.7733154296875,-0.342742919921875,-0.20941162109375,0.1220703125,0.30517578125,-0.06103515625,-0.0115966796875,0.9039306640625,-0.4300537109375,112.0,-15.0,-108.0,103165.0,-15.210000991821289,0,0
265.944996,-0.49053955078125,-0.7733154296875,-0.342742919921875,-0.20941162109375,-0.18310546875,0.3662109375,-0.1220703125,-0.0125732421875,0.904541015625,-0.429443359375,111.0,-16.0,-108.0,103165.0,-15.210000991821289,0,0
265.951999,-0.490509033203125,-0.77325439453125,-0.342864990234375,-0.209503173828125,0.06103515625,0.244140625,-0.06103515625,-0.011474609375,0.902099609375,-0.4317626953125,111.0,-16.0,-108.0,103165.0,-15.210000991821289,0,0
265.958999,-0.490509033203125,-0.77325439453125,-0.342864990234375,-0.209503173828125,0.18310546875,0.3662109375,-0.06103515625,-0.0115966796875,0.9036865234375,-0.429931640625,111.0,-16.0,-108.0,103165.0,-15.210000991821289,0,0
265.965998,-0.490509033203125,-0.773223876953125,-0.342864990234375,-0.209503173828125,0.244140625,0.54931640625,-0.06103515625,-0.0125732421875,0.9044189453125,-0.43017578125,111.0,-16.0,-108.0,103165.0,-15.210000991821289,0,0
265.972997,-0.490509033203125,-0.773223876953125,-0.342864990234375,-0.209503173828125,0.1220703125,0.0,0.06103515625,-0.0135498046875,0.90234375,-0.4307861328125,111.0,-16.0,-108.0,103165.0,-15.210000991821289,0,0
265.993997,-0.49053955078125,-0.773223876953125,-0.342864990234375,-0.209503173828125,-0.244140625,0.1220703125,0.06103515625,-0.01123046875,0.901123046875,-0.4312744140625,111.0,-16.0,-108.0,103165.0,-15.207000732421875,0,0
266.000995,-0.490509033203125,-0.773223876953125,-0.342864990234375,-0.209503173828125,0.3662109375,0.1220703125,0.0,-0.0142822265625,0.904541015625,-0.43115234375,111.0,-16.0,-108.0,103165.0,-15.207000732421875,0,0
266.007995,-0.490509033203125,-0.773223876953125,-0.342864990234375,-0.209503173828125,-0.30517578125,0.42724609375,-0.18310546875,-0.0120849609375,0.9022216796875,-0.4307861328125,111.0,-16.0,-108.0,103165.0,-15.207000732421875,0,0
266.014027,-0.490509033203125,-0.773223876953125,-0.342864990234375,-0.209503173828125,-0.30517578125,0.42724609375,-0.18310546875,-0.0120849609375,0.9022216796875,-0.4307861328125,111.0,-16.0,-108.0,103165.0,-15.207000732421875,0,0
266.020997,-0.490509033203125,-0.773223876953125,-0.342864990234375,-0.209503173828125,-0.30517578125,0.244140625,0.18310546875,-0.012451171875,0.9029541015625,-0.43115234375,111.0,-16.0,-108.0,103165.0,-15.207000732421875,0,0
266.027995,-0.490509033203125,-0.773223876953125,-0.342864990234375,-0.209503173828125,-0.18310546875,0.18310546875,0.0,-0.013671875,0.902099609375,-0.4315185546875,111.0,-16.0,-108.0,103165.0,-15.207000732421875,0,0
266.034995,-0.490509033203125,-0.773223876953125,-0.342864990234375,-0.209503173828125,-0.67138671875,-0.06103515625,-0.244140625,-0.0126953125,0.90185546875,-0.4307861328125,111.0,-16.0,-108.0,103165.0,-15.207000732421875,0,0
266.041995,-0.490509033203125,-0.773223876953125,-0.342864990234375,-0.209503173828125,-0.06103515625,0.18310546875,-0.1220703125,-0.0111083984375,0.9027099609375,-0.4322509765625,111.0,-16.0,-108.0,103165.0,-15.207000732421875,0,0
266.048998,-0.490509033203125,-0.773223876953125,-0.342864990234375,-0.209503173828125,-0.6103515625,0.18310546875,0.1220703125,-0.0147705078125,0.902099609375,-0.4307861328125,112.0,-16.0,-108.0,103165.0,-15.207000732421875,0,0
266.055998,-0.490509033203125,-0.77325439453125,-0.342864990234375,-0.209503173828125,0.06103515625,0.30517578125,0.1220703125,-0.0101318359375,0.9027099609375,-0.4320068359375,112.0,-16.0,-108.0,103165.0,-15.207000732421875,0,0
266.076996,-0.490509033203125,-0.77325439453125,-0.342864990234375,-0.209503173828125,0.91552734375,0.48828125,-0.06103515625,-0.0120849609375,0.902099609375,-0.4296875,112.0,-16.0,-108.0,103165.0,-15.207000732421875,0,0
266.083997,-0.490509033203125,-0.77325439453125,-0.342864990234375,-0.209503173828125,0.18310546875,0.18310546875,-0.06103515625,-0.011962890625,0.9019775390625,-0.4306640625,112.0,-16.0,-108.0,103165.0,-15.207000732421875,0,0
266.090995,-0.490509033203125,-0.77325439453125,-0.342864990234375,-0.209503173828125,0.1220703125,0.1220703125,0.1220703125,-0.012939453125,0.901123046875,-0.4315185546875,112.0,-16.0,-108.0,103165.0,-15.207000732421875,0,0
266.097995,-0.490509033203125,-0.77325439453125,-0.342864990234375,-0.209503173828125,-0.06103515625,0.1220703125,0.0,-0.013427734375,0.8997802734375,-0.4312744140625,112.0,-16.0,-108.0,103165.0,-15.209000587463379,0,0
266.104027,-0.490509033203125,-0.77325439453125,-0.342864990234375,-0.209503173828125,-0.06103515625,0.1220703125,0.0,-0.013427734375,0.8997802734375,-0.4312744140625,112.0,-16.0,-108.0,103165.0,-15.209000587463379,0,0
266.110997,-0.490509033203125,-0.773223876953125,-0.342864990234375,-0.209503173828125,0.244140625,0.30517578125,0.06103515625,-0.0123291015625,0.9029541015625,-0.4295654296875,112.0,-16.0,-108.0,103165.0,-15.209000587463379,0,0
266.117995,-0.490509033203125,-0.773223876953125,-0.342864990234375,-0.209503173828125,0.0,0.06103515625,-0.244140625,-0.0130615234375,0.90283203125,-0.4296875,112.0,-16.0,-108.0,103165.0,-15.209000587463379,0,0
266.124995,-0.490509033203125,-0.773223876953125,-0.342864990234375,-0.209503173828125,0.1220703125,0.1220703125,0.0,-0.0128173828125,0.904296875,-0.4320068359375,112.0,-16.0,-108.0,103165.0,-15.209000587463379,0,0
266.131995,-0.490509033203125,-0.773223876953125,-0.342864990234375,-0.209503173828125,-0.06103515625,0.244140625,-0.06103515625,-0.0146484375,0.903564453125,-0.43310546875,112.0,-16.0,-108.0,103165.0,-15.209000587463379,0,0
266.138998,-0.490509033203125,-0.773223876953125,-0.342864990234375,-0.209503173828125,0.06103515625,0.18310546875,0.1220703125,-0.01171875,0.904296875,-0.43115234375,112.0,-16.0,-108.0,103165.0,-15.209000587463379,0,0
266.145998,-0.490509033203125,-0.773223876953125,-0.342864990234375,-0.209503173828125,0.06103515625,0.0,-0.18310546875,-0.0130615234375,0.9014892578125,-0.430419921875,111.0,-15.0,-109.0,103165.0,-15.209000587463379,0,0
266.173997,-0.49053955078125,-0.773284912109375,-0.34271240234375,-0.209442138671875,-0.18310546875,0.18310546875,-0.30517578125,-0.0128173828125,0.902099609375,-0.4306640625,111.0,-15.0,-109.0,103165.0,-15.209000587463379,0,0
266.180995,-0.49053955078125,-0.773284912109375,-0.34271240234375,-0.209442138671875,-0.30517578125,0.0,-0.06103515625,-0.0113525390625,0.9036865234375,-0.4317626953125,111.0,-15.0,-109.0,103165.0,-15.209000587463379,0,0
266.187995,-0.49053955078125,-0.773284912109375,-0.34271240234375,-0.209442138671875,0.79345703125,0.48828125,-0.1220703125,-0.01171875,0.9019775390625,-0.43212890625,111.0,-15.0,-109.0,103165.0,-15.209000587463379,0,0
266.194995,-0.49053955078125,-0.773284912109375,-0.34271240234375,-0.209442138671875,-0.1220703125,0.06103515625,0.06103515625,-0.0128173828125,0.9034423828125,-0.431396484375,111.0,-15.0,-109.0,103165.0,-15.209000587463379,0,0
266.201027,-0.49053955078125,-0.773284912109375,-0.34271240234375,-0.209442138671875,-0.1220703125,0.06103515625,0.06103515625,-0.0128173828125,0.9034423828125,-0.431396484375,111.0,-15.0,-109.0,103165.0,-15.209000587463379,0,0
266.207996,-0.49053955078125,-0.773284912109375,-0.342742919921875,-0.20941162109375,-0.06103515625,0.1220703125,-0.06103515625,-0.0135498046875,0.9027099609375,-0.4288330078125,111.0,-15.0,-109.0,103165.0,-15.209000587463379,0,0
266.214996,-0.490570068359375,-0.773284912109375,-0.34271240234375,-0.209442138671875,0.1220703125,0.06103515625,0.1220703125,-0.0125732421875,0.90478515625,-0.4283447265625,111.0,-15.0,-109.0,103165.0,-15.209000587463379,0,0
266.221999,-0.490570068359375,-0.773284912109375,-0.34271240234375,-0.209442138671875,-0.54931640625,-0.1220703125,-0.18310546875,-0.0101318359375,0.9049072265625,-0.43115234375,111.0,-15.0,-109.0,103165.0,-15.209000587463379,0,0
266.228999,-0.490570068359375,-0.773284912109375,-0.34271240234375,-0.209442138671875,-0.91552734375,0.244140625,0.06103515625,-0.0107421875,0.902099609375,-0.4300537109375,111.0,-15.0,-109.0,103165.0,-15.209000587463379,0,0
266.249997,-0.490692138671875,-0.7734375,-0.34234619140625,-0.209197998046875,0.0,0.18310546875,0.06103515625,-0.0106201171875,0.903076171875,-0.4296875,110.0,-16.0,-111.0,103165.0,-15.209000587463379,0,0
266.256996,-0.490692138671875,-0.7734375,-0.34234619140625,-0.209197998046875,-0.244140625,0.30517578125,-0.06103515625,-0.0115966796875,0.9034423828125,-0.429931640625,110.0,-16.0,-111.0,103165.0,-15.209000587463379,0,0
266.264001,-0.490692138671875,-0.7734375,-0.34234619140625,-0.209228515625,0.0,0.0,-0.1220703125,-0.0115966796875,0.9017333984375,-0.4302978515625,110.0,-16.0,-111.0,103165.0,-15.209000587463379,0,0
266.270996,-0.490692138671875,-0.7734375,-0.34234619140625,-0.209228515625,-0.244140625,0.1220703125,0.1220703125,-0.0118408203125,0.903076171875,-0.430908203125,110.0,-16.0,-111.0,103165.0,-15.209000587463379,0,0
266.277996,-0.490692138671875,-0.7734375,-0.342315673828125,-0.209228515625,-0.06103515625,0.06103515625,-0.06103515625,-0.0098876953125,0.90283203125,-0.4307861328125,110.0,-16.0,-111.0,103165.0,-15.209000587463379,0,0
266.284999,-0.490692138671875,-0.7734375,-0.342315673828125,-0.209228515625,0.06103515625,0.1220703125,0.06103515625,-0.0128173828125,0.9041748046875,-0.430908203125,110.0,-16.0,-111.0,103165.0,-15.209000587463379,0,0
266.291027,-0.490692138671875,-0.7734375,-0.342315673828125,-0.209228515625,0.06103515625,0.1220703125,0.06103515625,-0.0128173828125,0.9041748046875,-0.430908203125,110.0,-16.0,-111.0,103165.0,-15.209000587463379,0,0
266.297995,-0.490692138671875,-0.7734375,-0.34234619140625,-0.209197998046875,0.6103515625,0.244140625,-0.244140625,-0.013671875,0.9036865234375,-0.4306640625,110.0,-16.0,-111.0,103165.0,-15.210000991821289,0,0
266.304995,-0.490692138671875,-0.7734375,-0.34234619140625,-0.209197998046875,-0.1220703125,0.1220703125,-0.06103515625,-0.0140380859375,0.9022216796875,-0.43212890625,110.0,-16.0,-111.0,103165.0,-15.210000991821289,0,0
266.311995,-0.490692138671875,-0.7734375,-0.34234619140625,-0.209197998046875,0.0,0.18310546875,0.1220703125,-0.0118408203125,0.9017333984375,-0.4317626953125,110.0,-16.0,-111.0,103165.0,-15.210000991821289,0,0
266.318998,-0.490692138671875,-0.7734375,-0.34234619140625,-0.209197998046875,-0.06103515625,0.06103515625,-0.18310546875,-0.0108642578125,0.90283203125,-0.431640625,110.0,-16.0,-111.0,103165.0,-15.210000991821289,0,0
266.339997,-0.490692138671875,-0.7734375,-0.34234619140625,-0.209197998046875,0.42724609375,0.1220703125,-0.1220703125,-0.0130615234375,0.904052734375,-0.4307861328125,110.0,-16.0,-111.0,103165.0,-15.210000991821289,0,0
266.346996,-0.490692138671875,-0.7734375,-0.34234619140625,-0.209197998046875,-0.48828125,0.30517578125,-0.244140625,-0.0135498046875,0.903076171875,-0.432373046875,111.0,-15.0,-112.0,103165.0,-15.210000991821289,0,0
266.353997,-0.49078369140625,-0.77362060546875,-0.34197998046875,-0.208953857421875,-0.54931640625,-0.06103515625,0.0,-0.013671875,0.903076171875,-0.4307861328125,111.0,-15.0,-112.0,103165.0,-15.210000991821289,0,0
266.360995,-0.49078369140625,-0.77362060546875,-0.34197998046875,-0.208953857421875,-0.06103515625,-0.1220703125,0.06103515625,-0.01416015625,0.9013671875,-0.4305419921875,111.0,-15.0,-112.0,103165.0,-15.210000991821289,0,0
266.367995,-0.49078369140625,-0.77362060546875,-0.34197998046875,-0.208953857421875,-0.3662109375,0.244140625,-0.1220703125,-0.0118408203125,0.9022216796875,-0.4302978515625,111.0,-15.0,-112.0,103165.0,-15.210000991821289,0,0
266.374995,-0.49078369140625,-0.77362060546875,-0.34197998046875,-0.208953857421875,0.48828125,0.3662109375,-0.06103515625,-0.0123291015625,0.9027099609375,-0.4312744140625,111.0,-15.0,-112.0,103165.0,-15.210000991821289,0,0
266.381998,-0.49078369140625,-0.77362060546875,-0.34197998046875,-0.208953857421875,-0.244140625,0.18310546875,0.0,-0.012939453125,0.9041748046875,-0.4310302734375,111.0,-15.0,-112.0,103165.0,-15.210000991821289,0,0
266.388031,-0.49078369140625,-0.77362060546875,-0.34197998046875,-0.208953857421875,-0.244140625,0.18310546875,0.0,-0.012939453125,0.9041748046875,-0.4310302734375,111.0,-15.0,-112.0,103165.0,-15.210000991821289,0,0
266.394995,-0.49078369140625,-0.77362060546875,-0.34197998046875,-0.208953857421875,0.1220703125,0.30517578125,0.0,-0.010986328125,0.9041748046875,-0.4305419921875,111.0,-15.0,-112.0,103165.0,-15.208001136779785,0,0
266.401995,-0.49078369140625,-0.77362060546875,-0.34197998046875,-0.208953857421875,-0.30517578125,-0.18310546875,-0.1220703125,-0.012451171875,0.9017333984375,-0.431884765625,111.0,-15.0,-112.0,103165.0,-15.208001136779785,0,0
266.408998,-0.49078369140625,-0.77362060546875,-0.34197998046875,-0.208953857421875,0.0,0.244140625,-0.06103515625,-0.0125732421875,0.904296875,-0.432373046875,111.0,-15.0,-112.0,103165.0,-15.208001136779785,0,0
266.415998,-0.49078369140625,-0.77362060546875,-0.34197998046875,-0.208953857421875,-0.18310546875,0.06103515625,0.1220703125,-0.0130615234375,0.9014892578125,-0.431396484375,111.0,-15.0,-112.0,103165.0,-15.208001136779785,0,0
266.422997,-0.49078369140625,-0.77362060546875,-0.34197998046875,-0.208953857421875,-0.30517578125,0.18310546875,0.06103515625,-0.012939453125,0.904296875,-0.4327392578125,111.0,-15.0,-112.0,103165.0,-15.208001136779785,0,0
266.429997,-0.49078369140625,-0.77362060546875,-0.34197998046875,-0.208953857421875,0.06103515625,0.0,-0.06103515625,-0.0123291015625,0.9046630859375,-0.4327392578125,111.0,-15.0,-112.0,103165.0,-15.208001136779785,0,0
266.436996,-0.49078369140625,-0.77362060546875,-0.34197998046875,-0.208953857421875,-0.1220703125,0.3662109375,0.0,-0.0107421875,0.9033203125,-0.4300537109375,111.0,-15.0,-112.0,103165.0,-15.208001136779785,0,0
266.443997,-0.49078369140625,-0.77362060546875,-0.34197998046875,-0.208953857421875,0.1220703125,0.3662109375,-0.1220703125,-0.0155029296875,0.90185546875,-0.4312744140625,111.0,-15.0,-112.0,103165.0,-15.208001136779785,0,0
266.450995,-0.4908447265625,-0.773712158203125,-0.34173583984375,-0.20880126953125,0.18310546875,0.1220703125,0.18310546875,-0.0140380859375,0.9036865234375,-0.4306640625,112.0,-16.0,-112.0,103165.0,-15.208001136779785,0,0
266.457995,-0.4908447265625,-0.773712158203125,-0.34173583984375,-0.20880126953125,-0.244140625,0.244140625,-0.06103515625,-0.0118408203125,0.90478515625,-0.43017578125,112.0,-16.0,-112.0,103165.0,-15.208001136779785,0,0
266.464995,-0.4908447265625,-0.773712158203125,-0.34173583984375,-0.20880126953125,-0.1220703125,-0.1220703125,-0.1220703125,-0.012939453125,0.905029296875,-0.4300537109375,112.0,-16.0,-112.0,103165.0,-15.208001136779785,0,0
266.471998,-0.4908447265625,-0.773712158203125,-0.34173583984375,-0.20880126953125,0.06103515625,-0.06103515625,-0.1220703125,-0.0128173828125,0.90478515625,-0.4324951171875,112.0,-16.0,-112.0,103165.0,-15.208001136779785,0,0
266.478031,-0.4908447265625,-0.773712158203125,-0.34173583984375,-0.20880126953125,0.06103515625,-0.06103515625,-0.1220703125,-0.0128173828125,0.90478515625,-0.4324951171875,112.0,-16.0,-112.0,103165.0,-15.208001136779785,0,0
266.484995,-0.4908447265625,-0.773712158203125,-0.34173583984375,-0.20880126953125,0.54931640625,0.54931640625,0.0,-0.012451171875,0.904052734375,-0.4312744140625,112.0,-16.0,-112.0,103165.0,-15.208001136779785,0,0
266.491995,-0.4908447265625,-0.773712158203125,-0.34173583984375,-0.20880126953125,-0.1220703125,0.1220703125,-0.06103515625,-0.0120849609375,0.9036865234375,-0.4315185546875,112.0,-16.0,-112.0,103165.0,-15.210000991821289,0,0
266.512997,-0.4908447265625,-0.773712158203125,-0.34173583984375,-0.208770751953125,0.30517578125,0.1220703125,0.06103515625,-0.011474609375,0.9033203125,-0.4317626953125,112.0,-16.0,-112.0,103165.0,-15.210000991821289,0,0
266.519997,-0.490875244140625,-0.773712158203125,-0.34173583984375,-0.208770751953125,0.42724609375,0.18310546875,-0.06103515625,-0.015380859375,0.90283203125,-0.43017578125,112.0,-16.0,-112.0,103165.0,-15.210000991821289,0,0
266.526996,-0.490875244140625,-0.773712158203125,-0.34173583984375,-0.208770751953125,-0.244140625,0.244140625,-0.1220703125,-0.012451171875,0.9036865234375,-0.430419921875,112.0,-16.0,-112.0,103165.0,-15.210000991821289,0,0
266.534001,-0.490875244140625,-0.773712158203125,-0.34173583984375,-0.208770751953125,-0.30517578125,0.06103515625,0.0,-0.012451171875,0.9022216796875,-0.4300537109375,112.0,-16.0,-112.0,103165.0,-15.210000991821289,0,0
266.540996,-0.490875244140625,-0.773712158203125,-0.34173583984375,-0.208770751953125,-0.18310546875,0.3662109375,-0.06103515625,-0.012939453125,0.9036865234375,-0.4307861328125,112.0,-16.0,-112.0,103165.0,-15.210000991821289,0,0
266.547996,-0.490875244140625,-0.773712158203125,-0.34173583984375,-0.208770751953125,-0.18310546875,0.244140625,0.0,-0.0107421875,0.9027099609375,-0.4310302734375,111.0,-15.0,-112.0,103165.0,-15.210000991821289,0,0
266.554999,-0.490966796875,-0.77386474609375,-0.34136962890625,-0.20855712890625,-0.30517578125,0.244140625,-0.1220703125,-0.0111083984375,0.9033203125,-0.430419921875,111.0,-15.0,-112.0,103165.0,-15.210000991821289,0,0
266.561999,-0.490966796875,-0.77386474609375,-0.34136962890625,-0.20855712890625,-0.1220703125,0.1220703125,0.06103515625,-0.01171875,0.903564453125,-0.4312744140625,111.0,-15.0,-112.0,103165.0,-15.210000991821289,0,0
266.568998,-0.490966796875,-0.77386474609375,-0.34136962890625,-0.20855712890625,-0.06103515625,0.244140625,-0.1220703125,-0.013916015625,0.90380859375,-0.4324951171875,111.0,-15.0,-112.0,103165.0,-15.210000991821289,0,0
266.57503,-0.490966796875,-0.77386474609375,-0.34136962890625,-0.20855712890625,-0.06103515625,0.244140625,-0.1220703125,-0.013916015625,0.90380859375,-0.4324951171875,111.0,-15.0,-112.0,103165.0,-15.210000991821289,0,0
266.581999,-0.490966796875,-0.77386474609375,-0.34136962890625,-0.20855712890625,-0.06103515625,0.244140625,-0.18310546875,-0.0107421875,0.90283203125,-0.43212890625,111.0,-15.0,-112.0,103165.0,-15.210000991821289,0,0
266.602997,-0.490966796875,-0.77386474609375,-0.34136962890625,-0.20855712890625,0.1220703125,0.1220703125,-0.18310546875,-0.013427734375,0.9034423828125,-0.4317626953125,111.0,-15.0,-112.0,103165.0,-15.208001136779785,0,0
266.609997,-0.490966796875,-0.77386474609375,-0.34136962890625,-0.20855712890625,-0.06103515625,0.18310546875,0.06103515625,-0.014404296875,0.90283203125,-0.4317626953125,111.0,-15.0,-112.0,103165.0,-15.208001136779785,0,0
266.616996,-0.490936279296875,-0.773895263671875,-0.34136962890625,-0.20855712890625,0.06103515625,0.1220703125,-0.1220703125,-0.01025390625,0.9005126953125,-0.4317626953125,111.0,-15.0,-112.0,103165.0,-15.208001136779785,0,0
266.623997,-0.490936279296875,-0.773895263671875,-0.34136962890625,-0.20855712890625,-0.54931640625,0.0,0.0,-0.0125732421875,0.9033203125,-0.430908203125,111.0,-15.0,-112.0,103165.0,-15.208001136779785,0,0
266.630995,-0.490936279296875,-0.773895263671875,-0.34136962890625,-0.20855712890625,-0.18310546875,0.30517578125,-0.06103515625,-0.01123046875,0.9017333984375,-0.43115234375,111.0,-15.0,-112.0,103165.0,-15.208001136779785,0,0
266.637995,-0.490936279296875,-0.773895263671875,-0.34136962890625,-0.20855712890625,0.0,0.1220703125,-0.06103515625,-0.0120849609375,0.903076171875,-0.432373046875,111.0,-15.0,-112.0,103165.0,-15.208001136779785,0,0
266.644995,-0.490936279296875,-0.773895263671875,-0.34136962890625,-0.20855712890625,0.30517578125,0.0,0.1220703125,-0.0126953125,0.9039306640625,-0.43017578125,111.0,-15.0,-112.0,103165.0,-15.208001136779785,0,0
266.651998,-0.49102783203125,-0.7740478515625,-0.34100341796875,-0.20831298828125,0.1220703125,0.48828125,0.06103515625,-0.01123046875,0.9034423828125,-0.4326171875,111.0,-16.0,-112.0,103165.0,-15.208001136779785,0,0
266.658998,-0.49102783203125,-0.7740478515625,-0.34100341796875,-0.20831298828125,0.1220703125,0.18310546875,-0.1220703125,-0.0128173828125,0.90185546875,-0.431640625,111.0,-16.0,-112.0,103165.0,-15.208001136779785,0,0
266.665025,-0.49102783203125,-0.7740478515625,-0.34100341796875,-0.20831298828125,0.1220703125,0.18310546875,-0.1220703125,-0.0128173828125,0.90185546875,-0.431640625,111.0,-16.0,-112.0,103165.0,-15.208001136779785,0,0
266.671995,-0.491058349609375,-0.7740478515625,-0.340972900390625,-0.20831298828125,-1.15966796875,-0.1220703125,0.1220703125,-0.013427734375,0.90234375,-0.430419921875,111.0,-16.0,-112.0,103165.0,-15.208001136779785,0,0
266.678998,-0.491058349609375,-0.7740478515625,-0.340972900390625,-0.20831298828125,-0.1220703125,0.18310546875,-0.244140625,-0.013427734375,0.9034423828125,-0.4320068359375,111.0,-16.0,-112.0,103165.0,-15.208001136779785,0,0
266.685998,-0.491058349609375,-0.7740478515625,-0.340972900390625,-0.20831298828125,-0.48828125,0.06103515625,0.06103515625,-0.0135498046875,0.9031982421875,-0.430419921875,111.0,-16.0,-112.0,103165.0,-15.208001136779785,0,0
266.692997,-0.491058349609375,-0.7740478515625,-0.340972900390625,-0.20831298828125,0.0,0.0,0.18310546875,-0.0123291015625,0.902587890625,-0.431396484375,111.0,-16.0,-112.0,103165.0,-15.211000442504883,0,0
266.699997,-0.491058349609375,-0.7740478515625,-0.340972900390625,-0.20831298828125,0.1220703125,0.1220703125,0.06103515625,-0.0130615234375,0.9033203125,-0.4334716796875,111.0,-16.0,-112.0,103165.0,-15.211000442504883,0,0
266.706996,-0.491058349609375,-0.7740478515625,-0.340972900390625,-0.20831298828125,0.1220703125,0.06103515625,-0.06103515625,-0.011962890625,0.9012451171875,-0.4324951171875,111.0,-16.0,-112.0,103165.0,-15.211000442504883,0,0
266.713997,-0.491058349609375,-0.7740478515625,-0.340972900390625,-0.20831298828125,0.06103515625,0.18310546875,-0.1220703125,-0.0113525390625,0.903564453125,-0.4307861328125,111.0,-16.0,-112.0,103165.0,-15.211000442504883,0,0
266.720995,-0.491058349609375,-0.7740478515625,-0.340972900390625,-0.20831298828125,-0.1220703125,0.3662109375,0.0,-0.0126953125,0.902587890625,-0.4306640625,111.0,-16.0,-112.0,103165.0,-15.211000442504883,0,0
266.727995,-0.491058349609375,-0.7740478515625,-0.340972900390625,-0.20831298828125,-0.244140625,0.30517578125,-0.18310546875,-0.01220703125,0.902587890625,-0.432373046875,111.0,-16.0,-112.0,103165.0,-15.211000442504883,0,0
266.734995,-0.491058349609375,-0.7740478515625,-0.340972900390625,-0.20831298828125,0.244140625,0.0,0.0,-0.0130615234375,0.902099609375,-0.4306640625,111.0,-16.0,-112.0,103165.0,-15.211000442504883,0,0
266.741998,-0.491058349609375,-0.7740478515625,-0.340972900390625,-0.20831298828125,0.0,0.30517578125,-0.1220703125,-0.01171875,0.9029541015625,-0.43115234375,111.0,-14.0,-112.0,103165.0,-15.211000442504883,0,0
266.748998,-0.49114990234375,-0.774200439453125,-0.34063720703125,-0.20806884765625,-0.8544921875,0.1220703125,0.0,-0.01416015625,0.902099609375,-0.4320068359375,111.0,-14.0,-112.0,103165.0,-15.211000442504883,0,0
266.755997,-0.49114990234375,-0.774200439453125,-0.34063720703125,-0.20806884765625,-0.18310546875,0.244140625,-0.06103515625,-0.0115966796875,0.90283203125,-0.4312744140625,111.0,-14.0,-112.0,103165.0,-15.211000442504883,0,0
266.775998,-0.49114990234375,-0.774200439453125,-0.340606689453125,-0.20806884765625,-0.42724609375,0.06103515625,-0.18310546875,-0.011962890625,0.90283203125,-0.4322509765625,111.0,-14.0,-112.0,103165.0,-15.211000442504883,0,0
266.782997,-0.49114990234375,-0.774200439453125,-0.34063720703125,-0.20806884765625,-0.06103515625,0.3662109375,-0.244140625,-0.0128173828125,0.9027099609375,-0.433349609375,111.0,-14.0,-112.0,103165.0,-15.211000442504883,0,0
266.789997,-0.49114990234375,-0.774200439453125,-0.34063720703125,-0.20806884765625,0.18310546875,0.18310546875,-0.1220703125,-0.0146484375,0.9046630859375,-0.4317626953125,111.0,-14.0,-112.0,103165.0,-15.211000442504883,0,0
266.796996,-0.49114990234375,-0.774200439453125,-0.34063720703125,-0.20806884765625,0.0,0.30517578125,0.1220703125,-0.0125732421875,0.903076171875,-0.4320068359375,111.0,-14.0,-112.0,103165.0,-15.210000991821289,0,0
266.804001,-0.49114990234375,-0.774200439453125,-0.34063720703125,-0.20806884765625,-0.48828125,0.06103515625,-0.06103515625,-0.010986328125,0.902099609375,-0.4302978515625,111.0,-14.0,-112.0,103165.0,-15.210000991821289,0,0
266.810996,-0.49114990234375,-0.774200439453125,-0.34063720703125,-0.20806884765625,0.67138671875,0.67138671875,-0.06103515625,-0.0137939453125,0.904541015625,-0.43212890625,111.0,-14.0,-112.0,103165.0,-15.210000991821289,0,0
266.817996,-0.49114990234375,-0.774200439453125,-0.34063720703125,-0.20806884765625,0.06103515625,0.0,-0.244140625,-0.0115966796875,0.9022216796875,-0.431640625,111.0,-14.0,-112.0,103165.0,-15.210000991821289,0,0
266.824999,-0.49114990234375,-0.774200439453125,-0.34063720703125,-0.208038330078125,0.0,0.18310546875,-0.1220703125,-0.013916015625,0.90478515625,-0.4305419921875,111.0,-14.0,-112.0,103165.0,-15.210000991821289,0,0
266.831999,-0.49114990234375,-0.774200439453125,-0.34063720703125,-0.208038330078125,-0.06103515625,0.1220703125,-0.244140625,-0.01318359375,0.9034423828125,-0.431396484375,111.0,-14.0,-112.0,103165.0,-15.210000991821289,0,0
266.838998,-0.49114990234375,-0.77423095703125,-0.34063720703125,-0.208038330078125,0.18310546875,0.18310546875,-0.06103515625,-0.012939453125,0.902099609375,-0.4324951171875,111.0,-14.0,-112.0,103165.0,-15.210000991821289,0,0
266.845997,-0.491241455078125,-0.774383544921875,-0.34027099609375,-0.207794189453125,-0.18310546875,0.30517578125,-0.1220703125,-0.0123291015625,0.9024658203125,-0.4326171875,110.0,-12.0,-112.0,103165.0,-15.210000991821289,0,0
266.865998,-0.491241455078125,-0.774383544921875,-0.34027099609375,-0.207794189453125,-0.1220703125,0.244140625,0.1220703125,-0.0125732421875,0.9034423828125,-0.431396484375,110.0,-12.0,-112.0,103165.0,-15.210000991821289,0,0
266.872997,-0.491241455078125,-0.774383544921875,-0.34027099609375,-0.20782470703125,0.0,0.30517578125,0.1220703125,-0.009765625,0.9041748046875,-0.4312744140625,110.0,-12.0,-112.0,103165.0,-15.210000991821289,0,0
266.879997,-0.491241455078125,-0.774383544921875,-0.34027099609375,-0.20782470703125,-0.3662109375,0.06103515625,-0.06103515625,-0.0126953125,0.903564453125,-0.43408203125,110.0,-12.0,-112.0,103165.0,-15.210000991821289,0,0
266.886996,-0.491241455078125,-0.774383544921875,-0.34027099609375,-0.207794189453125,0.18310546875,0.18310546875,0.0,-0.0150146484375,0.9014892578125,-0.4298095703125,110.0,-12.0,-112.0,103165.0,-15.210000991821289,0,0
266.893997,-0.491241455078125,-0.774383544921875,-0.34027099609375,-0.207794189453125,0.0,0.06103515625,0.0,-0.0162353515625,0.904052734375,-0.4310302734375,110.0,-12.0,-112.0,103165.0,-15.209000587463379,0,0
266.900995,-0.491241455078125,-0.774383544921875,-0.34027099609375,-0.207794189453125,0.1220703125,0.244140625,-0.1220703125,-0.0125732421875,0.9005126953125,-0.4317626953125,110.0,-12.0,-112.0,103165.0,-15.209000587463379,0,0
266.907995,-0.491241455078125,-0.774383544921875,-0.34027099609375,-0.207794189453125,0.06103515625,0.42724609375,0.244140625,-0.0107421875,0.89990234375,-0.42919921875,110.0,-12.0,-112.0,103165.0,-15.209000587463379,0,0
266.914995,-0.491241455078125,-0.774383544921875,-0.34027099609375,-0.207794189453125,0.18310546875,0.244140625,-0.06103515625,-0.012939453125,0.902587890625,-0.43212890625,110.0,-12.0,-112.0,103165.0,-15.209000587463379,0,0
266.921998,-0.4912109375,-0.774383544921875,-0.34027099609375,-0.207794189453125,0.48828125,0.18310546875,0.06103515625,-0.0115966796875,0.90234375,-0.4329833984375,110.0,-12.0,-112.0,103165.0,-15.209000587463379,0,0
266.928998,-0.4912109375,-0.774383544921875,-0.34027099609375,-0.20782470703125,-0.54931640625,0.48828125,-0.244140625,-0.011474609375,0.9041748046875,-0.4305419921875,110.0,-12.0,-112.0,103165.0,-15.209000587463379,0,0
266.935997,-0.4912109375,-0.774383544921875,-0.34027099609375,-0.207794189453125,0.1220703125,0.1220703125,0.18310546875,-0.01513671875,0.90283203125,-0.431884765625,110.0,-12.0,-112.0,103165.0,-15.209000587463379,0,0
266.942997,-0.4912109375,-0.774383544921875,-0.34027099609375,-0.207794189453125,-0.1220703125,0.244140625,-0.244140625,-0.0126953125,0.902099609375,-0.431396484375,110.0,-12.0,-112.0,103165.0,-15.209000587463379,0,0
266.949029,-0.4912109375,-0.774383544921875,-0.34027099609375,-0.207794189453125,-0.1220703125,0.244140625,-0.244140625,-0.0126953125,0.902099609375,-0.431396484375,110.0,-12.0,-112.0,103165.0,-15.209000587463379,0,0
266.955998,-0.4913330078125,-0.774566650390625,-0.33990478515625,-0.207550048828125,-0.18310546875,0.1220703125,0.0,-0.0135498046875,0.900634765625,-0.431884765625,110.0,-12.0,-112.0,103165.0,-15.209000587463379,0,0
266.962997,-0.4913330078125,-0.774566650390625,-0.33990478515625,-0.207550048828125,0.3662109375,0.244140625,0.1220703125,-0.013427734375,0.90380859375,-0.43115234375,110.0,-12.0,-112.0,103165.0,-15.209000587463379,0,0
266.969997,-0.4913330078125,-0.774566650390625,-0.33990478515625,-0.207550048828125,-0.42724609375,0.18310546875,-0.244140625,-0.01318359375,0.903076171875,-0.4320068359375,110.0,-12.0,-112.0,103165.0,-15.209000587463379,0,0
266.976996,-0.4913330078125,-0.774566650390625,-0.33990478515625,-0.207550048828125,0.06103515625,0.06103515625,-0.06103515625,-0.0113525390625,0.9013671875,-0.431640625,110.0,-12.0,-112.0,103165.0,-15.209000587463379,0,0
266.983997,-0.4913330078125,-0.774566650390625,-0.33990478515625,-0.207550048828125,0.48828125,-0.1220703125,0.1220703125,-0.0140380859375,0.90185546875,-0.43017578125,110.0,-12.0,-112.0,103165.0,-15.209000587463379,0,0
266.990995,-0.4913330078125,-0.774566650390625,-0.33990478515625,-0.207550048828125,0.1220703125,0.30517578125,0.06103515625,-0.0120849609375,0.90087890625,-0.4296875,110.0,-12.0,-112.0,103165.0,-15.209000587463379,0,0
266.997995,-0.4913330078125,-0.7745361328125,-0.33990478515625,-0.207550048828125,-0.1220703125,0.42724609375,-0.1220703125,-0.0142822265625,0.904052734375,-0.430419921875,110.0,-12.0,-112.0,103165.0,-15.209000587463379,0,0
267.004995,-0.4913330078125,-0.7745361328125,-0.33990478515625,-0.207550048828125,-0.1220703125,0.3662109375,-0.18310546875,-0.01611328125,0.9019775390625,-0.4305419921875,110.0,-12.0,-112.0,103165.0,-15.209000587463379,0,0
267.011998,-0.4913330078125,-0.7745361328125,-0.33990478515625,-0.20751953125,-0.244140625,0.3662109375,-0.06103515625,-0.0142822265625,0.9019775390625,-0.43115234375,110.0,-12.0,-112.0,103165.0,-15.209000587463379,0,0
267.018998,-0.491363525390625,-0.7745361328125,-0.33990478515625,-0.207550048828125,0.244140625,0.3662109375,-0.1220703125,-0.01220703125,0.90234375,-0.429931640625,110.0,-12.0,-112.0,103165.0,-15.209000587463379,0,0
267.039029,-0.4913330078125,-0.7745361328125,-0.33990478515625,-0.207550048828125,-0.06103515625,0.244140625,0.1220703125,-0.01318359375,0.90234375,-0.4320068359375,110.0,-12.0,-112.0,103165.0,-15.209000587463379,0,0
267.045998,-0.4913330078125,-0.7745361328125,-0.33990478515625,-0.207550048828125,-0.06103515625,0.30517578125,0.0,-0.0103759765625,0.903564453125,-0.4320068359375,109.0,-13.0,-112.0,103165.0,-15.209000587463379,0,0
267.052997,-0.491424560546875,-0.77471923828125,-0.33953857421875,-0.207305908203125,0.0,0.06103515625,0.06103515625,-0.0125732421875,0.9022216796875,-0.4306640625,109.0,-13.0,-112.0,103165.0,-15.209000587463379,0,0
267.059997,-0.491455078125,-0.77471923828125,-0.33953857421875,-0.207305908203125,-0.48828125,0.1220703125,-0.06103515625,-0.01416015625,0.9024658203125,-0.4306640625,109.0,-13.0,-112.0,103165.0,-15.209000587463379,0,0
267.066996,-0.491455078125,-0.77471923828125,-0.33953857421875,-0.207305908203125,0.30517578125,0.18310546875,0.0,-0.01171875,0.902587890625,-0.4310302734375,109.0,-13.0,-112.0,103165.0,-15.209000587463379,0,0
267.073997,-0.491424560546875,-0.77471923828125,-0.33953857421875,-0.207305908203125,-0.1220703125,-0.1220703125,0.18310546875,-0.0118408203125,0.9029541015625,-0.431884765625,109.0,-13.0,-112.0,103165.0,-15.209000587463379,0,0
267.080995,-0.491424560546875,-0.77471923828125,-0.33953857421875,-0.207305908203125,-0.1220703125,0.06103515625,-0.06103515625,-0.0133056640625,0.901611328125,-0.43212890625,109.0,-13.0,-112.0,103165.0,-15.209000587463379,0,0
267.087995,-0.491455078125,-0.77471923828125,-0.33953857421875,-0.207305908203125,0.0,0.18310546875,-0.1220703125,-0.013916015625,0.904296875,-0.4296875,109.0,-13.0,-112.0,103165.0,-15.209000587463379,0,0
267.094999,-0.491455078125,-0.77471923828125,-0.339508056640625,-0.207305908203125,0.06103515625,0.18310546875,-0.06103515625,-0.0107421875,0.90283203125,-0.430908203125,109.0,-13.0,-112.0,103165.0,-15.209000587463379,0,0
267.101999,-0.491455078125,-0.77471923828125,-0.339508056640625,-0.207305908203125,-0.06103515625,0.3662109375,0.0,-0.011474609375,0.9039306640625,-0.431396484375,109.0,-13.0,-112.0,103165.0,-15.209000587463379,0,0
267.108998,-0.491455078125,-0.77471923828125,-0.339508056640625,-0.207305908203125,0.18310546875,0.06103515625,0.0,-0.010009765625,0.9024658203125,-0.432373046875,109.0,-13.0,-112.0,103165.0,-15.209000587463379,0,0
267.129996,-0.491424560546875,-0.77471923828125,-0.339508056640625,-0.207305908203125,-0.6103515625,0.244140625,0.0,-0.01123046875,0.9034423828125,-0.4310302734375,109.0,-13.0,-112.0,103165.0,-15.209000587463379,0,0
267.136029,-0.491424560546875,-0.77471923828125,-0.339508056640625,-0.207305908203125,-0.6103515625,0.244140625,0.0,-0.01123046875,0.9034423828125,-0.4310302734375,109.0,-13.0,-112.0,103165.0,-15.209000587463379,0,0
267.142997,-0.491455078125,-0.77471923828125,-0.339508056640625,-0.207305908203125,-0.06103515625,0.1220703125,0.0,-0.01220703125,0.90283203125,-0.432373046875,109.0,-13.0,-112.0,103165.0,-15.211000442504883,0,0
267.149997,-0.49151611328125,-0.774810791015625,-0.339263916015625,-0.2071533203125,-0.244140625,-0.06103515625,0.18310546875,-0.014404296875,0.9010009765625,-0.4295654296875,109.0,-13.0,-111.0,103165.0,-15.211000442504883,0,0
267.156996,-0.49151611328125,-0.774810791015625,-0.339263916015625,-0.2071533203125,0.18310546875,0.30517578125,-0.1220703125,-0.0113525390625,0.902099609375,-0.4302978515625,109.0,-13.0,-111.0,103165.0,-15.211000442504883,0,0
267.164001,-0.49151611328125,-0.774810791015625,-0.339263916015625,-0.207122802734375,-0.06103515625,0.244140625,-0.06103515625,-0.0140380859375,0.9024658203125,-0.42919921875,109.0,-13.0,-111.0,103165.0,-15.211000442504883,0,0
267.170996,-0.49151611328125,-0.774810791015625,-0.339263916015625,-0.207122802734375,-0.1220703125,0.244140625,0.06103515625,-0.0145263671875,0.9017333984375,-0.431640625,109.0,-13.0,-111.0,103165.0,-15.211000442504883,0,0
267.177996,-0.49151611328125,-0.774810791015625,-0.339263916015625,-0.2071533203125,0.18310546875,0.1220703125,-0.06103515625,-0.01025390625,0.9019775390625,-0.431640625,109.0,-13.0,-111.0,103165.0,-15.211000442504883,0,0
267.184999,-0.49151611328125,-0.774810791015625,-0.339263916015625,-0.2071533203125,-0.244140625,-0.06103515625,-0.3662109375,-0.0150146484375,0.9044189453125,-0.431884765625,109.0,-13.0,-111.0,103165.0,-15.211000442504883,0,0
267.191998,-0.49151611328125,-0.774810791015625,-0.339263916015625,-0.2071533203125,0.1220703125,0.1220703125,0.1220703125,-0.0125732421875,0.901611328125,-0.4307861328125,109.0,-13.0,-111.0,103165.0,-15.211000442504883,0,0
267.198998,-0.49151611328125,-0.774810791015625,-0.339263916015625,-0.2071533203125,-0.54931640625,-0.18310546875,-0.18310546875,-0.010498046875,0.9036865234375,-0.4310302734375,109.0,-13.0,-111.0,103165.0,-15.211000442504883,0,0
267.205997,-0.49151611328125,-0.774810791015625,-0.339263916015625,-0.2071533203125,0.6103515625,0.244140625,0.0,-0.0135498046875,0.90380859375,-0.4295654296875,109.0,-13.0,-111.0,103165.0,-15.211000442504883,0,0
267.212997,-0.49151611328125,-0.774810791015625,-0.339263916015625,-0.2071533203125,-0.244140625,0.1220703125,-0.18310546875,-0.0106201171875,0.89990234375,-0.433349609375,109.0,-13.0,-111.0,103165.0,-15.211000442504883,0,0
267.219996,-0.49151611328125,-0.774810791015625,-0.339263916015625,-0.2071533203125,0.1220703125,0.244140625,-0.1220703125,-0.013671875,0.9017333984375,-0.4320068359375,109.0,-13.0,-111.0,103165.0,-15.211000442504883,0,0
267.226029,-0.49151611328125,-0.774810791015625,-0.339263916015625,-0.2071533203125,0.1220703125,0.244140625,-0.1220703125,-0.013671875,0.9017333984375,-0.4320068359375,109.0,-13.0,-111.0,103165.0,-15.211000442504883,0,0
267.232997,-0.49151611328125,-0.77484130859375,-0.339263916015625,-0.2071533203125,-0.18310546875,0.30517578125,-0.06103515625,-0.0111083984375,0.904052734375,-0.4306640625,109.0,-13.0,-111.0,103165.0,-15.211000442504883,0,0
267.239997,-0.49151611328125,-0.77484130859375,-0.339263916015625,-0.2071533203125,0.0,0.244140625,0.1220703125,-0.010986328125,0.90478515625,-0.431884765625,109.0,-13.0,-111.0,103165.0,-15.210000991821289,0,0
267.246996,-0.491546630859375,-0.774932861328125,-0.339019775390625,-0.207000732421875,-0.30517578125,0.1220703125,-0.1220703125,-0.010009765625,0.9024658203125,-0.4307861328125,109.0,-13.0,-111.0,103165.0,-15.210000991821289,0,0
267.253997,-0.491546630859375,-0.774932861328125,-0.339019775390625,-0.207000732421875,-0.244140625,-0.06103515625,0.0,-0.0128173828125,0.9044189453125,-0.4334716796875,109.0,-13.0,-111.0,103165.0,-15.210000991821289,0,0
267.260995,-0.491546630859375,-0.774932861328125,-0.339019775390625,-0.207000732421875,-0.244140625,0.244140625,-0.18310546875,-0.013427734375,0.9031982421875,-0.4339599609375,109.0,-13.0,-111.0,103165.0,-15.210000991821289,0,0
267.267995,-0.491546630859375,-0.77496337890625,-0.339019775390625,-0.207000732421875,-0.06103515625,0.18310546875,0.18310546875,-0.0126953125,0.9014892578125,-0.4310302734375,109.0,-13.0,-111.0,103165.0,-15.210000991821289,0,0
267.274995,-0.491546630859375,-0.77496337890625,-0.339019775390625,-0.207000732421875,0.06103515625,0.18310546875,0.0,-0.0106201171875,0.90283203125,-0.4317626953125,109.0,-13.0,-111.0,103165.0,-15.210000991821289,0,0
267.281998,-0.491546630859375,-0.77496337890625,-0.339019775390625,-0.207000732421875,0.18310546875,0.1220703125,-0.244140625,-0.013916015625,0.9024658203125,-0.4307861328125,109.0,-13.0,-111.0,103165.0,-15.210000991821289,0,0
267.302997,-0.491546630859375,-0.77496337890625,-0.3389892578125,-0.207000732421875,-0.06103515625,0.1220703125,0.06103515625,-0.0123291015625,0.9039306640625,-0.43115234375,109.0,-13.0,-111.0,103165.0,-15.210000991821289,0,0
267.309996,-0.491546630859375,-0.77496337890625,-0.3389892578125,-0.207000732421875,0.0,0.18310546875,-0.244140625,-0.0108642578125,0.90283203125,-0.43017578125,109.0,-13.0,-111.0,103165.0,-15.210000991821289,0,0
267.316997,-0.491546630859375,-0.77496337890625,-0.3389892578125,-0.207000732421875,-0.30517578125,0.244140625,-0.30517578125,-0.0123291015625,0.902587890625,-0.43310546875,109.0,-13.0,-111.0,103165.0,-15.210000991821289,0,0
267.323028,-0.491546630859375,-0.77496337890625,-0.3389892578125,-0.207000732421875,-0.30517578125,0.244140625,-0.30517578125,-0.0123291015625,0.902587890625,-0.43310546875,109.0,-13.0,-111.0,103165.0,-15.210000991821289,0,0
267.329997,-0.491546630859375,-0.77496337890625,-0.3389892578125,-0.207000732421875,-0.48828125,0.244140625,-0.1220703125,-0.0145263671875,0.902099609375,-0.4326171875,109.0,-13.0,-111.0,103165.0,-15.210000991821289,0,0
267.336996,-0.491546630859375,-0.77496337890625,-0.339019775390625,-0.207000732421875,-0.1220703125,0.244140625,0.06103515625,-0.0140380859375,0.90283203125,-0.4322509765625,109.0,-13.0,-111.0,103165.0,-15.210000991821289,0,0
267.343997,-0.491546630859375,-0.77496337890625,-0.339019775390625,-0.207000732421875,-0.1220703125,0.18310546875,-0.06103515625,-0.0135498046875,0.9017333984375,-0.4306640625,109.0,-13.0,-111.0,103165.0,-15.211000442504883,0,0
267.350995,-0.491607666015625,-0.775054931640625,-0.3387451171875,-0.206817626953125,0.48828125,0.06103515625,-0.06103515625,-0.0126953125,0.9033203125,-0.431884765625,108.0,-14.0,-109.0,103165.0,-15.211000442504883,0,0
267.357995,-0.491607666015625,-0.775054931640625,-0.3387451171875,-0.20684814453125,0.0,0.48828125,-0.06103515625,-0.0113525390625,0.90283203125,-0.4305419921875,108.0,-14.0,-109.0,103165.0,-15.211000442504883,0,0
267.364995,-0.491607666015625,-0.77508544921875,-0.3387451171875,-0.20684814453125,-0.1220703125,0.18310546875,-0.1220703125,-0.01171875,0.90283203125,-0.4322509765625,108.0,-14.0,-109.0,103165.0,-15.211000442504883,0,0
267.385997,-0.491607666015625,-0.77508544921875,-0.3387451171875,-0.20684814453125,0.244140625,0.244140625,-0.244140625,-0.0111083984375,0.9027099609375,-0.43115234375,108.0,-14.0,-109.0,103165.0,-15.211000442504883,0,0
267.392997,-0.491607666015625,-0.77508544921875,-0.3387451171875,-0.20684814453125,-0.18310546875,0.06103515625,0.06103515625,-0.0123291015625,0.9024658203125,-0.4296875,108.0,-14.0,-109.0,103165.0,-15.211000442504883,0,0
267.399996,-0.491607666015625,-0.775054931640625,-0.3387451171875,-0.20684814453125,-0.1220703125,0.18310546875,-0.1220703125,-0.01318359375,0.901611328125,-0.43017578125,108.0,-14.0,-109.0,103165.0,-15.211000442504883,0,0
267.407001,-0.491607666015625,-0.77508544921875,-0.3387451171875,-0.206817626953125,0.0,0.30517578125,-0.06103515625,-0.0126953125,0.902587890625,-0.4326171875,108.0,-14.0,-109.0,103165.0,-15.211000442504883,0,0
267.413033,-0.491607666015625,-0.77508544921875,-0.3387451171875,-0.206817626953125,0.0,0.30517578125,-0.06103515625,-0.0126953125,0.902587890625,-0.4326171875,108.0,-14.0,-109.0,103165.0,-15.211000442504883,0,0
267.419997,-0.491607666015625,-0.77508544921875,-0.338775634765625,-0.206817626953125,-0.54931640625,-0.3662109375,-0.1220703125,-0.014404296875,0.903564453125,-0.4310302734375,108.0,-14.0,-109.0,103165.0,-15.211000442504883,0,0
267.426996,-0.491607666015625,-0.775054931640625,-0.3387451171875,-0.20684814453125,0.06103515625,0.1220703125,-0.18310546875,-0.01171875,0.904296875,-0.428955078125,108.0,-14.0,-109.0,103165.0,-15.211000442504883,0,0
267.434001,-0.491607666015625,-0.775054931640625,-0.3387451171875,-0.20684814453125,0.244140625,0.30517578125,0.0,-0.012451171875,0.903564453125,-0.4307861328125,108.0,-14.0,-109.0,103165.0,-15.211000442504883,0,0
267.440996,-0.491607666015625,-0.775054931640625,-0.3387451171875,-0.20684814453125,-0.06103515625,0.18310546875,-0.244140625,-0.0125732421875,0.9014892578125,-0.4310302734375,108.0,-14.0,-108.0,103165.0,-15.209000587463379,0,0
267.447996,-0.491668701171875,-0.775177001953125,-0.3385009765625,-0.2066650390625,-0.18310546875,0.18310546875,0.1220703125,-0.013427734375,0.900390625,-0.431396484375,108.0,-14.0,-108.0,103165.0,-15.209000587463379,0,0
267.454999,-0.491668701171875,-0.775177001953125,-0.3385009765625,-0.2066650390625,-0.18310546875,0.30517578125,0.18310546875,-0.01123046875,0.9022216796875,-0.430419921875,108.0,-14.0,-108.0,103165.0,-15.209000587463379,0,0
267.461999,-0.491668701171875,-0.775177001953125,-0.3385009765625,-0.2066650390625,0.18310546875,0.30517578125,-0.1220703125,-0.0135498046875,0.9022216796875,-0.431396484375,108.0,-14.0,-108.0,103165.0,-15.209000587463379,0,0
267.468998,-0.491668701171875,-0.775177001953125,-0.3385009765625,-0.2066650390625,0.0,0.0,-0.1220703125,-0.0106201171875,0.90234375,-0.4300537109375,108.0,-14.0,-108.0,103165.0,-15.209000587463379,0,0
267.475997,-0.491668701171875,-0.775177001953125,-0.3385009765625,-0.2066650390625,0.06103515625,0.06103515625,0.0,-0.0128173828125,0.90478515625,-0.4322509765625,108.0,-14.0,-108.0,103165.0,-15.209000587463379,0,0
267.482997,-0.491668701171875,-0.775177001953125,-0.3385009765625,-0.2066650390625,-0.06103515625,0.3662109375,0.0,-0.01220703125,0.9019775390625,-0.4307861328125,108.0,-14.0,-108.0,103165.0,-15.209000587463379,0,0
267.489996,-0.491668701171875,-0.775177001953125,-0.3385009765625,-0.2066650390625,0.06103515625,0.30517578125,0.18310546875,-0.0128173828125,0.9049072265625,-0.4312744140625,108.0,-14.0,-108.0,103165.0,-15.209000587463379,0,0
267.496997,-0.491668701171875,-0.775177001953125,-0.3385009765625,-0.206695556640625,-0.06103515625,0.06103515625,0.06103515625,-0.011474609375,0.90185546875,-0.43017578125,108.0,-14.0,-108.0,103165.0,-15.209000587463379,0,0
267.503995,-0.49169921875,-0.775177001953125,-0.3385009765625,-0.206695556640625,-0.1220703125,0.06103515625,0.06103515625,-0.0133056640625,0.905029296875,-0.429931640625,108.0,-14.0,-108.0,103165.0,-15.209000587463379,0,0
267.510023,-0.49169921875,-0.775177001953125,-0.3385009765625,-0.206695556640625,-0.1220703125,0.06103515625,0.06103515625,-0.0133056640625,0.905029296875,-0.429931640625,108.0,-14.0,-108.0,103165.0,-15.209000587463379,0,0
267.516996,-0.49169921875,-0.775177001953125,-0.3385009765625,-0.206695556640625,-0.3662109375,0.18310546875,0.0,-0.010498046875,0.9046630859375,-0.430908203125,108.0,-14.0,-108.0,103165.0,-15.209000587463379,0,0
267.523997,-0.49169921875,-0.775177001953125,-0.3385009765625,-0.206695556640625,0.1220703125,0.48828125,0.0,-0.01123046875,0.901123046875,-0.4312744140625,108.0,-14.0,-108.0,103165.0,-15.209000587463379,0,0
267.530995,-0.49169921875,-0.775177001953125,-0.338470458984375,-0.206695556640625,-0.06103515625,0.18310546875,-0.18310546875,-0.0108642578125,0.900390625,-0.4305419921875,108.0,-14.0,-108.0,103165.0,-15.209000587463379,0,0
267.537995,-0.49163818359375,-0.77520751953125,-0.3385009765625,-0.206695556640625,1.708984375,0.244140625,0.06103515625,-0.0113525390625,0.9005126953125,-0.4281005859375,108.0,-14.0,-108.0,103165.0,-15.209000587463379,0,0
267.558998,-0.491729736328125,-0.775299072265625,-0.338226318359375,-0.206512451171875,-0.244140625,0.42724609375,-0.244140625,-0.0137939453125,0.9031982421875,-0.4285888671875,108.0,-15.0,-109.0,103165.0,-15.210000991821289,0,0
267.565997,-0.491729736328125,-0.775299072265625,-0.338226318359375,-0.206512451171875,-0.30517578125,0.18310546875,-0.1220703125,-0.0125732421875,0.901611328125,-0.431640625,108.0,-15.0,-109.0,103165.0,-15.210000991821289,0,0
267.572997,-0.491729736328125,-0.775299072265625,-0.338226318359375,-0.206512451171875,0.1220703125,0.54931640625,0.0,-0.01171875,0.900634765625,-0.431884765625,108.0,-15.0,-109.0,103165.0,-15.210000991821289,0,0
267.579996,-0.491729736328125,-0.775299072265625,-0.338226318359375,-0.206512451171875,0.1220703125,0.244140625,0.0,-0.01318359375,0.904052734375,-0.428955078125,108.0,-15.0,-109.0,103165.0,-15.210000991821289,0,0
267.586997,-0.491729736328125,-0.775299072265625,-0.338226318359375,-0.206512451171875,-0.3662109375,0.1220703125,-0.06103515625,-0.01318359375,0.90283203125,-0.429443359375,108.0,-15.0,-109.0,103165.0,-15.210000991821289,0,0
267.593995,-0.491729736328125,-0.775299072265625,-0.338226318359375,-0.206512451171875,-0.3662109375,0.244140625,-0.18310546875,-0.0135498046875,0.903076171875,-0.4296875,108.0,-15.0,-109.0,103165.0,-15.210000991821289,0,0
267.600023,-0.491729736328125,-0.775299072265625,-0.338226318359375,-0.206512451171875,-0.3662109375,0.244140625,-0.18310546875,-0.0135498046875,0.903076171875,-0.4296875,108.0,-15.0,-109.0,103165.0,-15.210000991821289,0,0
267.606996,-0.491729736328125,-0.775299072265625,-0.338226318359375,-0.206512451171875,0.54931640625,0.0,-0.1220703125,-0.012939453125,0.9012451171875,-0.4317626953125,108.0,-15.0,-109.0,103165.0,-15.210000991821289,0,0
267.613997,-0.491729736328125,-0.775299072265625,-0.338226318359375,-0.206512451171875,-0.18310546875,0.0,0.0,-0.0133056640625,0.9044189453125,-0.4307861328125,108.0,-15.0,-109.0,103165.0,-15.210000991821289,0,0
267.620995,-0.491729736328125,-0.775299072265625,-0.338226318359375,-0.206512451171875,-0.1220703125,0.42724609375,0.1220703125,-0.011962890625,0.9010009765625,-0.4307861328125,108.0,-15.0,-109.0,103165.0,-15.210000991821289,0,0
267.627995,-0.49176025390625,-0.775299072265625,-0.338226318359375,-0.206512451171875,0.0,0.1220703125,-0.18310546875,-0.012939453125,0.9029541015625,-0.4293212890625,108.0,-15.0,-109.0,103165.0,-15.210000991821289,0,0
267.648998,-0.4918212890625,-0.775390625,-0.337982177734375,-0.20635986328125,0.1220703125,0.30517578125,-0.1220703125,-0.0111083984375,0.9033203125,-0.431396484375,108.0,-16.0,-109.0,103165.0,-15.211000442504883,0,0
267.655997,-0.4918212890625,-0.775390625,-0.337982177734375,-0.20635986328125,0.1220703125,0.06103515625,0.06103515625,-0.0111083984375,0.9000244140625,-0.430908203125,108.0,-16.0,-109.0,103165.0,-15.211000442504883,0,0
267.662997,-0.4918212890625,-0.775390625,-0.337982177734375,-0.20635986328125,-0.30517578125,0.48828125,0.0,-0.0126953125,0.902587890625,-0.4307861328125,108.0,-16.0,-109.0,103165.0,-15.211000442504883,0,0
267.669996,-0.4918212890625,-0.775390625,-0.337982177734375,-0.20635986328125,-0.67138671875,0.0,0.0,-0.0123291015625,0.903076171875,-0.432373046875,108.0,-16.0,-109.0,103165.0,-15.211000442504883,0,0
267.676997,-0.4918212890625,-0.775421142578125,-0.337982177734375,-0.20635986328125,0.18310546875,0.244140625,0.0,-0.010498046875,0.900634765625,-0.431396484375,108.0,-16.0,-109.0,103165.0,-15.211000442504883,0,0
267.710996,-0.4918212890625,-0.775421142578125,-0.337982177734375,-0.20635986328125,-0.06103515625,0.30517578125,-0.244140625,-0.011962890625,0.9024658203125,-0.4306640625,108.0,-16.0,-109.0,103165.0,-15.211000442504883,0,0
267.717996,-0.4918212890625,-0.775390625,-0.337982177734375,-0.20635986328125,0.0,0.0,-0.18310546875,-0.013916015625,0.90478515625,-0.4302978515625,108.0,-16.0,-109.0,103165.0,-15.211000442504883,0,0
267.724999,-0.4918212890625,-0.775390625,-0.337982177734375,-0.20635986328125,-0.1220703125,0.3662109375,-0.1220703125,-0.010986328125,0.9031982421875,-0.43115234375,108.0,-16.0,-109.0,103165.0,-15.211000442504883,0,0
267.731999,-0.4918212890625,-0.775390625,-0.337982177734375,-0.206390380859375,-0.06103515625,0.18310546875,0.0,-0.0111083984375,0.9031982421875,-0.4306640625,108.0,-16.0,-109.0,103165.0,-15.211000442504883,0,0
267.738998,-0.4918212890625,-0.775390625,-0.337982177734375,-0.206390380859375,-0.06103515625,0.1220703125,0.244140625,-0.013427734375,0.9034423828125,-0.430419921875,108.0,-16.0,-109.0,103165.0,-15.211000442504883,0,0
267.745997,-0.4918212890625,-0.775390625,-0.337982177734375,-0.206390380859375,0.0,0.0,-0.1220703125,-0.0120849609375,0.9027099609375,-0.428955078125,108.0,-17.0,-111.0,103165.0,-15.210000991821289,0,0
267.752997,-0.491973876953125,-0.775604248046875,-0.33746337890625,-0.2060546875,0.06103515625,0.18310546875,0.06103515625,-0.013916015625,0.9034423828125,-0.431884765625,108.0,-17.0,-111.0,103165.0,-15.210000991821289,0,0
267.759996,-0.491973876953125,-0.775604248046875,-0.33746337890625,-0.2060546875,-0.18310546875,0.244140625,-0.244140625,-0.01220703125,0.902587890625,-0.4310302734375,108.0,-17.0,-111.0,103165.0,-15.210000991821289,0,0
267.767001,-0.491973876953125,-0.775604248046875,-0.33746337890625,-0.2060546875,0.42724609375,0.3662109375,0.30517578125,-0.0107421875,0.90234375,-0.4298095703125,108.0,-17.0,-111.0,103165.0,-15.210000991821289,0,0
267.773996,-0.491973876953125,-0.775604248046875,-0.33746337890625,-0.2060546875,-0.244140625,0.30517578125,0.1220703125,-0.0128173828125,0.90380859375,-0.4307861328125,108.0,-17.0,-111.0,103165.0,-15.210000991821289,0,0
267.780996,-0.491973876953125,-0.775604248046875,-0.33746337890625,-0.2060546875,-0.244140625,0.30517578125,-0.244140625,-0.0128173828125,0.9022216796875,-0.4306640625,108.0,-17.0,-111.0,103165.0,-15.210000991821289,0,0
267.787027,-0.491973876953125,-0.775604248046875,-0.33746337890625,-0.2060546875,-0.244140625,0.30517578125,-0.244140625,-0.0128173828125,0.9022216796875,-0.4306640625,108.0,-17.0,-111.0,103165.0,-15.210000991821289,0,0
267.793997,-0.491973876953125,-0.775604248046875,-0.33746337890625,-0.2060546875,0.0,0.18310546875,0.1220703125,-0.0106201171875,0.902099609375,-0.43115234375,108.0,-17.0,-111.0,103165.0,-15.210000991821289,0,0
267.800995,-0.491973876953125,-0.775604248046875,-0.33746337890625,-0.2060546875,-0.1220703125,0.06103515625,0.06103515625,-0.0111083984375,0.902587890625,-0.43115234375,108.0,-17.0,-111.0,103165.0,-15.210000991821289,0,0
267.821998,-0.491973876953125,-0.775604248046875,-0.33746337890625,-0.2060546875,-0.30517578125,0.06103515625,-0.18310546875,-0.0113525390625,0.901611328125,-0.432861328125,108.0,-17.0,-111.0,103165.0,-15.210000991821289,0,0
267.828998,-0.491973876953125,-0.775604248046875,-0.33746337890625,-0.2060546875,-0.3662109375,0.1220703125,-0.06103515625,-0.0115966796875,0.901611328125,-0.4306640625,108.0,-17.0,-111.0,103165.0,-15.210000991821289,0,0
267.835997,-0.491973876953125,-0.775604248046875,-0.33746337890625,-0.2060546875,0.30517578125,0.3662109375,-0.1220703125,-0.011962890625,0.9036865234375,-0.431640625,108.0,-17.0,-111.0,103165.0,-15.210000991821289,0,0
267.842997,-0.491943359375,-0.775634765625,-0.33746337890625,-0.2060546875,-0.9765625,-0.06103515625,-0.06103515625,-0.0113525390625,0.9031982421875,-0.4310302734375,109.0,-17.0,-111.0,103165.0,-15.209000587463379,0,0
267.849996,-0.492095947265625,-0.775848388671875,-0.336944580078125,-0.20574951171875,-0.06103515625,0.48828125,-0.06103515625,-0.011962890625,0.90185546875,-0.432373046875,109.0,-17.0,-111.0,103165.0,-15.209000587463379,0,0
267.856997,-0.492095947265625,-0.775848388671875,-0.336944580078125,-0.20574951171875,-0.18310546875,0.06103515625,0.06103515625,-0.0137939453125,0.9022216796875,-0.4324951171875,109.0,-17.0,-111.0,103165.0,-15.209000587463379,0,0
267.863995,-0.492095947265625,-0.775848388671875,-0.33697509765625,-0.20574951171875,-0.244140625,0.1220703125,-0.1220703125,-0.013671875,0.9022216796875,-0.4306640625,109.0,-17.0,-111.0,103165.0,-15.209000587463379,0,0
267.870995,-0.492095947265625,-0.775848388671875,-0.33697509765625,-0.20574951171875,0.0,0.30517578125,-0.18310546875,-0.01416015625,0.901611328125,-0.4322509765625,109.0,-17.0,-111.0,103165.0,-15.209000587463379,0,0
267.877027,-0.492095947265625,-0.775848388671875,-0.33697509765625,-0.20574951171875,0.0,0.30517578125,-0.18310546875,-0.01416015625,0.901611328125,-0.4322509765625,109.0,-17.0,-111.0,103165.0,-15.209000587463379,0,0
267.883997,-0.4920654296875,-0.775848388671875,-0.33697509765625,-0.20574951171875,-0.18310546875,0.244140625,-0.06103515625,-0.0111083984375,0.9005126953125,-0.4302978515625,109.0,-17.0,-111.0,103165.0,-15.209000587463379,0,0
267.890995,-0.4920654296875,-0.775848388671875,-0.33697509765625,-0.205718994140625,-0.06103515625,-0.1220703125,0.18310546875,-0.0135498046875,0.904296875,-0.4320068359375,109.0,-17.0,-111.0,103165.0,-15.209000587463379,0,0
267.911998,-0.4920654296875,-0.775848388671875,-0.33697509765625,-0.20574951171875,0.0,0.244140625,0.1220703125,-0.0123291015625,0.9027099609375,-0.4312744140625,109.0,-17.0,-111.0,103165.0,-15.209000587463379,0,0
267.918998,-0.4920654296875,-0.775848388671875,-0.33697509765625,-0.20574951171875,-0.54931640625,0.1220703125,0.0,-0.011474609375,0.9029541015625,-0.43310546875,109.0,-17.0,-111.0,103165.0,-15.209000587463379,0,0
267.925997,-0.4920654296875,-0.775848388671875,-0.336944580078125,-0.20574951171875,-0.42724609375,0.1220703125,-0.06103515625,-0.0108642578125,0.903076171875,-0.4305419921875,109.0,-17.0,-111.0,103165.0,-15.209000587463379,0,0
267.932997,-0.4920654296875,-0.775848388671875,-0.33697509765625,-0.20574951171875,0.0,0.18310546875,0.0,-0.0135498046875,0.903076171875,-0.4317626953125,109.0,-17.0,-111.0,103165.0,-15.209000587463379,0,0
267.939996,-0.4920654296875,-0.775848388671875,-0.33697509765625,-0.20574951171875,0.18310546875,0.06103515625,-0.06103515625,-0.012939453125,0.9019775390625,-0.4320068359375,109.0,-17.0,-111.0,103165.0,-15.209000587463379,0,0
267.946997,-0.4921875,-0.77606201171875,-0.336456298828125,-0.205413818359375,0.1220703125,0.06103515625,0.0,-0.0118408203125,0.902587890625,-0.429931640625,109.0,-17.0,-111.0,103165.0,-15.211000442504883,0,0
267.953995,-0.4921875,-0.77606201171875,-0.336456298828125,-0.205413818359375,-0.244140625,0.1220703125,-0.06103515625,-0.0128173828125,0.9013671875,-0.4317626953125,109.0,-17.0,-111.0,103165.0,-15.211000442504883,0,0
267.960995,-0.4921875,-0.77606201171875,-0.336456298828125,-0.2054443359375,0.30517578125,-0.06103515625,-0.06103515625,-0.012939453125,0.9022216796875,-0.429931640625,109.0,-17.0,-111.0,103165.0,-15.211000442504883,0,0
267.967995,-0.4921875,-0.77606201171875,-0.336456298828125,-0.2054443359375,-0.244140625,0.1220703125,-0.06103515625,-0.0108642578125,0.9010009765625,-0.431884765625,109.0,-17.0,-111.0,103165.0,-15.211000442504883,0,0
267.974022,-0.4921875,-0.77606201171875,-0.336456298828125,-0.2054443359375,-0.244140625,0.1220703125,-0.06103515625,-0.0108642578125,0.9010009765625,-0.431884765625,109.0,-17.0,-111.0,103165.0,-15.211000442504883,0,0
267.980995,-0.4921875,-0.776092529296875,-0.336456298828125,-0.205413818359375,-0.244140625,0.3662109375,0.1220703125,-0.0133056640625,0.9036865234375,-0.4307861328125,109.0,-17.0,-111.0,103165.0,-15.211000442504883,0,0
267.987995,-0.4921875,-0.77606201171875,-0.336456298828125,-0.205413818359375,-0.244140625,0.1220703125,-0.1220703125,-0.01513671875,0.9039306640625,-0.4296875,109.0,-17.0,-111.0,103165.0,-15.211000442504883,0,0
267.994999,-0.4921875,-0.77606201171875,-0.336456298828125,-0.205413818359375,-0.1220703125,0.18310546875,-0.18310546875,-0.0147705078125,0.9034423828125,-0.4310302734375,109.0,-17.0,-111.0,103165.0,-15.211000442504883,0,0
268.001999,-0.4921875,-0.77606201171875,-0.336456298828125,-0.205413818359375,0.244140625,0.06103515625,-0.06103515625,-0.0115966796875,0.9022216796875,-0.4317626953125,109.0,-17.0,-111.0,103165.0,-15.211000442504883,0,0
268.008998,-0.4921875,-0.77606201171875,-0.336456298828125,-0.205413818359375,0.06103515625,0.1220703125,-0.244140625,-0.012451171875,0.9039306640625,-0.4334716796875,109.0,-17.0,-111.0,103165.0,-15.211000442504883,0,0
268.015997,-0.4921875,-0.77606201171875,-0.336456298828125,-0.205413818359375,0.3662109375,0.06103515625,-0.06103515625,-0.0113525390625,0.9024658203125,-0.43115234375,109.0,-17.0,-111.0,103165.0,-15.211000442504883,0,0
268.022997,-0.4921875,-0.77606201171875,-0.336456298828125,-0.205413818359375,0.06103515625,0.1220703125,0.06103515625,-0.0135498046875,0.9027099609375,-0.431640625,109.0,-17.0,-111.0,103165.0,-15.211000442504883,0,0
268.029996,-0.4921875,-0.77606201171875,-0.336456298828125,-0.205413818359375,0.06103515625,0.30517578125,-0.18310546875,-0.0120849609375,0.904541015625,-0.4306640625,109.0,-17.0,-111.0,103165.0,-15.211000442504883,0,0
268.037001,-0.4921875,-0.77606201171875,-0.336456298828125,-0.205413818359375,0.06103515625,0.0,-0.06103515625,-0.0133056640625,0.9053955078125,-0.4305419921875,109.0,-17.0,-111.0,103165.0,-15.211000442504883,0,0
268.043996,-0.4921875,-0.77606201171875,-0.336456298828125,-0.205413818359375,-0.06103515625,0.244140625,-0.06103515625,-0.0133056640625,0.9031982421875,-0.4329833984375,110.0,-17.0,-111.0,103165.0,-15.211000442504883,0,0
268.050996,-0.49224853515625,-0.77618408203125,-0.336212158203125,-0.20526123046875,-0.18310546875,0.42724609375,0.0,-0.0147705078125,0.9010009765625,-0.430908203125,110.0,-17.0,-111.0,103165.0,-15.211000442504883,0,0
268.057999,-0.49224853515625,-0.77618408203125,-0.336212158203125,-0.20526123046875,0.42724609375,0.244140625,0.06103515625,-0.0118408203125,0.903076171875,-0.4300537109375,110.0,-17.0,-111.0,103165.0,-15.211000442504883,0,0
268.064028,-0.49224853515625,-0.77618408203125,-0.336212158203125,-0.20526123046875,0.42724609375,0.244140625,0.06103515625,-0.0118408203125,0.903076171875,-0.4300537109375,110.0,-17.0,-111.0,103165.0,-15.211000442504883,0,0
268.084995,-0.49224853515625,-0.77618408203125,-0.336212158203125,-0.205230712890625,0.1220703125,-0.18310546875,0.06103515625,-0.0135498046875,0.9024658203125,-0.43115234375,110.0,-17.0,-111.0,103165.0,-15.211000442504883,0,0
268.091998,-0.49224853515625,-0.77618408203125,-0.336212158203125,-0.20526123046875,-0.91552734375,0.244140625,-0.244140625,-0.0115966796875,0.90380859375,-0.431884765625,110.0,-17.0,-111.0,103165.0,-15.211000442504883,0,0
268.098998,-0.492279052734375,-0.77618408203125,-0.336212158203125,-0.20526123046875,-0.54931640625,-0.06103515625,-0.06103515625,-0.0113525390625,0.904296875,-0.4307861328125,110.0,-17.0,-111.0,103165.0,-15.211000442504883,0,0
268.105997,-0.492279052734375,-0.77618408203125,-0.336212158203125,-0.20526123046875,-0.06103515625,0.30517578125,0.1220703125,-0.0133056640625,0.9022216796875,-0.4305419921875,110.0,-17.0,-111.0,103165.0,-15.211000442504883,0,0
268.112997,-0.492279052734375,-0.77618408203125,-0.336212158203125,-0.205230712890625,0.0,0.3662109375,-0.06103515625,-0.0152587890625,0.90380859375,-0.43212890625,110.0,-17.0,-111.0,103165.0,-15.211000442504883,0,0
268.119996,-0.492279052734375,-0.77618408203125,-0.336212158203125,-0.205230712890625,0.30517578125,0.244140625,-0.06103515625,-0.0123291015625,0.903076171875,-0.4307861328125,110.0,-17.0,-111.0,103165.0,-15.211000442504883,0,0
268.126997,-0.492279052734375,-0.77618408203125,-0.336212158203125,-0.205230712890625,0.06103515625,0.3662109375,0.06103515625,-0.0125732421875,0.902099609375,-0.431396484375,110.0,-17.0,-111.0,103165.0,-15.211000442504883,0,0
268.133995,-0.492279052734375,-0.77618408203125,-0.336212158203125,-0.20526123046875,-0.1220703125,-0.18310546875,-0.30517578125,-0.0106201171875,0.9033203125,-0.4326171875,110.0,-17.0,-111.0,103165.0,-15.211000442504883,0,0
268.140995,-0.492279052734375,-0.77618408203125,-0.336212158203125,-0.205230712890625,0.244140625,-0.06103515625,0.06103515625,-0.0146484375,0.9024658203125,-0.431396484375,110.0,-17.0,-111.0,103165.0,-15.210000991821289,0,0
268.147995,-0.4923095703125,-0.7762451171875,-0.336090087890625,-0.205169677734375,0.0,0.06103515625,-0.244140625,-0.01416015625,0.901611328125,-0.4317626953125,110.0,-16.0,-111.0,103165.0,-15.210000991821289,0,0
268.154998,-0.4923095703125,-0.776214599609375,-0.336090087890625,-0.205169677734375,0.54931640625,0.06103515625,-0.18310546875,-0.0106201171875,0.90380859375,-0.42919921875,110.0,-16.0,-111.0,103165.0,-15.210000991821289,0,0
268.174995,-0.492279052734375,-0.7762451171875,-0.336090087890625,-0.205169677734375,0.0,0.244140625,0.06103515625,-0.01318359375,0.9019775390625,-0.4322509765625,110.0,-16.0,-111.0,103165.0,-15.210000991821289,0,0
268.181998,-0.4923095703125,-0.7762451171875,-0.336090087890625,-0.20513916015625,-0.1220703125,0.30517578125,0.1220703125,-0.0123291015625,0.90185546875,-0.4317626953125,110.0,-16.0,-111.0,103165.0,-15.210000991821289,0,0
268.188998,-0.4923095703125,-0.7762451171875,-0.336090087890625,-0.20513916015625,0.244140625,0.18310546875,0.06103515625,-0.012939453125,0.9031982421875,-0.43212890625,110.0,-16.0,-111.0,103165.0,-15.210000991821289,0,0
268.195997,-0.4923095703125,-0.776214599609375,-0.33612060546875,-0.20513916015625,0.06103515625,0.30517578125,-0.1220703125,-0.0147705078125,0.9034423828125,-0.4307861328125,110.0,-16.0,-111.0,103165.0,-15.210000991821289,0,0
268.202997,-0.4923095703125,-0.776214599609375,-0.33612060546875,-0.20513916015625,-0.30517578125,0.06103515625,-0.1220703125,-0.0150146484375,0.90185546875,-0.4326171875,110.0,-16.0,-111.0,103165.0,-15.210000991821289,0,0
268.209996,-0.4923095703125,-0.776214599609375,-0.33612060546875,-0.20513916015625,0.06103515625,0.0,0.0,-0.014404296875,0.903076171875,-0.4315185546875,110.0,-16.0,-111.0,103165.0,-15.210000991821289,0,0
268.216997,-0.4923095703125,-0.776214599609375,-0.33612060546875,-0.20513916015625,0.06103515625,0.244140625,-0.06103515625,-0.0120849609375,0.9024658203125,-0.431640625,110.0,-16.0,-111.0,103165.0,-15.210000991821289,0,0
268.223995,-0.4923095703125,-0.776214599609375,-0.33612060546875,-0.205108642578125,-0.244140625,0.18310546875,-0.06103515625,-0.013427734375,0.903564453125,-0.4293212890625,110.0,-16.0,-111.0,103165.0,-15.210000991821289,0,0
268.230995,-0.4923095703125,-0.776214599609375,-0.33612060546875,-0.20513916015625,-0.06103515625,0.244140625,0.1220703125,-0.0126953125,0.9046630859375,-0.432373046875,110.0,-16.0,-111.0,103165.0,-15.210000991821289,0,0
268.237995,-0.4923095703125,-0.776214599609375,-0.33612060546875,-0.205108642578125,-0.06103515625,0.1220703125,-0.244140625,-0.0137939453125,0.90234375,-0.4310302734375,110.0,-16.0,-111.0,103165.0,-15.210000991821289,0,0
268.244998,-0.492340087890625,-0.776214599609375,-0.33612060546875,-0.205108642578125,-0.1220703125,0.3662109375,-0.18310546875,-0.013916015625,0.9033203125,-0.4312744140625,111.0,-16.0,-111.0,103165.0,-15.210000991821289,0,0
268.251031,-0.492340087890625,-0.776214599609375,-0.33612060546875,-0.205108642578125,-0.1220703125,0.3662109375,-0.18310546875,-0.013916015625,0.9033203125,-0.4312744140625,111.0,-16.0,-111.0,103165.0,-15.210000991821289,0,0
268.257995,-0.4923095703125,-0.776153564453125,-0.33624267578125,-0.2052001953125,0.06103515625,0.18310546875,0.0,-0.0130615234375,0.90380859375,-0.4312744140625,111.0,-16.0,-111.0,103165.0,-15.210000991821289,0,0
268.264995,-0.4923095703125,-0.776153564453125,-0.33624267578125,-0.2052001953125,-0.1220703125,0.30517578125,-0.1220703125,-0.0130615234375,0.904052734375,-0.4317626953125,111.0,-16.0,-111.0,103165.0,-15.210000991821289,0,0
268.271998,-0.4923095703125,-0.776153564453125,-0.33624267578125,-0.2052001953125,0.0,0.06103515625,0.06103515625,-0.010986328125,0.9046630859375,-0.431396484375,111.0,-16.0,-111.0,103165.0,-15.210000991821289,0,0
268.278998,-0.4923095703125,-0.776153564453125,-0.33624267578125,-0.2052001953125,-0.30517578125,0.1220703125,-0.1220703125,-0.0146484375,0.9013671875,-0.431396484375,111.0,-16.0,-111.0,103165.0,-15.210000991821289,0,0
268.285997,-0.4923095703125,-0.776153564453125,-0.33624267578125,-0.2052001953125,-0.06103515625,0.1220703125,0.0,-0.0103759765625,0.9027099609375,-0.4310302734375,111.0,-16.0,-111.0,103165.0,-15.210000991821289,0,0
268.292997,-0.4923095703125,-0.776153564453125,-0.33624267578125,-0.205230712890625,0.06103515625,-0.06103515625,0.06103515625,-0.0103759765625,0.9046630859375,-0.4300537109375,111.0,-16.0,-111.0,103165.0,-15.212000846862793,0,0
268.299996,-0.4923095703125,-0.776153564453125,-0.33624267578125,-0.205230712890625,-0.30517578125,0.18310546875,-0.06103515625,-0.011474609375,0.9033203125,-0.432861328125,111.0,-16.0,-111.0,103165.0,-15.212000846862793,0,0
268.307001,-0.4923095703125,-0.776153564453125,-0.33624267578125,-0.205230712890625,-0.42724609375,0.30517578125,-0.06103515625,-0.0118408203125,0.9034423828125,-0.429443359375,111.0,-16.0,-111.0,103165.0,-15.212000846862793,0,0
268.313996,-0.4923095703125,-0.776153564453125,-0.33624267578125,-0.205230712890625,0.06103515625,0.06103515625,-0.18310546875,-0.0125732421875,0.904052734375,-0.4326171875,111.0,-16.0,-111.0,103165.0,-15.212000846862793,0,0
268.320996,-0.4923095703125,-0.776153564453125,-0.33624267578125,-0.205230712890625,0.06103515625,0.244140625,-0.1220703125,-0.0133056640625,0.902587890625,-0.430908203125,111.0,-16.0,-111.0,103165.0,-15.212000846862793,0,0
268.327999,-0.4923095703125,-0.776153564453125,-0.33624267578125,-0.205230712890625,-0.1220703125,0.18310546875,0.0,-0.013427734375,0.905029296875,-0.42919921875,111.0,-16.0,-111.0,103165.0,-15.212000846862793,0,0
268.34803,-0.4923095703125,-0.776153564453125,-0.336212158203125,-0.205230712890625,-0.48828125,0.18310546875,0.0,-0.0130615234375,0.9010009765625,-0.4315185546875,111.0,-15.0,-113.0,103165.0,-15.212000846862793,0,0
268.354999,-0.4923095703125,-0.776214599609375,-0.33612060546875,-0.20513916015625,0.9765625,0.244140625,-0.244140625,-0.0125732421875,0.90185546875,-0.4320068359375,111.0,-15.0,-113.0,103165.0,-15.212000846862793,0,0
268.361999,-0.492340087890625,-0.776214599609375,-0.33612060546875,-0.20513916015625,0.06103515625,0.244140625,0.0,-0.01123046875,0.9039306640625,-0.4317626953125,111.0,-15.0,-113.0,103165.0,-15.212000846862793,0,0
268.368998,-0.4923095703125,-0.776214599609375,-0.33612060546875,-0.20513916015625,0.0,0.1220703125,0.0,-0.0123291015625,0.9017333984375,-0.4334716796875,111.0,-15.0,-113.0,103165.0,-15.212000846862793,0,0
268.375997,-0.4923095703125,-0.776214599609375,-0.33612060546875,-0.20513916015625,-1.03759765625,0.244140625,0.18310546875,-0.0128173828125,0.9029541015625,-0.4322509765625,111.0,-15.0,-113.0,103165.0,-15.212000846862793,0,0
268.382997,-0.4923095703125,-0.776214599609375,-0.33612060546875,-0.20513916015625,0.06103515625,0.244140625,0.06103515625,-0.0130615234375,0.904052734375,-0.432373046875,111.0,-15.0,-113.0,103165.0,-15.212000846862793,0,0
268.389996,-0.4923095703125,-0.776214599609375,-0.33612060546875,-0.20513916015625,0.67138671875,0.30517578125,-0.1220703125,-0.0126953125,0.90478515625,-0.43017578125,111.0,-15.0,-113.0,103165.0,-15.211000442504883,0,0
268.396997,-0.4923095703125,-0.776214599609375,-0.33612060546875,-0.20513916015625,-0.3662109375,0.244140625,0.0,-0.0140380859375,0.90185546875,-0.4307861328125,111.0,-15.0,-113.0,103165.0,-15.211000442504883,0,0
268.403995,-0.4923095703125,-0.776214599609375,-0.33612060546875,-0.20513916015625,0.18310546875,0.1220703125,-0.18310546875,-0.01318359375,0.9022216796875,-0.430908203125,111.0,-15.0,-113.0,103165.0,-15.211000442504883,0,0
268.410995,-0.4923095703125,-0.776214599609375,-0.33612060546875,-0.20513916015625,0.06103515625,0.18310546875,-0.1220703125,-0.013671875,0.903076171875,-0.4310302734375,111.0,-15.0,-113.0,103165.0,-15.211000442504883,0,0
268.417995,-0.4923095703125,-0.776214599609375,-0.33612060546875,-0.20513916015625,-0.48828125,0.18310546875,0.244140625,-0.010498046875,0.9029541015625,-0.43115234375,111.0,-15.0,-113.0,103165.0,-15.211000442504883,0,0
268.438025,-0.4923095703125,-0.776214599609375,-0.33612060546875,-0.205108642578125,0.0,0.1220703125,0.06103515625,-0.01416015625,0.90185546875,-0.4312744140625,111.0,-15.0,-113.0,103165.0,-15.211000442504883,0,0
268.444995,-0.4923095703125,-0.776214599609375,-0.33612060546875,-0.205108642578125,0.244140625,0.1220703125,0.1220703125,-0.0135498046875,0.9044189453125,-0.4315185546875,112.0,-14.0,-113.0,103165.0,-15.211000442504883,0,0
268.451998,-0.4923095703125,-0.776214599609375,-0.33612060546875,-0.205108642578125,0.244140625,0.18310546875,-0.06103515625,-0.0118408203125,0.903076171875,-0.4329833984375,112.0,-14.0,-113.0,103165.0,-15.211000442504883,0,0
268.458998,-0.492340087890625,-0.776214599609375,-0.33612060546875,-0.205108642578125,0.42724609375,0.18310546875,0.06103515625,-0.0120849609375,0.9049072265625,-0.4302978515625,112.0,-14.0,-113.0,103165.0,-15.211000442504883,0,0
268.465997,-0.492340087890625,-0.776214599609375,-0.33612060546875,-0.205108642578125,-0.1220703125,0.06103515625,-0.1220703125,-0.01171875,0.9029541015625,-0.4310302734375,112.0,-14.0,-113.0,103165.0,-15.211000442504883,0,0
268.472997,-0.4923095703125,-0.776214599609375,-0.33612060546875,-0.205108642578125,-0.54931640625,0.1220703125,-0.06103515625,-0.0125732421875,0.9027099609375,-0.4320068359375,112.0,-14.0,-113.0,103165.0,-15.211000442504883,0,0
268.479996,-0.492340087890625,-0.776214599609375,-0.33612060546875,-0.205108642578125,-0.1220703125,0.18310546875,0.1220703125,-0.0123291015625,0.9014892578125,-0.428955078125,112.0,-14.0,-113.0,103165.0,-15.211000442504883,0,0
268.486997,-0.4923095703125,-0.776214599609375,-0.33612060546875,-0.205108642578125,-0.06103515625,-0.06103515625,-0.06103515625,-0.0107421875,0.902099609375,-0.4315185546875,112.0,-14.0,-113.0,103165.0,-15.211000442504883,0,0
268.493995,-0.492340087890625,-0.776214599609375,-0.33612060546875,-0.205108642578125,0.0,0.06103515625,-0.1220703125,-0.0137939453125,0.904296875,-0.4300537109375,112.0,-14.0,-113.0,103165.0,-15.211000442504883,0,0
268.500995,-0.492340087890625,-0.776214599609375,-0.33612060546875,-0.205108642578125,0.0,0.18310546875,-0.1220703125,-0.012451171875,0.901123046875,-0.430419921875,112.0,-14.0,-113.0,103165.0,-15.211000442504883,0,0
268.507995,-0.492340087890625,-0.776214599609375,-0.33612060546875,-0.205108642578125,0.06103515625,0.1220703125,-0.18310546875,-0.0133056640625,0.9036865234375,-0.4310302734375,112.0,-14.0,-113.0,103165.0,-15.211000442504883,0,0
268.514998,-0.492340087890625,-0.776214599609375,-0.33612060546875,-0.205108642578125,-0.18310546875,0.0,-0.06103515625,-0.011962890625,0.9031982421875,-0.4320068359375,112.0,-14.0,-113.0,103165.0,-15.211000442504883,0,0
268.521998,-0.492340087890625,-0.776214599609375,-0.33612060546875,-0.205108642578125,0.06103515625,0.30517578125,-0.1220703125,-0.0133056640625,0.9014892578125,-0.4302978515625,112.0,-14.0,-113.0,103165.0,-15.211000442504883,0,0
268.528997,-0.492340087890625,-0.776214599609375,-0.33612060546875,-0.205108642578125,-0.18310546875,0.244140625,-0.18310546875,-0.012939453125,0.90283203125,-0.4326171875,112.0,-14.0,-113.0,103165.0,-15.211000442504883,0,0
268.53503,-0.492340087890625,-0.776214599609375,-0.33612060546875,-0.205108642578125,-0.18310546875,0.244140625,-0.18310546875,-0.012939453125,0.90283203125,-0.4326171875,112.0,-14.0,-113.0,103165.0,-15.211000442504883,0,0
268.541998,-0.492340087890625,-0.776214599609375,-0.33612060546875,-0.205108642578125,-0.06103515625,0.18310546875,0.06103515625,-0.013916015625,0.9039306640625,-0.4324951171875,111.0,-12.0,-114.0,103165.0,-15.211000442504883,0,0
268.548998,-0.49237060546875,-0.7762451171875,-0.33599853515625,-0.20501708984375,-0.1220703125,0.06103515625,-0.244140625,-0.012939453125,0.9039306640625,-0.43017578125,111.0,-12.0,-114.0,103165.0,-15.211000442504883,0,0
268.555997,-0.49237060546875,-0.7762451171875,-0.33599853515625,-0.20501708984375,-0.18310546875,0.3662109375,-0.06103515625,-0.0115966796875,0.9029541015625,-0.4302978515625,111.0,-12.0,-114.0,103165.0,-15.211000442504883,0,0
268.562997,-0.49237060546875,-0.7762451171875,-0.33599853515625,-0.205047607421875,0.1220703125,0.30517578125,-0.18310546875,-0.011474609375,0.9019775390625,-0.4290771484375,111.0,-12.0,-114.0,103165.0,-15.211000442504883,0,0
268.569996,-0.492401123046875,-0.7762451171875,-0.33599853515625,-0.205047607421875,-0.1220703125,0.1220703125,0.0,-0.0133056640625,0.9033203125,-0.431396484375,111.0,-12.0,-114.0,103165.0,-15.211000442504883,0,0
268.576997,-0.49237060546875,-0.7762451171875,-0.33599853515625,-0.205047607421875,-0.18310546875,0.0,-0.1220703125,-0.01416015625,0.9024658203125,-0.4315185546875,111.0,-12.0,-114.0,103165.0,-15.211000442504883,0,0
268.583995,-0.492401123046875,-0.7762451171875,-0.33599853515625,-0.205047607421875,0.3662109375,0.244140625,0.0,-0.013916015625,0.90234375,-0.430908203125,111.0,-12.0,-114.0,103165.0,-15.211000442504883,0,0
268.590995,-0.492401123046875,-0.7762451171875,-0.33599853515625,-0.205047607421875,0.1220703125,0.1220703125,0.06103515625,-0.013671875,0.902099609375,-0.430908203125,111.0,-12.0,-114.0,103165.0,-15.211000442504883,0,0
268.611998,-0.492401123046875,-0.7762451171875,-0.33599853515625,-0.20501708984375,-0.1220703125,0.06103515625,0.06103515625,-0.0123291015625,0.90185546875,-0.4298095703125,111.0,-12.0,-114.0,103165.0,-15.211000442504883,0,0
268.618997,-0.492401123046875,-0.7762451171875,-0.33599853515625,-0.20501708984375,0.06103515625,0.3662109375,-0.244140625,-0.0140380859375,0.9012451171875,-0.429931640625,111.0,-12.0,-114.0,103165.0,-15.211000442504883,0,0
268.62503,-0.492401123046875,-0.7762451171875,-0.33599853515625,-0.20501708984375,0.06103515625,0.3662109375,-0.244140625,-0.0140380859375,0.9012451171875,-0.429931640625,111.0,-12.0,-114.0,103165.0,-15.211000442504883,0,0
268.631999,-0.492401123046875,-0.7762451171875,-0.33599853515625,-0.20501708984375,0.30517578125,0.244140625,-0.18310546875,-0.0126953125,0.9036865234375,-0.430419921875,111.0,-12.0,-114.0,103165.0,-15.211000442504883,0,0
268.638998,-0.492401123046875,-0.7762451171875,-0.33599853515625,-0.20501708984375,-0.1220703125,0.06103515625,0.0,-0.0118408203125,0.9024658203125,-0.431884765625,111.0,-12.0,-114.0,103165.0,-15.211000442504883,0,0
268.645997,-0.492401123046875,-0.7762451171875,-0.33599853515625,-0.20501708984375,-0.3662109375,0.42724609375,0.1220703125,-0.01025390625,0.904296875,-0.4307861328125,113.0,-11.0,-113.0,103165.0,-15.211000442504883,0,0
268.652997,-0.492340087890625,-0.776123046875,-0.33624267578125,-0.2052001953125,-0.244140625,0.0,-0.30517578125,-0.011474609375,0.9007568359375,-0.4302978515625,113.0,-11.0,-113.0,103165.0,-15.211000442504883,0,0
268.659996,-0.492340087890625,-0.776123046875,-0.33624267578125,-0.2052001953125,0.18310546875,0.48828125,0.244140625,-0.0113525390625,0.90283203125,-0.4322509765625,113.0,-11.0,-113.0,103165.0,-15.211000442504883,0,0
268.667001,-0.492340087890625,-0.776123046875,-0.33624267578125,-0.2052001953125,-0.732421875,-0.1220703125,-0.06103515625,-0.013916015625,0.9039306640625,-0.429931640625,113.0,-11.0,-113.0,103165.0,-15.211000442504883,0,0
268.673996,-0.492340087890625,-0.776123046875,-0.33624267578125,-0.2052001953125,0.06103515625,0.1220703125,0.244140625,-0.01318359375,0.9036865234375,-0.430908203125,113.0,-11.0,-113.0,103165.0,-15.211000442504883,0,0
268.694998,-0.492340087890625,-0.776123046875,-0.33624267578125,-0.2052001953125,-0.18310546875,0.1220703125,-0.06103515625,-0.0126953125,0.904052734375,-0.430419921875,113.0,-11.0,-113.0,103165.0,-15.212000846862793,0,0
268.701998,-0.492340087890625,-0.776123046875,-0.33624267578125,-0.2052001953125,0.1220703125,0.0,-0.06103515625,-0.0133056640625,0.903076171875,-0.430908203125,113.0,-11.0,-113.0,103165.0,-15.212000846862793,0,0
268.708997,-0.492340087890625,-0.776123046875,-0.33624267578125,-0.2052001953125,-0.244140625,0.30517578125,0.18310546875,-0.01220703125,0.902099609375,-0.43017578125,113.0,-11.0,-113.0,103165.0,-15.212000846862793,0,0
268.715997,-0.492340087890625,-0.776123046875,-0.33624267578125,-0.2052001953125,-0.244140625,0.1220703125,-0.18310546875,-0.0111083984375,0.9034423828125,-0.4324951171875,113.0,-11.0,-113.0,103165.0,-15.212000846862793,0,0
268.722029,-0.492340087890625,-0.776123046875,-0.33624267578125,-0.2052001953125,-0.244140625,0.1220703125,-0.18310546875,-0.0111083984375,0.9034423828125,-0.4324951171875,113.0,-11.0,-113.0,103165.0,-15.212000846862793,0,0
268.728998,-0.492340087890625,-0.776123046875,-0.33624267578125,-0.205230712890625,0.1220703125,0.30517578125,-0.244140625,-0.014404296875,0.903564453125,-0.4296875,113.0,-11.0,-113.0,103165.0,-15.212000846862793,0,0
268.735997,-0.492340087890625,-0.776123046875,-0.33624267578125,-0.205230712890625,0.1220703125,0.18310546875,0.30517578125,-0.012939453125,0.9022216796875,-0.4310302734375,113.0,-11.0,-113.0,103165.0,-15.212000846862793,0,0
268.742997,-0.492340087890625,-0.776123046875,-0.33624267578125,-0.2052001953125,-0.244140625,0.06103515625,-0.06103515625,-0.0133056640625,0.9031982421875,-0.4296875,112.0,-10.0,-113.0,103165.0,-15.212000846862793,0,0
268.749996,-0.492279052734375,-0.7760009765625,-0.33648681640625,-0.20538330078125,-0.79345703125,-0.06103515625,-0.3662109375,-0.0137939453125,0.90380859375,-0.4298095703125,112.0,-10.0,-113.0,103165.0,-15.212000846862793,0,0
268.756997,-0.492279052734375,-0.7760009765625,-0.33648681640625,-0.205352783203125,0.1220703125,0.0,-0.06103515625,-0.01416015625,0.9027099609375,-0.429931640625,112.0,-10.0,-113.0,103165.0,-15.212000846862793,0,0
268.763995,-0.4923095703125,-0.7760009765625,-0.33648681640625,-0.20538330078125,0.1220703125,0.1220703125,-0.06103515625,-0.0123291015625,0.902099609375,-0.4295654296875,112.0,-10.0,-113.0,103165.0,-15.212000846862793,0,0
268.770995,-0.4923095703125,-0.7760009765625,-0.33648681640625,-0.20538330078125,-0.1220703125,0.48828125,0.0,-0.0135498046875,0.9019775390625,-0.4307861328125,112.0,-10.0,-113.0,103165.0,-15.212000846862793,0,0
268.777995,-0.4923095703125,-0.7760009765625,-0.33648681640625,-0.20538330078125,-0.3662109375,0.18310546875,0.06103515625,-0.0115966796875,0.903076171875,-0.4310302734375,112.0,-10.0,-113.0,103165.0,-15.212000846862793,0,0
268.784998,-0.4923095703125,-0.7760009765625,-0.33648681640625,-0.20538330078125,0.18310546875,0.18310546875,-0.06103515625,-0.0120849609375,0.900634765625,-0.4305419921875,112.0,-10.0,-113.0,103165.0,-15.212000846862793,0,0
268.791998,-0.4923095703125,-0.7760009765625,-0.33648681640625,-0.205352783203125,0.0,0.18310546875,0.06103515625,-0.0145263671875,0.9019775390625,-0.4300537109375,112.0,-10.0,-113.0,103165.0,-15.212000846862793,0,0
268.798997,-0.4923095703125,-0.7760009765625,-0.33648681640625,-0.20538330078125,0.0,0.18310546875,-0.244140625,-0.0125732421875,0.90185546875,-0.42919921875,112.0,-10.0,-113.0,103165.0,-15.212000846862793,0,0
268.805997,-0.4923095703125,-0.7760009765625,-0.33648681640625,-0.20538330078125,0.18310546875,0.18310546875,0.1220703125,-0.01318359375,0.9029541015625,-0.4322509765625,112.0,-10.0,-113.0,103165.0,-15.212000846862793,0,0
268.812029,-0.4923095703125,-0.7760009765625,-0.33648681640625,-0.20538330078125,0.18310546875,0.18310546875,0.1220703125,-0.01318359375,0.9029541015625,-0.4322509765625,112.0,-10.0,-113.0,103165.0,-15.212000846862793,0,0
268.818998,-0.4923095703125,-0.7760009765625,-0.33648681640625,-0.20538330078125,0.54931640625,-0.06103515625,-0.06103515625,-0.0123291015625,0.9036865234375,-0.4300537109375,112.0,-10.0,-113.0,103165.0,-15.212000846862793,0,0
268.825997,-0.4923095703125,-0.7760009765625,-0.33648681640625,-0.205352783203125,0.06103515625,0.06103515625,-0.1220703125,-0.0162353515625,0.9022216796875,-0.4322509765625,112.0,-10.0,-113.0,103165.0,-15.212000846862793,0,0
268.832997,-0.492340087890625,-0.7760009765625,-0.33648681640625,-0.20538330078125,0.18310546875,0.244140625,-0.1220703125,-0.01171875,0.9010009765625,-0.42822265625,112.0,-10.0,-113.0,103165.0,-15.212000846862793,0,0
268.839996,-0.492340087890625,-0.775970458984375,-0.33648681640625,-0.205352783203125,-0.06103515625,0.30517578125,0.0,-0.01416015625,0.902099609375,-0.4306640625,112.0,-10.0,-113.0,103165.0,-15.212000846862793,0,0
268.846997,-0.492340087890625,-0.7760009765625,-0.33648681640625,-0.20538330078125,0.0,0.06103515625,0.1220703125,-0.010009765625,0.9019775390625,-0.4310302734375,112.0,-10.0,-111.0,103165.0,-15.212000846862793,0,0
268.867995,-0.49224853515625,-0.77587890625,-0.33673095703125,-0.20556640625,-0.18310546875,0.30517578125,-0.18310546875,-0.010009765625,0.904296875,-0.4302978515625,112.0,-10.0,-111.0,103165.0,-15.212000846862793,0,0
268.874998,-0.49224853515625,-0.77587890625,-0.33673095703125,-0.20556640625,-0.06103515625,0.0,0.06103515625,-0.0118408203125,0.904052734375,-0.43115234375,112.0,-10.0,-111.0,103165.0,-15.212000846862793,0,0
268.881998,-0.49224853515625,-0.77587890625,-0.33673095703125,-0.20556640625,0.18310546875,0.244140625,-0.1220703125,-0.012939453125,0.9017333984375,-0.429443359375,112.0,-10.0,-111.0,103165.0,-15.212000846862793,0,0
268.888997,-0.49224853515625,-0.77587890625,-0.33673095703125,-0.20556640625,0.42724609375,0.0,0.0,-0.0120849609375,0.9024658203125,-0.430908203125,112.0,-10.0,-111.0,103165.0,-15.212000846862793,0,0
268.895997,-0.492279052734375,-0.77587890625,-0.33673095703125,-0.20556640625,-0.30517578125,0.30517578125,0.0,-0.012451171875,0.9034423828125,-0.428466796875,112.0,-10.0,-111.0,103165.0,-15.212000846862793,0,0
268.902996,-0.49224853515625,-0.77587890625,-0.33673095703125,-0.20556640625,-0.244140625,0.18310546875,-0.06103515625,-0.01123046875,0.901611328125,-0.4307861328125,112.0,-10.0,-111.0,103165.0,-15.212000846862793,0,0
268.909029,-0.49224853515625,-0.77587890625,-0.33673095703125,-0.20556640625,-0.244140625,0.18310546875,-0.06103515625,-0.01123046875,0.901611328125,-0.4307861328125,112.0,-10.0,-111.0,103165.0,-15.212000846862793,0,0
268.915997,-0.49224853515625,-0.77587890625,-0.33673095703125,-0.20556640625,-0.3662109375,-0.06103515625,-0.06103515625,-0.012939453125,0.9022216796875,-0.430908203125,112.0,-10.0,-111.0,103165.0,-15.212000846862793,0,0
268.922997,-0.49224853515625,-0.77587890625,-0.33673095703125,-0.20556640625,-0.48828125,0.0,-0.18310546875,-0.0118408203125,0.90234375,-0.431884765625,112.0,-10.0,-111.0,103165.0,-15.212000846862793,0,0
268.929996,-0.49224853515625,-0.77587890625,-0.33673095703125,-0.20556640625,-0.18310546875,0.1220703125,-0.06103515625,-0.0098876953125,0.903076171875,-0.4305419921875,112.0,-10.0,-111.0,103165.0,-15.212000846862793,0,0
268.937001,-0.49224853515625,-0.77587890625,-0.33673095703125,-0.20556640625,-0.54931640625,0.18310546875,-0.1220703125,-0.0118408203125,0.903564453125,-0.4305419921875,112.0,-10.0,-111.0,103165.0,-15.212000846862793,0,0
268.957999,-0.4921875,-0.7757568359375,-0.33697509765625,-0.205718994140625,-0.1220703125,0.1220703125,-0.06103515625,-0.013916015625,0.90185546875,-0.4307861328125,112.0,-12.0,-110.0,103165.0,-15.212000846862793,0,0
268.964999,-0.4921875,-0.7757568359375,-0.33697509765625,-0.205718994140625,0.30517578125,0.0,0.1220703125,-0.0126953125,0.90380859375,-0.4322509765625,112.0,-12.0,-110.0,103165.0,-15.212000846862793,0,0
268.971998,-0.4921875,-0.7757568359375,-0.33697509765625,-0.20574951171875,-0.48828125,0.244140625,-0.18310546875,-0.0087890625,0.904296875,-0.431396484375,112.0,-12.0,-110.0,103165.0,-15.212000846862793,0,0
268.978997,-0.4921875,-0.7757568359375,-0.33697509765625,-0.205718994140625,-0.06103515625,0.244140625,-0.1220703125,-0.0140380859375,0.9013671875,-0.43115234375,112.0,-12.0,-110.0,103165.0,-15.212000846862793,0,0
268.985997,-0.4921875,-0.7757568359375,-0.33697509765625,-0.205718994140625,-0.06103515625,0.1220703125,-0.244140625,-0.0128173828125,0.9022216796875,-0.43310546875,112.0,-12.0,-110.0,103165.0,-15.212000846862793,0,0
268.992996,-0.4921875,-0.7757568359375,-0.33697509765625,-0.205718994140625,0.48828125,0.1220703125,-0.244140625,-0.0130615234375,0.9022216796875,-0.431884765625,112.0,-12.0,-110.0,103165.0,-15.212000846862793,0,0
268.999029,-0.4921875,-0.7757568359375,-0.33697509765625,-0.205718994140625,0.48828125,0.1220703125,-0.244140625,-0.0130615234375,0.9022216796875,-0.431884765625,112.0,-12.0,-110.0,103165.0,-15.212000846862793,0,0
269.005997,-0.4921875,-0.7757568359375,-0.33697509765625,-0.205718994140625,-0.1220703125,0.06103515625,-0.18310546875,-0.0142822265625,0.900634765625,-0.4310302734375,112.0,-12.0,-110.0,103165.0,-15.212000846862793,0,0
269.012997,-0.4921875,-0.7757568359375,-0.33697509765625,-0.205718994140625,-0.3662109375,0.1220703125,-0.06103515625,-0.01220703125,0.9033203125,-0.4300537109375,112.0,-12.0,-110.0,103165.0,-15.212000846862793,0,0
269.019996,-0.4921875,-0.7757568359375,-0.33697509765625,-0.205718994140625,0.06103515625,-0.06103515625,-0.244140625,-0.01123046875,0.9017333984375,-0.431396484375,112.0,-12.0,-110.0,103165.0,-15.212000846862793,0,0
269.026997,-0.4921875,-0.7757568359375,-0.33697509765625,-0.205718994140625,-0.18310546875,0.244140625,-0.1220703125,-0.0118408203125,0.9044189453125,-0.4310302734375,112.0,-12.0,-110.0,103165.0,-15.212000846862793,0,0
269.033995,-0.4921875,-0.7757568359375,-0.33697509765625,-0.205718994140625,0.06103515625,0.1220703125,-0.18310546875,-0.013916015625,0.9013671875,-0.4307861328125,112.0,-12.0,-110.0,103165.0,-15.212000846862793,0,0
269.040995,-0.4921875,-0.7757568359375,-0.33697509765625,-0.205718994140625,0.0,0.30517578125,0.0,-0.01220703125,0.903564453125,-0.4305419921875,112.0,-12.0,-110.0,103165.0,-15.212000846862793,0,0
269.047995,-0.4921875,-0.7757568359375,-0.33697509765625,-0.205718994140625,0.244140625,0.42724609375,-0.06103515625,-0.0125732421875,0.902587890625,-0.431396484375,112.0,-12.0,-110.0,103165.0,-15.212000846862793,0,0
269.054998,-0.49212646484375,-0.775634765625,-0.33721923828125,-0.205902099609375,-0.1220703125,0.18310546875,0.0,-0.012939453125,0.903076171875,-0.4295654296875,112.0,-12.0,-110.0,103165.0,-15.212000846862793,0,0
269.061998,-0.492156982421875,-0.775634765625,-0.33721923828125,-0.205902099609375,-0.06103515625,0.3662109375,-0.06103515625,-0.013671875,0.903564453125,-0.4305419921875,112.0,-12.0,-110.0,103165.0,-15.212000846862793,0,0
269.068997,-0.492156982421875,-0.775634765625,-0.33721923828125,-0.205902099609375,0.06103515625,0.30517578125,-0.1220703125,-0.0140380859375,0.90234375,-0.4285888671875,112.0,-12.0,-110.0,103165.0,-15.212000846862793,0,0
269.075997,-0.492156982421875,-0.775634765625,-0.33721923828125,-0.205902099609375,-0.18310546875,0.0,-0.18310546875,-0.0120849609375,0.9033203125,-0.4300537109375,112.0,-12.0,-110.0,103165.0,-15.212000846862793,0,0
269.082996,-0.492156982421875,-0.775634765625,-0.33721923828125,-0.205902099609375,-0.244140625,0.18310546875,-0.18310546875,-0.013427734375,0.902587890625,-0.4310302734375,112.0,-12.0,-110.0,103165.0,-15.212000846862793,0,0
269.089997,-0.492156982421875,-0.775634765625,-0.33721923828125,-0.205902099609375,-0.18310546875,0.1220703125,-0.1220703125,-0.0135498046875,0.903076171875,-0.4310302734375,112.0,-12.0,-110.0,103165.0,-15.212000846862793,0,0
269.096028,-0.492156982421875,-0.775634765625,-0.33721923828125,-0.205902099609375,-0.18310546875,0.1220703125,-0.1220703125,-0.0135498046875,0.903076171875,-0.4310302734375,112.0,-12.0,-110.0,103165.0,-15.212000846862793,0,0
269.102997,-0.492156982421875,-0.775634765625,-0.33721923828125,-0.205902099609375,0.48828125,0.244140625,-0.06103515625,-0.010498046875,0.90380859375,-0.4322509765625,112.0,-12.0,-110.0,103165.0,-15.212000846862793,0,0
269.109996,-0.49212646484375,-0.775634765625,-0.33721923828125,-0.205902099609375,0.42724609375,0.1220703125,-0.1220703125,-0.0108642578125,0.9022216796875,-0.4315185546875,112.0,-12.0,-110.0,103165.0,-15.212000846862793,0,0
269.130995,-0.49212646484375,-0.775665283203125,-0.33721923828125,-0.205902099609375,0.18310546875,0.244140625,-0.244140625,-0.0126953125,0.902099609375,-0.4310302734375,112.0,-12.0,-110.0,103165.0,-15.212000846862793,0,0
269.137995,-0.492156982421875,-0.775634765625,-0.33721923828125,-0.205902099609375,0.06103515625,0.244140625,-0.06103515625,-0.0157470703125,0.9029541015625,-0.4288330078125,112.0,-12.0,-110.0,103165.0,-15.212000846862793,0,0
269.144998,-0.492156982421875,-0.775634765625,-0.33721923828125,-0.205902099609375,0.06103515625,0.06103515625,0.0,-0.0111083984375,0.90380859375,-0.4293212890625,113.0,-14.0,-111.0,103165.0,-15.212000846862793,0,0
269.151998,-0.492156982421875,-0.775634765625,-0.33721923828125,-0.205902099609375,0.1220703125,0.06103515625,0.0,-0.01123046875,0.90234375,-0.4288330078125,113.0,-14.0,-111.0,103165.0,-15.212000846862793,0,0
269.158997,-0.492156982421875,-0.775634765625,-0.33721923828125,-0.205902099609375,0.06103515625,0.06103515625,-0.30517578125,-0.0118408203125,0.9033203125,-0.4295654296875,113.0,-14.0,-111.0,103165.0,-15.212000846862793,0,0
269.165997,-0.492156982421875,-0.775634765625,-0.33721923828125,-0.205902099609375,-0.79345703125,0.42724609375,0.0,-0.012451171875,0.9036865234375,-0.4293212890625,113.0,-14.0,-111.0,103165.0,-15.212000846862793,0,0
269.172996,-0.492156982421875,-0.775634765625,-0.33721923828125,-0.2059326171875,0.0,0.06103515625,-0.06103515625,-0.0126953125,0.90185546875,-0.4287109375,113.0,-14.0,-111.0,103165.0,-15.212000846862793,0,0
269.179997,-0.492156982421875,-0.775634765625,-0.33721923828125,-0.2059326171875,-0.67138671875,0.30517578125,0.0,-0.0123291015625,0.90380859375,-0.4326171875,113.0,-14.0,-111.0,103165.0,-15.212000846862793,0,0
269.186028,-0.492156982421875,-0.775634765625,-0.33721923828125,-0.2059326171875,-0.67138671875,0.30517578125,0.0,-0.0123291015625,0.90380859375,-0.4326171875,113.0,-14.0,-111.0,103165.0,-15.212000846862793,0,0
269.192997,-0.492156982421875,-0.775634765625,-0.33721923828125,-0.205902099609375,0.1220703125,-0.06103515625,-0.1220703125,-0.012451171875,0.9033203125,-0.429443359375,113.0,-14.0,-111.0,103165.0,-15.213000297546387,0,0
269.199996,-0.492156982421875,-0.775634765625,-0.33721923828125,-0.205902099609375,-0.244140625,0.244140625,-0.06103515625,-0.0145263671875,0.904296875,-0.4324951171875,113.0,-14.0,-111.0,103165.0,-15.213000297546387,0,0
269.220996,-0.492156982421875,-0.775634765625,-0.33721923828125,-0.205902099609375,0.67138671875,0.54931640625,0.06103515625,-0.0145263671875,0.9036865234375,-0.4306640625,113.0,-14.0,-111.0,103165.0,-15.213000297546387,0,0
269.227999,-0.492156982421875,-0.775634765625,-0.33721923828125,-0.205902099609375,-0.18310546875,0.1220703125,0.244140625,-0.0125732421875,0.9041748046875,-0.429931640625,113.0,-14.0,-111.0,103165.0,-15.213000297546387,0,0
269.234999,-0.492156982421875,-0.775634765625,-0.33721923828125,-0.205902099609375,0.06103515625,0.18310546875,-0.06103515625,-0.0130615234375,0.904296875,-0.4306640625,113.0,-14.0,-111.0,103165.0,-15.213000297546387,0,0
269.241998,-0.4921875,-0.775634765625,-0.33721923828125,-0.205902099609375,0.42724609375,0.3662109375,0.0,-0.013916015625,0.9013671875,-0.4302978515625,113.0,-14.0,-111.0,103165.0,-15.213000297546387,0,0
269.248997,-0.49212646484375,-0.77557373046875,-0.33734130859375,-0.20599365234375,-0.244140625,0.0,-0.06103515625,-0.0113525390625,0.9031982421875,-0.43212890625,113.0,-15.0,-111.0,103165.0,-15.213000297546387,0,0
269.255997,-0.49212646484375,-0.77557373046875,-0.33734130859375,-0.20599365234375,0.06103515625,0.3662109375,0.1220703125,-0.01123046875,0.9036865234375,-0.4300537109375,113.0,-15.0,-111.0,103165.0,-15.213000297546387,0,0
269.262996,-0.492156982421875,-0.77557373046875,-0.33734130859375,-0.20599365234375,-0.1220703125,0.18310546875,-0.18310546875,-0.0145263671875,0.90283203125,-0.4302978515625,113.0,-15.0,-111.0,103165.0,-15.213000297546387,0,0
269.270001,-0.492156982421875,-0.77557373046875,-0.33734130859375,-0.20599365234375,-0.3662109375,0.18310546875,-0.30517578125,-0.0115966796875,0.9024658203125,-0.43115234375,113.0,-15.0,-111.0,103165.0,-15.213000297546387,0,0
269.276996,-0.492156982421875,-0.77557373046875,-0.33734130859375,-0.20599365234375,-0.42724609375,0.1220703125,-0.18310546875,-0.0123291015625,0.9027099609375,-0.4283447265625,113.0,-15.0,-111.0,103165.0,-15.213000297546387,0,0
269.283024,-0.492156982421875,-0.77557373046875,-0.33734130859375,-0.20599365234375,-0.42724609375,0.1220703125,-0.18310546875,-0.0123291015625,0.9027099609375,-0.4283447265625,113.0,-15.0,-111.0,103165.0,-15.213000297546387,0,0
269.289996,-0.492156982421875,-0.77557373046875,-0.33734130859375,-0.20599365234375,0.18310546875,0.18310546875,-0.1220703125,-0.010498046875,0.9014892578125,-0.43115234375,113.0,-15.0,-111.0,103165.0,-15.213000297546387,0,0
269.296997,-0.492156982421875,-0.77557373046875,-0.33734130859375,-0.20599365234375,-0.30517578125,0.06103515625,0.0,-0.01220703125,0.901123046875,-0.431884765625,113.0,-15.0,-111.0,103165.0,-15.211000442504883,0,0
269.303995,-0.492156982421875,-0.77557373046875,-0.33734130859375,-0.20599365234375,0.1220703125,0.244140625,-0.18310546875,-0.0123291015625,0.9036865234375,-0.4306640625,113.0,-15.0,-111.0,103165.0,-15.211000442504883,0,0
269.310995,-0.492156982421875,-0.77557373046875,-0.33734130859375,-0.20599365234375,-0.1220703125,0.18310546875,0.0,-0.0103759765625,0.89990234375,-0.4310302734375,113.0,-15.0,-111.0,103165.0,-15.211000442504883,0,0
269.317995,-0.49212646484375,-0.77557373046875,-0.33734130859375,-0.20599365234375,0.06103515625,0.1220703125,0.1220703125,-0.0113525390625,0.9007568359375,-0.430419921875,113.0,-15.0,-111.0,103165.0,-15.211000442504883,0,0
269.324998,-0.49212646484375,-0.77557373046875,-0.33734130859375,-0.20599365234375,0.0,-0.06103515625,-0.18310546875,-0.0107421875,0.90283203125,-0.4296875,113.0,-15.0,-111.0,103165.0,-15.211000442504883,0,0
269.331998,-0.49212646484375,-0.77557373046875,-0.33734130859375,-0.20599365234375,0.0,0.30517578125,-0.18310546875,-0.0133056640625,0.9013671875,-0.4302978515625,113.0,-15.0,-111.0,103165.0,-15.211000442504883,0,0
269.338997,-0.492156982421875,-0.77557373046875,-0.33734130859375,-0.20599365234375,0.0,0.1220703125,0.18310546875,-0.0120849609375,0.9024658203125,-0.42919921875,113.0,-15.0,-111.0,103165.0,-15.211000442504883,0,0
269.345997,-0.492156982421875,-0.77557373046875,-0.33734130859375,-0.20599365234375,-0.91552734375,0.18310546875,-0.18310546875,-0.0133056640625,0.9019775390625,-0.4293212890625,114.0,-16.0,-111.0,103165.0,-15.211000442504883,0,0
269.352996,-0.49212646484375,-0.7755126953125,-0.33746337890625,-0.206085205078125,-0.48828125,0.244140625,-0.1220703125,-0.0135498046875,0.90234375,-0.430419921875,114.0,-16.0,-111.0,103165.0,-15.211000442504883,0,0
269.359997,-0.49212646484375,-0.7755126953125,-0.33746337890625,-0.206085205078125,0.0,0.1220703125,-0.06103515625,-0.01171875,0.9024658203125,-0.428955078125,114.0,-16.0,-111.0,103165.0,-15.211000442504883,0,0
269.366995,-0.49212646484375,-0.7755126953125,-0.33746337890625,-0.206085205078125,-0.18310546875,0.18310546875,0.06103515625,-0.0118408203125,0.9031982421875,-0.429931640625,114.0,-16.0,-111.0,103165.0,-15.211000442504883,0,0
269.373023,-0.49212646484375,-0.7755126953125,-0.33746337890625,-0.206085205078125,-0.18310546875,0.18310546875,0.06103515625,-0.0118408203125,0.9031982421875,-0.429931640625,114.0,-16.0,-111.0,103165.0,-15.211000442504883,0,0
269.393995,-0.49212646484375,-0.7755126953125,-0.33746337890625,-0.206085205078125,-0.1220703125,0.3662109375,-0.1220703125,-0.0137939453125,0.9033203125,-0.4320068359375,114.0,-16.0,-111.0,103165.0,-15.211000442504883,0,0
269.400995,-0.49212646484375,-0.7755126953125,-0.33746337890625,-0.206085205078125,-0.54931640625,0.18310546875,0.30517578125,-0.0135498046875,0.9031982421875,-0.4295654296875,114.0,-16.0,-111.0,103165.0,-15.211000442504883,0,0
269.407995,-0.49212646484375,-0.7755126953125,-0.33746337890625,-0.206085205078125,-0.18310546875,0.1220703125,-0.18310546875,-0.0103759765625,0.9029541015625,-0.4288330078125,114.0,-16.0,-111.0,103165.0,-15.211000442504883,0,0
269.414998,-0.49212646484375,-0.7755126953125,-0.33746337890625,-0.206085205078125,0.0,0.244140625,0.0,-0.01123046875,0.901123046875,-0.43212890625,114.0,-16.0,-111.0,103165.0,-15.211000442504883,0,0
269.421998,-0.49212646484375,-0.7755126953125,-0.33746337890625,-0.206085205078125,-0.67138671875,0.18310546875,0.0,-0.01123046875,0.9036865234375,-0.4312744140625,114.0,-16.0,-111.0,103165.0,-15.211000442504883,0,0
269.428997,-0.49212646484375,-0.7755126953125,-0.33746337890625,-0.206085205078125,-0.18310546875,0.30517578125,0.1220703125,-0.0118408203125,0.9022216796875,-0.4295654296875,114.0,-16.0,-111.0,103165.0,-15.211000442504883,0,0
269.435997,-0.49212646484375,-0.7755126953125,-0.337432861328125,-0.206085205078125,0.0,0.0,0.06103515625,-0.01171875,0.9017333984375,-0.4302978515625,114.0,-16.0,-111.0,103165.0,-15.211000442504883,0,0
269.442996,-0.49212646484375,-0.7755126953125,-0.33746337890625,-0.206085205078125,-0.18310546875,0.06103515625,0.0,-0.0146484375,0.9027099609375,-0.4317626953125,112.0,-16.0,-112.0,103165.0,-15.212000846862793,0,0
269.449997,-0.492156982421875,-0.77557373046875,-0.337310791015625,-0.206024169921875,-0.18310546875,0.30517578125,0.0,-0.01171875,0.9033203125,-0.430908203125,112.0,-16.0,-112.0,103165.0,-15.212000846862793,0,0
269.456995,-0.492156982421875,-0.77557373046875,-0.33734130859375,-0.20599365234375,-0.18310546875,0.244140625,0.18310546875,-0.014892578125,0.902587890625,-0.4317626953125,112.0,-16.0,-112.0,103165.0,-15.212000846862793,0,0
269.463023,-0.492156982421875,-0.77557373046875,-0.33734130859375,-0.20599365234375,-0.18310546875,0.244140625,0.18310546875,-0.014892578125,0.902587890625,-0.4317626953125,112.0,-16.0,-112.0,103165.0,-15.212000846862793,0,0
269.483995,-0.492156982421875,-0.77557373046875,-0.337310791015625,-0.206024169921875,0.06103515625,0.3662109375,-0.06103515625,-0.0108642578125,0.9022216796875,-0.429443359375,112.0,-16.0,-112.0,103165.0,-15.212000846862793,0,0
269.490996,-0.492156982421875,-0.77557373046875,-0.337310791015625,-0.206024169921875,0.0,0.244140625,-0.06103515625,-0.0118408203125,0.90234375,-0.4306640625,112.0,-16.0,-112.0,103165.0,-15.212000846862793,0,0
269.497999,-0.492156982421875,-0.77557373046875,-0.337310791015625,-0.206024169921875,0.1220703125,0.244140625,0.1220703125,-0.0123291015625,0.9017333984375,-0.431640625,112.0,-16.0,-112.0,103165.0,-15.212000846862793,0,0
269.504999,-0.492156982421875,-0.77557373046875,-0.337310791015625,-0.206024169921875,0.0,0.244140625,0.1220703125,-0.0137939453125,0.9005126953125,-0.430419921875,112.0,-16.0,-112.0,103165.0,-15.212000846862793,0,0
269.511998,-0.492156982421875,-0.77557373046875,-0.337310791015625,-0.206024169921875,0.30517578125,0.06103515625,-0.1220703125,-0.0123291015625,0.9029541015625,-0.431396484375,112.0,-16.0,-112.0,103165.0,-15.212000846862793,0,0
269.518997,-0.492156982421875,-0.77557373046875,-0.337310791015625,-0.206024169921875,-0.18310546875,0.3662109375,-0.18310546875,-0.0101318359375,0.9041748046875,-0.429443359375,112.0,-16.0,-112.0,103165.0,-15.212000846862793,0,0
269.525997,-0.492156982421875,-0.775543212890625,-0.337310791015625,-0.206024169921875,-0.244140625,0.3662109375,0.06103515625,-0.0142822265625,0.90283203125,-0.429931640625,112.0,-16.0,-112.0,103165.0,-15.212000846862793,0,0
269.532996,-0.492156982421875,-0.775543212890625,-0.337310791015625,-0.206024169921875,-0.18310546875,0.0,-0.06103515625,-0.013671875,0.9033203125,-0.4290771484375,112.0,-16.0,-112.0,103165.0,-15.212000846862793,0,0
269.540001,-0.492218017578125,-0.775543212890625,-0.337310791015625,-0.206024169921875,-0.06103515625,0.18310546875,0.06103515625,-0.01416015625,0.9024658203125,-0.430908203125,112.0,-16.0,-112.0,103165.0,-15.212000846862793,0,0
269.546996,-0.492218017578125,-0.775543212890625,-0.337310791015625,-0.206024169921875,-0.06103515625,0.1220703125,0.0,-0.0146484375,0.902099609375,-0.4288330078125,112.0,-18.0,-111.0,103165.0,-15.212000846862793,0,0
269.553996,-0.49224853515625,-0.77557373046875,-0.337188720703125,-0.205963134765625,0.06103515625,0.0,-0.1220703125,-0.0146484375,0.9046630859375,-0.4310302734375,112.0,-18.0,-111.0,103165.0,-15.212000846862793,0,0
269.560028,-0.49224853515625,-0.77557373046875,-0.337188720703125,-0.205963134765625,0.06103515625,0.0,-0.1220703125,-0.0146484375,0.9046630859375,-0.4310302734375,112.0,-18.0,-111.0,103165.0,-15.212000846862793,0,0
269.567001,-0.49224853515625,-0.77557373046875,-0.337188720703125,-0.205963134765625,0.6103515625,0.30517578125,0.3662109375,-0.0133056640625,0.902099609375,-0.43017578125,112.0,-18.0,-111.0,103165.0,-15.212000846862793,0,0
269.573996,-0.49224853515625,-0.77557373046875,-0.337188720703125,-0.205963134765625,0.0,0.30517578125,-0.30517578125,-0.0126953125,0.9039306640625,-0.4306640625,112.0,-18.0,-111.0,103165.0,-15.212000846862793,0,0
269.580995,-0.49224853515625,-0.77557373046875,-0.337188720703125,-0.205963134765625,0.18310546875,0.0,0.244140625,-0.0115966796875,0.903564453125,-0.4315185546875,112.0,-18.0,-111.0,103165.0,-15.212000846862793,0,0
269.587995,-0.49224853515625,-0.77557373046875,-0.337188720703125,-0.205963134765625,0.1220703125,0.244140625,0.06103515625,-0.0125732421875,0.901123046875,-0.431640625,112.0,-18.0,-111.0,103165.0,-15.212000846862793,0,0
269.594998,-0.49224853515625,-0.77557373046875,-0.337188720703125,-0.205963134765625,0.18310546875,0.1220703125,-0.1220703125,-0.0128173828125,0.902587890625,-0.429443359375,112.0,-18.0,-111.0,103165.0,-15.212000846862793,0,0
269.601998,-0.49224853515625,-0.77557373046875,-0.337188720703125,-0.205963134765625,-0.54931640625,0.1220703125,-0.18310546875,-0.011474609375,0.903076171875,-0.4305419921875,112.0,-18.0,-111.0,103165.0,-15.212000846862793,0,0
269.608997,-0.49224853515625,-0.77557373046875,-0.337188720703125,-0.205963134765625,0.06103515625,0.244140625,-0.06103515625,-0.012939453125,0.90478515625,-0.4327392578125,112.0,-18.0,-111.0,103165.0,-15.212000846862793,0,0
269.615997,-0.49224853515625,-0.77557373046875,-0.337188720703125,-0.205963134765625,-0.18310546875,0.1220703125,-0.06103515625,-0.0147705078125,0.90185546875,-0.43115234375,112.0,-18.0,-111.0,103165.0,-15.212000846862793,0,0
269.622996,-0.49224853515625,-0.77557373046875,-0.337188720703125,-0.2059326171875,-0.30517578125,0.244140625,0.1220703125,-0.01318359375,0.90283203125,-0.43017578125,112.0,-18.0,-111.0,103165.0,-15.212000846862793,0,0
269.629997,-0.49224853515625,-0.77557373046875,-0.337188720703125,-0.2059326171875,-0.244140625,0.3662109375,0.18310546875,-0.013427734375,0.903564453125,-0.431884765625,112.0,-18.0,-111.0,103165.0,-15.212000846862793,0,0
269.636995,-0.49224853515625,-0.77557373046875,-0.337188720703125,-0.2059326171875,0.06103515625,0.1220703125,0.1220703125,-0.0101318359375,0.9007568359375,-0.4326171875,112.0,-18.0,-111.0,103165.0,-15.212000846862793,0,0
269.656997,-0.4923095703125,-0.77569580078125,-0.336944580078125,-0.205810546875,0.30517578125,-0.244140625,0.06103515625,-0.0089111328125,0.9031982421875,-0.431396484375,112.0,-19.0,-113.0,103165.0,-15.213000297546387,0,0
269.663995,-0.4923095703125,-0.77569580078125,-0.336944580078125,-0.205810546875,-0.06103515625,-0.06103515625,0.06103515625,-0.0130615234375,0.9013671875,-0.430419921875,112.0,-19.0,-113.0,103165.0,-15.213000297546387,0,0
269.670995,-0.4923095703125,-0.77569580078125,-0.336944580078125,-0.205810546875,0.1220703125,0.0,0.18310546875,-0.0133056640625,0.902587890625,-0.430419921875,112.0,-19.0,-113.0,103165.0,-15.213000297546387,0,0
269.677995,-0.492279052734375,-0.77569580078125,-0.336944580078125,-0.205810546875,0.1220703125,0.18310546875,0.1220703125,-0.0107421875,0.903076171875,-0.431884765625,112.0,-19.0,-113.0,103165.0,-15.213000297546387,0,0
269.684998,-0.492279052734375,-0.77569580078125,-0.336944580078125,-0.205810546875,0.244140625,0.244140625,0.1220703125,-0.0118408203125,0.9029541015625,-0.4302978515625,112.0,-19.0,-113.0,103165.0,-15.213000297546387,0,0
269.691998,-0.492279052734375,-0.77569580078125,-0.336944580078125,-0.205810546875,0.3662109375,0.48828125,0.1220703125,-0.013916015625,0.9024658203125,-0.43115234375,112.0,-19.0,-113.0,103165.0,-15.213000297546387,0,0
269.698997,-0.4923095703125,-0.77569580078125,-0.336944580078125,-0.205810546875,-0.18310546875,0.1220703125,0.06103515625,-0.0111083984375,0.904296875,-0.4281005859375,112.0,-19.0,-113.0,103165.0,-15.213000297546387,0,0
269.705997,-0.4923095703125,-0.77569580078125,-0.336944580078125,-0.205810546875,0.0,0.30517578125,0.0,-0.0133056640625,0.90234375,-0.4310302734375,112.0,-19.0,-113.0,103165.0,-15.213000297546387,0,0
269.712996,-0.492279052734375,-0.77569580078125,-0.336944580078125,-0.205810546875,0.0,0.18310546875,0.06103515625,-0.011962890625,0.9031982421875,-0.4312744140625,112.0,-19.0,-113.0,103165.0,-15.213000297546387,0,0
269.719997,-0.492279052734375,-0.77569580078125,-0.336944580078125,-0.205810546875,-0.244140625,0.18310546875,-0.244140625,-0.0133056640625,0.902587890625,-0.4326171875,112.0,-19.0,-113.0,103165.0,-15.213000297546387,0,0
269.726995,-0.492279052734375,-0.77569580078125,-0.336944580078125,-0.205780029296875,0.30517578125,0.42724609375,-0.18310546875,-0.0133056640625,0.90234375,-0.43115234375,112.0,-19.0,-113.0,103165.0,-15.213000297546387,0,0
269.747022,-0.492279052734375,-0.77569580078125,-0.336944580078125,-0.205810546875,0.3662109375,0.18310546875,0.0,-0.013916015625,0.904052734375,-0.4317626953125,112.0,-19.0,-113.0,103165.0,-15.213000297546387,0,0
269.753995,-0.49237060546875,-0.77581787109375,-0.336700439453125,-0.205657958984375,-0.6103515625,0.06103515625,0.0,-0.013916015625,0.900390625,-0.429443359375,112.0,-20.0,-113.0,103165.0,-15.211000442504883,0,0
269.760995,-0.49237060546875,-0.775787353515625,-0.336700439453125,-0.205657958984375,0.18310546875,0.18310546875,-0.06103515625,-0.0142822265625,0.9033203125,-0.430908203125,112.0,-20.0,-113.0,103165.0,-15.211000442504883,0,0
269.767995,-0.49237060546875,-0.775787353515625,-0.336700439453125,-0.20562744140625,-0.48828125,0.18310546875,0.06103515625,-0.01416015625,0.90380859375,-0.4298095703125,112.0,-20.0,-113.0,103165.0,-15.211000442504883,0,0
269.774998,-0.49237060546875,-0.775787353515625,-0.336700439453125,-0.205657958984375,-0.30517578125,0.1220703125,-0.06103515625,-0.0130615234375,0.9022216796875,-0.4285888671875,112.0,-20.0,-113.0,103165.0,-15.211000442504883,0,0
269.781998,-0.49237060546875,-0.775787353515625,-0.336700439453125,-0.20562744140625,-0.06103515625,0.1220703125,-0.06103515625,-0.012939453125,0.9002685546875,-0.4298095703125,112.0,-20.0,-113.0,103165.0,-15.211000442504883,0,0
269.788997,-0.49237060546875,-0.775787353515625,-0.336700439453125,-0.20562744140625,0.0,0.3662109375,-0.1220703125,-0.0137939453125,0.9046630859375,-0.4295654296875,112.0,-20.0,-113.0,103165.0,-15.211000442504883,0,0
269.795997,-0.49237060546875,-0.775787353515625,-0.336700439453125,-0.20562744140625,-0.06103515625,0.244140625,-0.18310546875,-0.0128173828125,0.904052734375,-0.4310302734375,112.0,-20.0,-113.0,103165.0,-15.211000442504883,0,0
269.802996,-0.49237060546875,-0.775787353515625,-0.336700439453125,-0.20562744140625,-0.42724609375,0.06103515625,-0.18310546875,-0.01220703125,0.9027099609375,-0.4317626953125,112.0,-20.0,-113.0,103165.0,-15.211000442504883,0,0
269.810001,-0.49237060546875,-0.775787353515625,-0.336700439453125,-0.20562744140625,0.42724609375,0.1220703125,-0.1220703125,-0.01318359375,0.9036865234375,-0.429443359375,112.0,-20.0,-113.0,103165.0,-15.211000442504883,0,0
