Time stamp(sec),adc1,adc2,roll_angular_rate,pitch_angular_rate,yaw_angular_rate,acc_X,acc_Y,acc_Z,mag_X,mag_Y,mag_Z,pressure,altitude
0.06372439999540802,0.37298583984375,-0.45245361328125,0.30975341796875,-0.748443603515625,0.06103515625,-0.06103515625,0.48828125,0.4466552734375,-0.80517578125,0.399658203125,-292.0,149.0,-151.0,101703.0,-3.1500000953674316,0,0
0.0638016000011703,0.37298583984375,-0.45245361328125,0.30975341796875,-0.748443603515625,-0.06103515625,0.0,0.30517578125,0.444091796875,-0.802978515625,0.399169921875,-292.0,149.0,-151.0,101703.0,-3.1500000953674316,0,0
0.06385730000329204,0.373016357421875,-0.45245361328125,0.30975341796875,-0.748443603515625,-0.06103515625,-0.48828125,-0.06103515625,0.4461669921875,-0.8038330078125,0.3990478515625,-292.0,149.0,-151.0,101703.0,-3.1500000953674316,0,0
0.0639110000047367,0.3726806640625,-0.45233154296875,0.3099365234375,-0.74859619140625,-0.06103515625,0.0,-0.30517578125,0.4466552734375,-0.8016357421875,0.3978271484375,-292.0,149.0,-151.0,101703.0,-3.1500000953674316,0,0
0.06396479999239091,0.3726806640625,-0.45233154296875,0.3099365234375,-0.74859619140625,-0.06103515625,0.0,-0.30517578125,0.4466552734375,-0.8016357421875,0.3978271484375,-292.0,149.0,-151.0,101703.0,-3.1500000953674316,0,0
0.06401679999544285,0.3726806640625,-0.45233154296875,0.3099365234375,-0.74859619140625,-0.3662109375,-0.06103515625,-0.244140625,0.446044921875,-0.79736328125,0.3970947265625,-292.0,149.0,-151.0,101703.0,-3.1500000953674316,0,0
0.06406960000458639,0.3726806640625,-0.45233154296875,0.3099365234375,-0.74859619140625,0.06103515625,-0.18310546875,-0.42724609375,0.4444580078125,-0.7994384765625,0.3975830078125,-292.0,149.0,-151.0,101703.0,-3.1500000953674316,0,0
0.06467229999543633,0.3726806640625,-0.45233154296875,0.3099365234375,-0.74859619140625,0.67138671875,-0.06103515625,-0.30517578125,0.4476318359375,-0.8009033203125,0.3974609375,-292.0,149.0,-151.0,101703.0,-3.1500000953674316,0,0
0.0647439000022132,0.3726806640625,-0.45233154296875,0.3099365234375,-0.74859619140625,0.3662109375,-0.06103515625,-0.06103515625,0.4471435546875,-0.7978515625,0.3975830078125,-292.0,149.0,-151.0,101703.0,-3.1500000953674316,0,0
0.06485759999486618,0.3726806640625,-0.45233154296875,0.3099365234375,-0.74859619140625,0.244140625,-0.18310546875,-0.06103515625,0.447998046875,-0.79833984375,0.4012451171875,-292.0,149.0,-151.0,101703.0,-3.1500000953674316,0,0
0.06491489999461919,0.3726806640625,-0.45233154296875,0.3099365234375,-0.74859619140625,0.18310546875,-0.18310546875,0.1220703125,0.44677734375,-0.801025390625,0.399658203125,-292.0,149.0,-151.0,101703.0,-3.1500000953674316,0,0
0.06496899999910966,0.3726806640625,-0.45233154296875,0.309906005859375,-0.74859619140625,-0.48828125,-0.30517578125,0.18310546875,0.4464111328125,-0.8001708984375,0.4005126953125,-292.0,149.0,-151.0,101703.0,-3.1500000953674316,0,0
0.06502270000055432,0.3726806640625,-0.45233154296875,0.3099365234375,-0.74859619140625,0.1220703125,0.1220703125,0.30517578125,0.4466552734375,-0.8048095703125,0.3992919921875,-292.0,149.0,-151.0,101703.0,-3.1500000953674316,0,0
0.12977230000251438,0.3726806640625,-0.45233154296875,0.3099365234375,-0.74859619140625,-0.06103515625,-0.06103515625,-0.06103515625,0.445556640625,-0.8028564453125,0.398193359375,-292.0,149.0,-151.0,101703.0,-3.1500000953674316,0,0
0.12984929999220185,0.372711181640625,-0.45233154296875,0.3099365234375,-0.74859619140625,0.244140625,0.244140625,-0.30517578125,0.444580078125,-0.8035888671875,0.39794921875,-292.0,149.0,-151.0,101703.0,-3.1500000953674316,0,0
0.12993310000456404,0.372711181640625,-0.452301025390625,0.309967041015625,-0.748565673828125,0.18310546875,-0.244140625,-0.18310546875,0.4420166015625,-0.8016357421875,0.3984375,-292.0,149.0,-151.0,101703.0,-3.1500000953674316,0,0
0.12998769999830984,0.372711181640625,-0.452301025390625,0.309967041015625,-0.74859619140625,0.244140625,-0.06103515625,-0.42724609375,0.4456787109375,-0.8001708984375,0.3997802734375,-292.0,149.0,-151.0,101703.0,-3.1500000953674316,0,0
0.130684999996447,0.372711181640625,-0.452301025390625,0.309967041015625,-0.74859619140625,0.3662109375,-0.18310546875,-0.18310546875,0.44287109375,-0.8017578125,0.3984375,-292.0,149.0,-151.0,101703.0,-3.1500000953674316,0,0
0.13103350000164937,0.372711181640625,-0.452301025390625,0.309967041015625,-0.74859619140625,0.1220703125,-0.3662109375,-0.48828125,0.4453125,-0.7994384765625,0.3973388671875,-292.0,149.0,-151.0,101703.0,-3.1500000953674316,0,0
0.13109110000368673,0.372711181640625,-0.452301025390625,0.309967041015625,-0.74859619140625,-0.06103515625,-0.1220703125,-0.06103515625,0.4468994140625,-0.7996826171875,0.400390625,-292.0,149.0,-151.0,101703.0,-3.1500000953674316,0,0
0.13114610000047833,0.372711181640625,-0.452301025390625,0.3099365234375,-0.74859619140625,-0.18310546875,-0.18310546875,-0.18310546875,0.44775390625,-0.798095703125,0.3973388671875,-292.0,149.0,-151.0,101703.0,-3.1500000953674316,0,0
0.13120010000420734,0.372711181640625,-0.452301025390625,0.3099365234375,-0.74859619140625,-0.18310546875,-0.18310546875,-0.18310546875,0.44775390625,-0.798095703125,0.3973388671875,-292.0,149.0,-151.0,101703.0,-3.1500000953674316,0,0
0.1312545999971917,0.37249755859375,-0.452239990234375,0.310089111328125,-0.748687744140625,-0.48828125,-0.30517578125,-0.18310546875,0.4439697265625,-0.7989501953125,0.3956298828125,-294.0,149.0,-152.0,101703.0,-3.1500000953674316,0,0
0.13131309999153018,0.37249755859375,-0.45220947265625,0.310089111328125,-0.748687744140625,-0.18310546875,0.06103515625,0.06103515625,0.4437255859375,-0.80126953125,0.39697265625,-294.0,149.0,-152.0,101703.0,-3.1500000953674316,0,0
0.18812130000151228,0.37249755859375,-0.45220947265625,0.31005859375,-0.748687744140625,-0.18310546875,0.0,0.244140625,0.446044921875,-0.80078125,0.3997802734375,-294.0,149.0,-152.0,101703.0,-3.1500000953674316,0,0
0.18818139999348205,0.37249755859375,-0.45220947265625,0.31005859375,-0.748687744140625,0.0,0.06103515625,0.244140625,0.44677734375,-0.8021240234375,0.3995361328125,-294.0,149.0,-152.0,101703.0,-3.1500000953674316,0,0
0.18823759999941103,0.37249755859375,-0.45220947265625,0.310089111328125,-0.748687744140625,0.30517578125,-0.30517578125,0.1220703125,0.4447021484375,-0.8038330078125,0.400146484375,-294.0,149.0,-152.0,101703.0,-3.1500000953674316,0,0
0.18829320000077132,0.372528076171875,-0.45220947265625,0.310089111328125,-0.748687744140625,-0.244140625,-0.30517578125,-0.18310546875,0.4451904296875,-0.802490234375,0.3975830078125,-294.0,149.0,-152.0,101703.0,-3.1500000953674316,0,0
0.18834680000145454,0.372528076171875,-0.45220947265625,0.310089111328125,-0.748687744140625,-0.244140625,-0.30517578125,-0.18310546875,0.4451904296875,-0.802490234375,0.3975830078125,-294.0,149.0,-152.0,101703.0,-3.1500000953674316,0,0
0.18933710000419524,0.372528076171875,-0.45220947265625,0.310089111328125,-0.748687744140625,0.1220703125,-0.1220703125,-0.3662109375,0.4439697265625,-0.801513671875,0.3992919921875,-294.0,149.0,-152.0,101703.0,-3.1500000953674316,0,0
0.1894002999906661,0.372528076171875,-0.45220947265625,0.310089111328125,-0.748687744140625,0.06103515625,-0.3662109375,-0.48828125,0.446044921875,-0.801513671875,0.396484375,-294.0,149.0,-152.0,101703.0,-3.1500000953674316,0,0
0.18945649999659508,0.372528076171875,-0.45220947265625,0.310089111328125,-0.748687744140625,0.8544921875,-0.1220703125,-0.42724609375,0.4434814453125,-0.7989501953125,0.3978271484375,-294.0,149.0,-152.0,101703.0,-3.1500000953674316,0,0
0.18951060000108555,0.372528076171875,-0.45220947265625,0.310089111328125,-0.748687744140625,0.18310546875,-0.1220703125,-0.244140625,0.4468994140625,-0.80224609375,0.4007568359375,-294.0,149.0,-152.0,101703.0,-3.1500000953674316,0,0
0.18956420000176877,0.372528076171875,-0.45220947265625,0.310089111328125,-0.748687744140625,0.06103515625,-0.244140625,-0.30517578125,0.4476318359375,-0.8013916015625,0.3992919921875,-294.0,149.0,-152.0,101703.0,-3.1500000953674316,0,0
0.18961729999864474,0.372528076171875,-0.45220947265625,0.310089111328125,-0.748687744140625,0.1220703125,-0.1220703125,0.244140625,0.4481201171875,-0.8035888671875,0.3973388671875,-294.0,149.0,-152.0,101703.0,-3.1500000953674316,0,0
0.2534471999970265,0.372528076171875,-0.45220947265625,0.310089111328125,-0.748687744140625,0.0,0.0,0.0,0.4478759765625,-0.803955078125,0.3997802734375,-294.0,149.0,-152.0,101703.0,-3.1500000953674316,0,0
0.2535128000017721,0.372528076171875,-0.45220947265625,0.310089111328125,-0.748687744140625,-0.06103515625,-0.06103515625,0.30517578125,0.4461669921875,-0.802978515625,0.398681640625,-294.0,149.0,-152.0,101703.0,-3.1500000953674316,0,0
0.2535686000046553,0.372528076171875,-0.45220947265625,0.310089111328125,-0.748687744140625,-0.06103515625,-0.1220703125,0.06103515625,0.4466552734375,-0.802490234375,0.398193359375,-294.0,149.0,-152.0,101703.0,-3.1500000953674316,0,0
0.25362350000068545,0.372528076171875,-0.45220947265625,0.310089111328125,-0.748687744140625,-0.06103515625,-0.1220703125,0.06103515625,0.4466552734375,-0.802490234375,0.398193359375,-294.0,149.0,-152.0,101703.0,-3.1500000953674316,0,0
0.2536767999990843,0.372528076171875,-0.45220947265625,0.310089111328125,-0.748687744140625,0.0,0.1220703125,-0.06103515625,0.4459228515625,-0.8006591796875,0.3975830078125,-294.0,149.0,-152.0,101703.0,-3.1500000953674316,0,0
0.2537291000044206,0.372314453125,-0.452117919921875,0.310211181640625,-0.748779296875,0.1220703125,-0.18310546875,-0.18310546875,0.4454345703125,-0.8017578125,0.3988037109375,-294.0,149.0,-152.0,101703.0,-3.1500000953674316,0,0
0.25378339999588206,0.372314453125,-0.452117919921875,0.310211181640625,-0.748779296875,0.1220703125,-0.06103515625,-0.18310546875,0.446044921875,-0.80224609375,0.39794921875,-294.0,149.0,-152.0,101703.0,-3.1500000953674316,0,0
0.25393110000004526,0.372314453125,-0.452117919921875,0.31024169921875,-0.748779296875,0.06103515625,-0.1220703125,-0.06103515625,0.4443359375,-0.803955078125,0.398193359375,-294.0,149.0,-152.0,101703.0,-3.1500000953674316,0,0
0.25398379999387544,0.372314453125,-0.452117919921875,0.31024169921875,-0.748779296875,0.244140625,-0.18310546875,-0.42724609375,0.4473876953125,-0.80126953125,0.399658203125,-294.0,149.0,-152.0,101703.0,-3.1500000953674316,0,0
0.25403879999066703,0.372314453125,-0.452117919921875,0.31024169921875,-0.748779296875,-0.06103515625,-0.18310546875,-0.1220703125,0.445068359375,-0.802978515625,0.39990234375,-294.0,149.0,-152.0,101703.0,-3.1500000953674316,0,0
0.25409139999828767,0.372314453125,-0.452117919921875,0.31024169921875,-0.748779296875,0.244140625,0.18310546875,-0.18310546875,0.4473876953125,-0.8021240234375,0.399169921875,-294.0,149.0,-152.0,101703.0,-3.1500000953674316,0,0
0.254144799997448,0.372314453125,-0.452117919921875,0.310211181640625,-0.748779296875,-0.06103515625,-0.18310546875,-0.3662109375,0.4481201171875,-0.797119140625,0.3990478515625,-294.0,149.0,-152.0,101703.0,-3.1500000953674316,0,0
0.2541977999935625,0.372314453125,-0.452117919921875,0.310211181640625,-0.748779296875,-0.06103515625,-0.18310546875,-0.3662109375,0.4481201171875,-0.797119140625,0.3990478515625,-294.0,149.0,-152.0,101703.0,-3.1500000953674316,0,0
0.3191818999912357,0.372314453125,-0.452117919921875,0.310211181640625,-0.748779296875,0.18310546875,0.0,0.244140625,0.4482421875,-0.80029296875,0.399169921875,-294.0,149.0,-152.0,101703.0,-3.1500000953674316,0,0
0.31924299999081995,0.372314453125,-0.452117919921875,0.310211181640625,-0.748779296875,-0.18310546875,-0.18310546875,0.30517578125,0.448486328125,-0.8018798828125,0.399169921875,-294.0,149.0,-152.0,101703.0,-3.1500000953674316,0,0
0.3192983000044478,0.372314453125,-0.452117919921875,0.310211181640625,-0.748779296875,0.06103515625,-0.244140625,0.1220703125,0.444091796875,-0.7994384765625,0.3990478515625,-294.0,149.0,-152.0,101703.0,-3.1500000953674316,0,0
0.31935190000513103,0.372314453125,-0.452117919921875,0.310211181640625,-0.748779296875,0.1220703125,-0.1220703125,-0.18310546875,0.4454345703125,-0.801513671875,0.396484375,-294.0,149.0,-152.0,101703.0,-3.1500000953674316,0,0
0.31940720000420697,0.372314453125,-0.452117919921875,0.310211181640625,-0.748779296875,-0.3662109375,-0.1220703125,-0.244140625,0.4456787109375,-0.8016357421875,0.3985595703125,-294.0,149.0,-152.0,101703.0,-3.1500000953674316,0,0
0.3195833999925526,0.372314453125,-0.452117919921875,0.310211181640625,-0.748779296875,0.244140625,0.0,-0.1220703125,0.44580078125,-0.8028564453125,0.3975830078125,-294.0,149.0,-152.0,101703.0,-3.1500000953674316,0,0
0.31963879999239,0.372314453125,-0.4521484375,0.310211181640625,-0.748779296875,0.30517578125,-0.06103515625,-0.06103515625,0.4466552734375,-0.8018798828125,0.3978271484375,-294.0,149.0,-152.0,101703.0,-3.1500000953674316,0,0
0.3196925999945961,0.372314453125,-0.4521484375,0.310211181640625,-0.748779296875,0.30517578125,-0.06103515625,-0.06103515625,0.4466552734375,-0.8018798828125,0.3978271484375,-294.0,149.0,-152.0,101703.0,-3.1500000953674316,0,0
0.3197455000045011,0.372314453125,-0.452117919921875,0.310211181640625,-0.748779296875,0.06103515625,0.1220703125,0.18310546875,0.4468994140625,-0.8017578125,0.4012451171875,-294.0,149.0,-152.0,101703.0,-3.1500000953674316,0,0
0.31979880000289995,0.372314453125,-0.452117919921875,0.310211181640625,-0.748779296875,0.06103515625,0.1220703125,0.18310546875,0.4468994140625,-0.8017578125,0.4012451171875,-294.0,149.0,-152.0,101703.0,-3.1500000953674316,0,0
0.31985319999512285,0.3721923828125,-0.45208740234375,0.310272216796875,-0.74884033203125,-0.1220703125,-0.1220703125,0.1220703125,0.44677734375,-0.8038330078125,0.3992919921875,-295.0,149.0,-151.0,101703.0,-3.1500000953674316,0,0
0.37991789999068715,0.3721923828125,-0.45208740234375,0.310272216796875,-0.74884033203125,-0.06103515625,-0.06103515625,0.0,0.4468994140625,-0.8009033203125,0.3992919921875,-295.0,149.0,-151.0,101703.0,-3.1500000953674316,0,0
0.37997890000406187,0.3721923828125,-0.45208740234375,0.310272216796875,-0.74884033203125,0.30517578125,0.0,-0.1220703125,0.444091796875,-0.8011474609375,0.3975830078125,-295.0,149.0,-151.0,101703.0,-3.1500000953674316,0,0
0.38003509999543894,0.372222900390625,-0.45208740234375,0.310272216796875,-0.74884033203125,0.06103515625,-0.30517578125,-0.18310546875,0.44482421875,-0.8023681640625,0.398681640625,-295.0,149.0,-151.0,101703.0,-3.1500000953674316,0,0
0.3800885999953607,0.372222900390625,-0.45208740234375,0.310272216796875,-0.74884033203125,0.06103515625,-0.30517578125,-0.18310546875,0.44482421875,-0.8023681640625,0.398681640625,-295.0,149.0,-151.0,101703.0,-3.1500000953674316,0,0
0.3801426999998512,0.372222900390625,-0.45208740234375,0.310272216796875,-0.74884033203125,-0.1220703125,-0.244140625,-0.06103515625,0.446533203125,-0.7996826171875,0.3994140625,-295.0,149.0,-151.0,101703.0,-3.1500000953674316,0,0
0.3804154999961611,0.3721923828125,-0.45208740234375,0.310272216796875,-0.74884033203125,0.06103515625,-0.18310546875,-0.244140625,0.446044921875,-0.8016357421875,0.3994140625,-295.0,149.0,-151.0,101703.0,-3.1500000953674316,0,0
0.3804723999928683,0.3721923828125,-0.45208740234375,0.310272216796875,-0.74884033203125,-0.1220703125,-0.18310546875,-0.18310546875,0.447021484375,-0.800537109375,0.3990478515625,-295.0,149.0,-151.0,101704.0,-3.1500000953674316,0,0
0.38052520000201184,0.3721923828125,-0.45208740234375,0.310272216796875,-0.74884033203125,0.0,0.0,0.0,0.4462890625,-0.8033447265625,0.3995361328125,-295.0,149.0,-151.0,101704.0,-3.1500000953674316,0,0
0.3805780999973649,0.3721923828125,-0.45208740234375,0.310272216796875,-0.74884033203125,0.30517578125,-0.06103515625,-0.18310546875,0.44775390625,-0.800048828125,0.3988037109375,-295.0,149.0,-151.0,101704.0,-3.1500000953674316,0,0
0.38063250000413973,0.3721923828125,-0.45208740234375,0.310272216796875,-0.74884033203125,0.06103515625,0.1220703125,-0.18310546875,0.4443359375,-0.801025390625,0.398681640625,-295.0,149.0,-151.0,101704.0,-3.1500000953674316,0,0
0.380684999996447,0.3721923828125,-0.45208740234375,0.310272216796875,-0.74884033203125,0.244140625,0.06103515625,0.1220703125,0.445068359375,-0.799072265625,0.3990478515625,-295.0,149.0,-151.0,101704.0,-3.1500000953674316,0,0
0.3807379999925615,0.3721923828125,-0.45208740234375,0.310272216796875,-0.74884033203125,-0.30517578125,-0.1220703125,-0.1220703125,0.447021484375,-0.80078125,0.3983154296875,-295.0,149.0,-151.0,101704.0,-3.1500000953674316,0,0
0.44678559999738354,0.3721923828125,-0.45208740234375,0.310272216796875,-0.74884033203125,-0.30517578125,-0.1220703125,-0.1220703125,0.447021484375,-0.80078125,0.3983154296875,-295.0,149.0,-151.0,101704.0,-3.1500000953674316,0,0
0.4468568000011146,0.3721923828125,-0.45208740234375,0.310272216796875,-0.74884033203125,0.1220703125,-0.06103515625,-0.30517578125,0.444580078125,-0.802734375,0.3974609375,-295.0,149.0,-151.0,101704.0,-3.1500000953674316,0,0
0.4469150999939302,0.3721923828125,-0.45208740234375,0.310272216796875,-0.74884033203125,-0.18310546875,0.0,0.0,0.444580078125,-0.801025390625,0.3985595703125,-295.0,149.0,-151.0,101704.0,-3.1500000953674316,0,0
0.44696790000307374,0.3721923828125,-0.45208740234375,0.310272216796875,-0.74884033203125,0.06103515625,0.06103515625,-0.1220703125,0.4447021484375,-0.803955078125,0.399169921875,-295.0,149.0,-151.0,101704.0,-3.1500000953674316,0,0
0.44702189999225084,0.3721923828125,-0.45208740234375,0.310272216796875,-0.74884033203125,-0.06103515625,-0.1220703125,-0.06103515625,0.447021484375,-0.80029296875,0.3990478515625,-295.0,149.0,-151.0,101704.0,-3.1500000953674316,0,0
0.44707439999911003,0.3721923828125,-0.45208740234375,0.310272216796875,-0.74884033203125,-0.06103515625,-0.06103515625,0.06103515625,0.44580078125,-0.8006591796875,0.3994140625,-296.0,149.0,-151.0,101704.0,-3.1500000953674316,0,0
0.4471478999912506,0.372222900390625,-0.45208740234375,0.310272216796875,-0.74884033203125,-0.06103515625,-0.244140625,-0.06103515625,0.4449462890625,-0.8028564453125,0.398193359375,-296.0,149.0,-151.0,101704.0,-3.1500000953674316,0,0
0.4472024999995483,0.372222900390625,-0.45208740234375,0.310272216796875,-0.748809814453125,0.30517578125,-0.1220703125,-0.1220703125,0.4449462890625,-0.8004150390625,0.3970947265625,-296.0,149.0,-151.0,101704.0,-3.1500000953674316,0,0
0.4472551999933785,0.372222900390625,-0.45208740234375,0.310272216796875,-0.748809814453125,-0.06103515625,-0.06103515625,-0.244140625,0.4451904296875,-0.802978515625,0.39892578125,-296.0,149.0,-151.0,101704.0,-3.1500000953674316,0,0
0.44730889999482315,0.372222900390625,-0.45208740234375,0.310272216796875,-0.74884033203125,-0.06103515625,-0.1220703125,-0.1220703125,0.4456787109375,-0.800537109375,0.399658203125,-296.0,149.0,-151.0,101704.0,-3.1500000953674316,0,0
0.4473627999977907,0.372222900390625,-0.45208740234375,0.310272216796875,-0.74884033203125,-0.06103515625,-0.1220703125,-0.1220703125,0.4456787109375,-0.800537109375,0.399658203125,-296.0,149.0,-151.0,101704.0,-3.1500000953674316,0,0
0.44746650000161026,0.372222900390625,-0.45208740234375,0.310302734375,-0.748809814453125,0.0,-0.244140625,-0.06103515625,0.4456787109375,-0.80126953125,0.396240234375,-296.0,149.0,-151.0,101704.0,-3.1500000953674316,0,0
0.5103843999968376,0.372222900390625,-0.45208740234375,0.310302734375,-0.748809814453125,-0.1220703125,-0.06103515625,0.0,0.448486328125,-0.8016357421875,0.3983154296875,-296.0,149.0,-151.0,101704.0,-3.1500000953674316,0,0
0.5104509999946458,0.372222900390625,-0.45208740234375,0.310302734375,-0.748809814453125,0.18310546875,0.0,0.0,0.4453125,-0.8033447265625,0.4000244140625,-296.0,149.0,-151.0,101704.0,-3.1500000953674316,0,0
0.5105065999960061,0.372222900390625,-0.45208740234375,0.310302734375,-0.748809814453125,0.0,0.0,0.18310546875,0.447021484375,-0.80078125,0.4005126953125,-296.0,149.0,-151.0,101704.0,-3.1500000953674316,0,0
0.5105603999982122,0.372222900390625,-0.45208740234375,0.310302734375,-0.748809814453125,-0.06103515625,-0.30517578125,0.1220703125,0.442626953125,-0.801513671875,0.3980712890625,-296.0,149.0,-151.0,101704.0,-3.1500000953674316,0,0
0.5106135999958497,0.372222900390625,-0.45208740234375,0.310302734375,-0.748809814453125,0.18310546875,0.06103515625,-0.1220703125,0.443115234375,-0.80126953125,0.398193359375,-296.0,149.0,-151.0,101704.0,-3.1500000953674316,0,0
0.5106818999920506,0.372222900390625,-0.45208740234375,0.310302734375,-0.748809814453125,0.18310546875,0.06103515625,-0.1220703125,0.443115234375,-0.80126953125,0.398193359375,-296.0,149.0,-151.0,101704.0,-3.1500000953674316,0,0
0.5107362999988254,0.372222900390625,-0.45208740234375,0.310302734375,-0.748809814453125,0.18310546875,0.06103515625,-0.1220703125,0.443115234375,-0.80126953125,0.398193359375,-296.0,149.0,-151.0,101704.0,-3.1500000953674316,0,0
0.5107889999926556,0.372222900390625,-0.45208740234375,0.310302734375,-0.748809814453125,-0.06103515625,0.0,-0.06103515625,0.44677734375,-0.801513671875,0.3970947265625,-296.0,149.0,-151.0,101704.0,-3.1500000953674316,0,0
0.5108414999995148,0.372222900390625,-0.45208740234375,0.310302734375,-0.748809814453125,0.0,-0.18310546875,-0.1220703125,0.4425048828125,-0.798828125,0.3973388671875,-296.0,149.0,-151.0,101704.0,-3.1500000953674316,0,0
0.5108938999910606,0.372222900390625,-0.45208740234375,0.310302734375,-0.748809814453125,0.244140625,0.1220703125,-0.18310546875,0.4449462890625,-0.8018798828125,0.397216796875,-296.0,149.0,-151.0,101704.0,-3.1500000953674316,0,0
0.5109467000002041,0.372222900390625,-0.45208740234375,0.310333251953125,-0.748809814453125,-0.06103515625,-0.1220703125,-0.244140625,0.4471435546875,-0.8011474609375,0.397216796875,-296.0,149.0,-151.0,101704.0,-3.1500000953674316,0,0
0.5697327999951085,0.372222900390625,-0.45208740234375,0.310302734375,-0.748809814453125,0.06103515625,-0.06103515625,0.06103515625,0.4464111328125,-0.8016357421875,0.3985595703125,-296.0,148.0,-151.0,101704.0,-3.1500000953674316,0,0
0.5697942999977386,0.372222900390625,-0.45208740234375,0.310333251953125,-0.748809814453125,0.06103515625,-0.18310546875,0.06103515625,0.4473876953125,-0.8017578125,0.3983154296875,-296.0,148.0,-151.0,101704.0,-3.1500000953674316,0,0
0.5698507999914,0.372222900390625,-0.45208740234375,0.310333251953125,-0.748809814453125,0.06103515625,-0.18310546875,0.06103515625,0.4473876953125,-0.8017578125,0.3983154296875,-296.0,148.0,-151.0,101704.0,-3.1500000953674316,0,0
0.5699061000050278,0.372222900390625,-0.45208740234375,0.310302734375,-0.748809814453125,-0.1220703125,0.06103515625,-0.30517578125,0.4453125,-0.7998046875,0.3983154296875,-296.0,148.0,-151.0,101704.0,-3.1500000953674316,0,0
0.5699612000025809,0.372222900390625,-0.45208740234375,0.310333251953125,-0.748809814453125,0.1220703125,-0.06103515625,0.18310546875,0.4434814453125,-0.8009033203125,0.3978271484375,-296.0,148.0,-151.0,101704.0,-3.1500000953674316,0,0
0.5700288999942131,0.372222900390625,-0.45208740234375,0.310333251953125,-0.748809814453125,-0.1220703125,0.0,-0.1220703125,0.4437255859375,-0.79931640625,0.39892578125,-296.0,148.0,-151.0,101704.0,-3.1500000953674316,0,0
0.5700835000025108,0.372222900390625,-0.45208740234375,0.310333251953125,-0.748809814453125,-0.06103515625,-0.42724609375,-0.244140625,0.443359375,-0.800048828125,0.3988037109375,-296.0,148.0,-151.0,101704.0,-3.1500000953674316,0,0
0.5701360999955796,0.372222900390625,-0.452056884765625,0.310333251953125,-0.748809814453125,0.244140625,-0.3662109375,-0.1220703125,0.4443359375,-0.8001708984375,0.3974609375,-296.0,148.0,-151.0,101703.0,-3.1500000953674316,0,0
0.5701895999955013,0.372222900390625,-0.452056884765625,0.310333251953125,-0.748809814453125,0.06103515625,0.0,-0.06103515625,0.4471435546875,-0.804443359375,0.399658203125,-296.0,148.0,-151.0,101703.0,-3.1500000953674316,0,0
0.5702441000030376,0.372222900390625,-0.45208740234375,0.310333251953125,-0.748809814453125,0.18310546875,0.0,-0.244140625,0.447509765625,-0.8023681640625,0.3994140625,-296.0,148.0,-151.0,101703.0,-3.1500000953674316,0,0
0.5702976000029594,0.37225341796875,-0.452056884765625,0.310333251953125,-0.748809814453125,0.06103515625,-0.06103515625,-0.18310546875,0.444580078125,-0.8013916015625,0.399658203125,-296.0,148.0,-151.0,101703.0,-3.1500000953674316,0,0
0.570350399997551,0.37225341796875,-0.452056884765625,0.310333251953125,-0.748809814453125,0.06103515625,-0.06103515625,-0.18310546875,0.444580078125,-0.8013916015625,0.399658203125,-296.0,148.0,-151.0,101703.0,-3.1500000953674316,0,0
0.6438595999934478,0.37225341796875,-0.452056884765625,0.310333251953125,-0.748809814453125,-0.1220703125,-0.244140625,-0.18310546875,0.4466552734375,-0.8028564453125,0.3997802734375,-296.0,148.0,-151.0,101703.0,-3.1500000953674316,0,0
0.6439312000002246,0.37225341796875,-0.452056884765625,0.310333251953125,-0.748809814453125,-0.3662109375,-0.06103515625,-0.244140625,0.4449462890625,-0.80126953125,0.3985595703125,-296.0,148.0,-151.0,101703.0,-3.1500000953674316,0,0
0.6439948000042932,0.372222900390625,-0.45208740234375,0.310333251953125,-0.748809814453125,-0.18310546875,-0.1220703125,-0.30517578125,0.445068359375,-0.79833984375,0.3961181640625,-296.0,148.0,-151.0,101703.0,-3.1500000953674316,0,0
0.6440560000046389,0.372222900390625,-0.45208740234375,0.310333251953125,-0.748809814453125,0.06103515625,0.06103515625,-0.244140625,0.44775390625,-0.7991943359375,0.3963623046875,-296.0,148.0,-151.0,101703.0,-3.1500000953674316,0,0
0.6441142999974545,0.372222900390625,-0.45208740234375,0.310333251953125,-0.748809814453125,-0.1220703125,-0.06103515625,-0.30517578125,0.4466552734375,-0.798095703125,0.3983154296875,-296.0,148.0,-151.0,101703.0,-3.1500000953674316,0,0
0.6441724000032991,0.372222900390625,-0.45208740234375,0.310333251953125,-0.748809814453125,0.0,-0.3662109375,-0.18310546875,0.4451904296875,-0.7984619140625,0.39794921875,-296.0,148.0,-151.0,101703.0,-3.1500000953674316,0,0
0.644415000002482,0.372222900390625,-0.45208740234375,0.310302734375,-0.748809814453125,0.244140625,-0.1220703125,0.0,0.446533203125,-0.7991943359375,0.3992919921875,-296.0,148.0,-151.0,101703.0,-3.1500000953674316,0,0
0.64448309999716,0.372222900390625,-0.45208740234375,0.310302734375,-0.748809814453125,-0.06103515625,-0.06103515625,0.0,0.4461669921875,-0.8001708984375,0.399658203125,-295.0,148.0,-151.0,101703.0,-3.1500000953674316,0,0
0.6445412000030046,0.37213134765625,-0.452056884765625,0.31036376953125,-0.748870849609375,0.0,-0.18310546875,0.244140625,0.447998046875,-0.80126953125,0.39892578125,-295.0,148.0,-151.0,101703.0,-3.1500000953674316,0,0
0.6445995999965817,0.37213134765625,-0.452056884765625,0.31036376953125,-0.748870849609375,0.0,-0.18310546875,0.244140625,0.447998046875,-0.80126953125,0.39892578125,-295.0,148.0,-151.0,101703.0,-3.1500000953674316,0,0
0.6446568999963347,0.37213134765625,-0.452056884765625,0.31036376953125,-0.748870849609375,-0.1220703125,-0.1220703125,0.48828125,0.4488525390625,-0.8043212890625,0.3984375,-295.0,148.0,-151.0,101703.0,-3.1500000953674316,0,0
0.6447168000013335,0.37213134765625,-0.452056884765625,0.31036376953125,-0.748870849609375,-0.06103515625,0.0,0.1220703125,0.4476318359375,-0.803466796875,0.3995361328125,-295.0,148.0,-151.0,101703.0,-3.1500000953674316,0,0
0.7006153999973321,0.37213134765625,-0.4520263671875,0.31036376953125,-0.748870849609375,0.0,-0.244140625,-0.30517578125,0.446044921875,-0.800537109375,0.3978271484375,-295.0,148.0,-151.0,101703.0,-3.1500000953674316,0,0
0.7006851000041934,0.37213134765625,-0.4520263671875,0.31036376953125,-0.748870849609375,0.18310546875,-0.18310546875,-0.244140625,0.4444580078125,-0.801025390625,0.3974609375,-295.0,148.0,-151.0,101703.0,-3.1500000953674316,0,0
0.700745399997686,0.37213134765625,-0.4520263671875,0.31036376953125,-0.748870849609375,0.30517578125,-0.244140625,-0.30517578125,0.4444580078125,-0.800537109375,0.3974609375,-295.0,148.0,-151.0,101703.0,-3.1500000953674316,0,0
0.7008055000042077,0.37213134765625,-0.4520263671875,0.31036376953125,-0.748870849609375,0.1220703125,-0.18310546875,-0.48828125,0.4461669921875,-0.7994384765625,0.398193359375,-295.0,148.0,-151.0,101703.0,-3.1500000953674316,0,0
0.7008618999971077,0.37213134765625,-0.4520263671875,0.31036376953125,-0.748870849609375,0.1220703125,-0.18310546875,-0.48828125,0.4461669921875,-0.7994384765625,0.398193359375,-295.0,148.0,-151.0,101703.0,-3.1500000953674316,0,0
0.7010163999948418,0.37213134765625,-0.452056884765625,0.31036376953125,-0.748870849609375,-0.06103515625,0.1220703125,0.244140625,0.4466552734375,-0.8004150390625,0.3992919921875,-295.0,148.0,-151.0,101703.0,-3.1500000953674316,0,0
0.7010860000009416,0.37213134765625,-0.452056884765625,0.31036376953125,-0.748870849609375,-0.18310546875,-0.06103515625,0.0,0.446533203125,-0.8021240234375,0.399169921875,-295.0,148.0,-151.0,101703.0,-3.1500000953674316,0,0
0.7011450999998488,0.372100830078125,-0.452056884765625,0.310333251953125,-0.748870849609375,-0.30517578125,-0.06103515625,0.30517578125,0.4490966796875,-0.8001708984375,0.4000244140625,-295.0,148.0,-151.0,101703.0,-3.1500000953674316,0,0
0.7012022999988403,0.372100830078125,-0.452056884765625,0.310333251953125,-0.748870849609375,0.0,0.06103515625,0.06103515625,0.4471435546875,-0.8018798828125,0.397216796875,-295.0,148.0,-151.0,101703.0,-3.1500000953674316,0,0
0.7012586999917403,0.372100830078125,-0.452056884765625,0.31036376953125,-0.748870849609375,0.06103515625,0.0,0.30517578125,0.4453125,-0.801025390625,0.3980712890625,-295.0,148.0,-151.0,101703.0,-3.1500000953674316,0,0
0.7013141999923391,0.372100830078125,-0.452056884765625,0.31036376953125,-0.748870849609375,0.06103515625,-0.1220703125,0.1220703125,0.447265625,-0.8006591796875,0.3970947265625,-295.0,148.0,-151.0,101703.0,-3.1500000953674316,0,0
0.7013693000044441,0.372100830078125,-0.452056884765625,0.310333251953125,-0.748870849609375,0.06103515625,-0.1220703125,0.1220703125,0.447265625,-0.8006591796875,0.3970947265625,-295.0,148.0,-151.0,101703.0,-3.1500000953674316,0,0
0.7626531999994768,0.372100830078125,-0.452056884765625,0.310333251953125,-0.748870849609375,0.244140625,-0.18310546875,0.0,0.4456787109375,-0.8017578125,0.3985595703125,-295.0,147.0,-151.0,101703.0,-3.1500000953674316,0,0
0.7627213999949163,0.371917724609375,-0.45196533203125,0.310455322265625,-0.74896240234375,-0.18310546875,-0.18310546875,-0.1220703125,0.445556640625,-0.802001953125,0.400390625,-295.0,147.0,-151.0,101703.0,-3.1500000953674316,0,0
0.7627812999999151,0.371917724609375,-0.45196533203125,0.310455322265625,-0.74896240234375,0.18310546875,0.0,-0.30517578125,0.4468994140625,-0.8018798828125,0.39892578125,-295.0,147.0,-151.0,101703.0,-3.1500000953674316,0,0
0.7628393999912078,0.371917724609375,-0.45196533203125,0.310455322265625,-0.74896240234375,0.1220703125,-0.3662109375,-0.1220703125,0.4471435546875,-0.79931640625,0.3974609375,-295.0,147.0,-151.0,101703.0,-3.1500000953674316,0,0
0.7630209999915678,0.37188720703125,-0.451995849609375,0.310455322265625,-0.74896240234375,0.244140625,-0.1220703125,-0.244140625,0.447509765625,-0.8016357421875,0.396240234375,-295.0,147.0,-151.0,101703.0,-3.1500000953674316,0,0
0.7630818000034196,0.37188720703125,-0.451995849609375,0.310455322265625,-0.74896240234375,-0.244140625,-0.06103515625,-0.244140625,0.4473876953125,-0.80126953125,0.3988037109375,-295.0,147.0,-151.0,101703.0,-3.1500000953674316,0,0
0.7631378999940353,0.37188720703125,-0.451995849609375,0.310455322265625,-0.74896240234375,0.1220703125,-0.06103515625,0.0,0.4466552734375,-0.799560546875,0.397216796875,-295.0,147.0,-151.0,101703.0,-3.1500000953674316,0,0
0.7631932999938726,0.37188720703125,-0.451995849609375,0.310455322265625,-0.74896240234375,0.1220703125,-0.18310546875,0.06103515625,0.44677734375,-0.8004150390625,0.3988037109375,-295.0,147.0,-151.0,101703.0,-3.1500000953674316,0,0
0.763249800002086,0.37188720703125,-0.451995849609375,0.310455322265625,-0.74896240234375,-0.06103515625,-0.06103515625,0.1220703125,0.4464111328125,-0.80029296875,0.399169921875,-295.0,147.0,-151.0,101704.0,-3.1510002613067627,0,0
0.7633064999972703,0.37188720703125,-0.451995849609375,0.310455322265625,-0.74896240234375,-0.06103515625,-0.06103515625,0.1220703125,0.4464111328125,-0.80029296875,0.399169921875,-295.0,147.0,-151.0,101704.0,-3.1510002613067627,0,0
0.7633638999977848,0.37188720703125,-0.451995849609375,0.310455322265625,-0.74896240234375,-0.18310546875,-0.1220703125,-0.1220703125,0.4451904296875,-0.80078125,0.3985595703125,-295.0,147.0,-151.0,101704.0,-3.1510002613067627,0,0
0.8309835999971256,0.37188720703125,-0.451995849609375,0.310455322265625,-0.74896240234375,0.3662109375,0.0,0.06103515625,0.4442138671875,-0.802001953125,0.39794921875,-295.0,147.0,-151.0,101704.0,-3.1510002613067627,0,0
0.8311132999951951,0.37188720703125,-0.451995849609375,0.310455322265625,-0.74896240234375,-0.1220703125,-0.06103515625,0.0,0.4456787109375,-0.802490234375,0.397216796875,-295.0,147.0,-151.0,101704.0,-3.1510002613067627,0,0
0.8312259999947855,0.37188720703125,-0.451995849609375,0.310455322265625,-0.74896240234375,-0.1220703125,-0.42724609375,-0.244140625,0.4456787109375,-0.8021240234375,0.396484375,-295.0,147.0,-151.0,101704.0,-3.1510002613067627,0,0
0.8313362999906531,0.37188720703125,-0.451995849609375,0.310455322265625,-0.74896240234375,0.244140625,-0.1220703125,-0.30517578125,0.4471435546875,-0.801513671875,0.3975830078125,-295.0,147.0,-151.0,101704.0,-3.1510002613067627,0,0
0.8314781999943079,0.37188720703125,-0.451995849609375,0.310455322265625,-0.74896240234375,0.06103515625,-0.06103515625,-0.244140625,0.447265625,-0.8011474609375,0.3975830078125,-295.0,147.0,-151.0,101704.0,-3.1510002613067627,0,0
0.8315488999942318,0.37188720703125,-0.451995849609375,0.310455322265625,-0.74896240234375,0.3662109375,0.0,-0.42724609375,0.4488525390625,-0.80126953125,0.398681640625,-295.0,147.0,-151.0,101704.0,-3.1510002613067627,0,0
0.8401273999916157,0.37188720703125,-0.451995849609375,0.310455322265625,-0.74896240234375,-0.18310546875,0.0,-0.30517578125,0.447021484375,-0.7989501953125,0.398193359375,-295.0,147.0,-151.0,101704.0,-3.1510002613067627,0,0
0.8401841000013519,0.37188720703125,-0.451995849609375,0.310455322265625,-0.74896240234375,0.244140625,-0.06103515625,-0.18310546875,0.44677734375,-0.8016357421875,0.39794921875,-295.0,147.0,-150.0,101704.0,-3.1510002613067627,0,0
0.840242299993406,0.371795654296875,-0.45196533203125,0.310516357421875,-0.7490234375,-0.1220703125,-0.18310546875,0.06103515625,0.447021484375,-0.8001708984375,0.3997802734375,-295.0,147.0,-150.0,101704.0,-3.1510002613067627,0,0
0.8403174999984913,0.371795654296875,-0.45196533203125,0.310516357421875,-0.7490234375,-0.1220703125,0.18310546875,0.06103515625,0.4456787109375,-0.7994384765625,0.398681640625,-295.0,147.0,-150.0,101704.0,-3.1510002613067627,0,0
0.8404737999953795,0.371795654296875,-0.45196533203125,0.310516357421875,-0.7490234375,0.0,-0.30517578125,0.06103515625,0.4444580078125,-0.801025390625,0.398681640625,-295.0,147.0,-150.0,101704.0,-3.1510002613067627,0,0
0.8916586999985157,0.371795654296875,-0.45196533203125,0.310516357421875,-0.7490234375,0.3662109375,-0.06103515625,-0.06103515625,0.4478759765625,-0.8018798828125,0.3974609375,-295.0,147.0,-150.0,101704.0,-3.1510002613067627,0,0
0.8917215999972541,0.371795654296875,-0.45196533203125,0.310516357421875,-0.7490234375,-0.1220703125,0.0,-0.244140625,0.4471435546875,-0.80322265625,0.39794921875,-295.0,147.0,-150.0,101704.0,-3.1510002613067627,0,0
0.8917756000009831,0.371795654296875,-0.45196533203125,0.310516357421875,-0.7490234375,0.0,-0.1220703125,-0.1220703125,0.447265625,-0.8016357421875,0.3966064453125,-295.0,147.0,-150.0,101704.0,-3.1510002613067627,0,0
0.8918315999908373,0.371795654296875,-0.45196533203125,0.310516357421875,-0.7490234375,0.0,-0.1220703125,-0.1220703125,0.447265625,-0.8016357421875,0.3966064453125,-295.0,147.0,-150.0,101704.0,-3.1510002613067627,0,0
0.8918878999975277,0.371795654296875,-0.45196533203125,0.310516357421875,-0.7490234375,-0.18310546875,-0.244140625,-0.3662109375,0.4451904296875,-0.80322265625,0.3980712890625,-295.0,147.0,-150.0,101704.0,-3.1510002613067627,0,0
0.8919940000050701,0.371795654296875,-0.45196533203125,0.310516357421875,-0.748992919921875,0.1220703125,0.06103515625,-0.1220703125,0.4453125,-0.802734375,0.396240234375,-295.0,147.0,-150.0,101704.0,-3.1510002613067627,0,0
0.8920482999965316,0.371795654296875,-0.45196533203125,0.310546875,-0.748992919921875,0.30517578125,0.06103515625,-0.18310546875,0.44287109375,-0.8023681640625,0.3985595703125,-295.0,147.0,-150.0,101704.0,-3.1510002613067627,0,0
0.8921002999995835,0.371795654296875,-0.45196533203125,0.310546875,-0.748992919921875,-0.1220703125,-0.1220703125,-0.06103515625,0.44580078125,-0.8018798828125,0.39892578125,-295.0,147.0,-150.0,101704.0,-3.1510002613067627,0,0
0.8921539000002667,0.371795654296875,-0.45196533203125,0.310546875,-0.748992919921875,0.0,-0.244140625,0.06103515625,0.4468994140625,-0.8001708984375,0.3992919921875,-295.0,147.0,-150.0,101704.0,-3.1510002613067627,0,0
0.8922051999979885,0.371795654296875,-0.45196533203125,0.310546875,-0.748992919921875,-0.244140625,-0.06103515625,0.06103515625,0.4456787109375,-0.8026123046875,0.39697265625,-295.0,147.0,-150.0,101704.0,-3.1510002613067627,0,0
0.892258399995626,0.371795654296875,-0.45196533203125,0.310546875,-0.748992919921875,-0.06103515625,-0.06103515625,-0.1220703125,0.444580078125,-0.8017578125,0.39697265625,-295.0,147.0,-150.0,101704.0,-3.1510002613067627,0,0
0.8923104999994393,0.371795654296875,-0.45196533203125,0.310546875,-0.748992919921875,0.18310546875,-0.1220703125,-0.06103515625,0.4461669921875,-0.800537109375,0.3966064453125,-295.0,147.0,-150.0,101704.0,-3.1510002613067627,0,0
0.9513822000008076,0.371795654296875,-0.451995849609375,0.310546875,-0.748992919921875,0.06103515625,-0.18310546875,-0.1220703125,0.446533203125,-0.801513671875,0.396484375,-295.0,147.0,-150.0,101704.0,-3.1510002613067627,0,0
0.9514472000009846,0.371795654296875,-0.451995849609375,0.310546875,-0.748992919921875,0.30517578125,0.0,-0.18310546875,0.4473876953125,-0.8013916015625,0.400146484375,-296.0,148.0,-151.0,101704.0,-3.1510002613067627,0,0
0.9515049000037834,0.37158203125,-0.451904296875,0.3106689453125,-0.74908447265625,-0.06103515625,-0.06103515625,0.0,0.445068359375,-0.8013916015625,0.398681640625,-296.0,148.0,-151.0,101704.0,-3.1510002613067627,0,0
0.9515604000043822,0.37158203125,-0.451904296875,0.3106689453125,-0.74908447265625,0.18310546875,-0.1220703125,-0.18310546875,0.44775390625,-0.8018798828125,0.400146484375,-296.0,148.0,-151.0,101704.0,-3.1510002613067627,0,0
0.9516160999919521,0.37158203125,-0.451904296875,0.3106689453125,-0.74908447265625,0.42724609375,0.0,0.0,0.446044921875,-0.8006591796875,0.3994140625,-296.0,148.0,-151.0,101704.0,-3.1510002613067627,0,0
0.9526029999979073,0.37158203125,-0.451904296875,0.3106689453125,-0.74908447265625,0.06103515625,0.0,-0.1220703125,0.44384765625,-0.8021240234375,0.3990478515625,-296.0,148.0,-151.0,101704.0,-3.1510002613067627,0,0
0.9526612999907229,0.37158203125,-0.451904296875,0.3106689453125,-0.74908447265625,0.1220703125,-0.1220703125,-0.06103515625,0.446533203125,-0.799560546875,0.3980712890625,-296.0,148.0,-151.0,101704.0,-3.1510002613067627,0,0
0.9527152999944519,0.37158203125,-0.451904296875,0.3106689453125,-0.74908447265625,-0.1220703125,-0.244140625,0.06103515625,0.445068359375,-0.7999267578125,0.3975830078125,-296.0,148.0,-151.0,101704.0,-3.1510002613067627,0,0
0.9527686999936122,0.37158203125,-0.451904296875,0.3106689453125,-0.74908447265625,-0.1220703125,-0.244140625,0.06103515625,0.445068359375,-0.7999267578125,0.3975830078125,-296.0,148.0,-151.0,101704.0,-3.1510002613067627,0,0
0.9528215000027558,0.37158203125,-0.451904296875,0.3106689453125,-0.74908447265625,0.06103515625,-0.1220703125,-0.06103515625,0.4483642578125,-0.800537109375,0.3985595703125,-296.0,148.0,-151.0,101704.0,-3.1510002613067627,0,0
0.9528756999934558,0.37158203125,-0.451904296875,0.3106689453125,-0.74908447265625,0.06103515625,-0.18310546875,0.0,0.4464111328125,-0.8013916015625,0.39794921875,-296.0,148.0,-151.0,101704.0,-3.1510002613067627,0,0
1.0208294000040041,0.37158203125,-0.451904296875,0.3106689453125,-0.74908447265625,0.3662109375,0.0,0.06103515625,0.4454345703125,-0.80126953125,0.398681640625,-296.0,148.0,-151.0,101704.0,-3.1510002613067627,0,0
1.0208943000034196,0.37158203125,-0.451904296875,0.3106689453125,-0.74908447265625,0.1220703125,-0.1220703125,0.06103515625,0.447998046875,-0.80224609375,0.39794921875,-296.0,148.0,-151.0,101704.0,-3.1510002613067627,0,0
1.0209538999915821,0.37158203125,-0.451904296875,0.3106689453125,-0.74908447265625,-0.18310546875,-0.1220703125,0.0,0.44482421875,-0.800537109375,0.3978271484375,-296.0,148.0,-151.0,101704.0,-3.1510002613067627,0,0
1.0212920000049053,0.37158203125,-0.451904296875,0.3106689453125,-0.74908447265625,0.0,0.0,-0.06103515625,0.4473876953125,-0.80029296875,0.3975830078125,-296.0,148.0,-151.0,101704.0,-3.1510002613067627,0,0
1.0213686999923084,0.37158203125,-0.451904296875,0.3106689453125,-0.74908447265625,-0.18310546875,-0.30517578125,-0.18310546875,0.447509765625,-0.801513671875,0.3984375,-296.0,148.0,-151.0,101704.0,-3.1510002613067627,0,0
1.0214262999943458,0.37158203125,-0.451904296875,0.3106689453125,-0.74908447265625,0.18310546875,-0.18310546875,-0.06103515625,0.44873046875,-0.8013916015625,0.3997802734375,-296.0,148.0,-151.0,101704.0,-3.1510002613067627,0,0
1.0214988999941852,0.37158203125,-0.451904296875,0.310638427734375,-0.749114990234375,-0.06103515625,0.0,0.0,0.447998046875,-0.80029296875,0.3994140625,-296.0,148.0,-151.0,101704.0,-3.1510002613067627,0,0
1.0215522999933455,0.37158203125,-0.451904296875,0.310638427734375,-0.749114990234375,-0.06103515625,0.0,0.0,0.447998046875,-0.80029296875,0.3994140625,-296.0,148.0,-151.0,101704.0,-3.1510002613067627,0,0
1.021605100002489,0.37158203125,-0.451904296875,0.310638427734375,-0.749114990234375,0.06103515625,-0.18310546875,-0.1220703125,0.4451904296875,-0.8011474609375,0.39892578125,-296.0,148.0,-151.0,101704.0,-3.1510002613067627,0,0
1.0216583000001265,0.37158203125,-0.451904296875,0.310638427734375,-0.749114990234375,-0.18310546875,0.0,-0.06103515625,0.445556640625,-0.8016357421875,0.3975830078125,-296.0,148.0,-151.0,101704.0,-3.1510002613067627,0,0
1.0217107999924337,0.37158203125,-0.451904296875,0.310638427734375,-0.749114990234375,0.1220703125,0.0,-0.1220703125,0.445068359375,-0.80029296875,0.3975830078125,-296.0,148.0,-151.0,101704.0,-3.1520001888275146,0,0
1.0217639000038616,0.37127685546875,-0.4517822265625,0.310821533203125,-0.749237060546875,-0.06103515625,-0.1220703125,-0.06103515625,0.4473876953125,-0.80078125,0.39794921875,-295.0,148.0,-151.0,101704.0,-3.1520001888275146,0,0
1.0218174000037834,0.37127685546875,-0.4517822265625,0.310821533203125,-0.749237060546875,0.1220703125,-0.18310546875,0.244140625,0.44482421875,-0.8009033203125,0.3970947265625,-295.0,148.0,-151.0,101704.0,-3.1520001888275146,0,0
1.0827965999924345,0.37127685546875,-0.4517822265625,0.31085205078125,-0.749237060546875,0.1220703125,-0.1220703125,-0.244140625,0.44775390625,-0.802490234375,0.398681640625,-295.0,148.0,-151.0,101704.0,-3.1520001888275146,0,0
1.0828660999977728,0.37127685546875,-0.4517822265625,0.31085205078125,-0.749237060546875,0.1220703125,-0.1220703125,-0.244140625,0.44775390625,-0.802490234375,0.398681640625,-295.0,148.0,-151.0,101704.0,-3.1520001888275146,0,0
1.0829244999913499,0.37127685546875,-0.4517822265625,0.31085205078125,-0.749237060546875,0.0,-0.30517578125,-0.18310546875,0.4451904296875,-0.80029296875,0.39794921875,-295.0,148.0,-151.0,101704.0,-3.1520001888275146,0,0
1.082983400003286,0.37127685546875,-0.4517822265625,0.31085205078125,-0.749237060546875,0.1220703125,0.1220703125,-0.06103515625,0.4447021484375,-0.800537109375,0.3963623046875,-295.0,148.0,-151.0,101704.0,-3.1520001888275146,0,0
1.0832544000004418,0.37127685546875,-0.4517822265625,0.31085205078125,-0.749237060546875,-0.1220703125,-0.244140625,-0.18310546875,0.4434814453125,-0.8023681640625,0.396240234375,-295.0,148.0,-151.0,101704.0,-3.1520001888275146,0,0
1.0834341000008862,0.37127685546875,-0.4517822265625,0.31085205078125,-0.749237060546875,-0.1220703125,-0.244140625,-0.18310546875,0.4434814453125,-0.8023681640625,0.396240234375,-295.0,148.0,-151.0,101704.0,-3.1520001888275146,0,0
1.0834958999912487,0.37127685546875,-0.4517822265625,0.31085205078125,-0.749237060546875,0.3662109375,-0.1220703125,0.1220703125,0.44677734375,-0.7999267578125,0.3983154296875,-295.0,148.0,-151.0,101704.0,-3.1520001888275146,0,0
1.0835673999972641,0.37127685546875,-0.4517822265625,0.31085205078125,-0.749237060546875,0.0,0.06103515625,-0.1220703125,0.4471435546875,-0.7999267578125,0.3970947265625,-295.0,148.0,-151.0,101704.0,-3.1520001888275146,0,0
1.0836375999933807,0.37127685546875,-0.4517822265625,0.31085205078125,-0.749237060546875,0.30517578125,-0.1220703125,-0.1220703125,0.4456787109375,-0.802490234375,0.4005126953125,-295.0,148.0,-151.0,101704.0,-3.1520001888275146,0,0
1.0836923000024399,0.37127685546875,-0.4517822265625,0.31085205078125,-0.749237060546875,-0.18310546875,0.1220703125,-0.18310546875,0.44482421875,-0.801025390625,0.3988037109375,-295.0,148.0,-151.0,101704.0,-3.1520001888275146,0,0
1.0839062000013655,0.37127685546875,-0.4517822265625,0.31085205078125,-0.749237060546875,0.18310546875,-0.18310546875,-0.18310546875,0.447265625,-0.8001708984375,0.398681640625,-295.0,148.0,-151.0,101704.0,-3.1520001888275146,0,0
1.150584399991203,0.37127685546875,-0.4517822265625,0.310821533203125,-0.749237060546875,-0.244140625,-0.30517578125,0.0,0.4481201171875,-0.7996826171875,0.3984375,-295.0,148.0,-151.0,101704.0,-3.1520001888275146,0,0
1.1506501999974716,0.37127685546875,-0.4517822265625,0.31085205078125,-0.749237060546875,0.244140625,-0.1220703125,0.0,0.4443359375,-0.8009033203125,0.39794921875,-295.0,148.0,-151.0,101704.0,-3.1520001888275146,0,0
1.1507092999963788,0.37127685546875,-0.4517822265625,0.31085205078125,-0.749237060546875,0.06103515625,0.1220703125,-0.244140625,0.4449462890625,-0.8004150390625,0.398193359375,-295.0,148.0,-151.0,101704.0,-3.1510002613067627,0,0
1.1507672000007005,0.37127685546875,-0.4517822265625,0.31085205078125,-0.749237060546875,0.0,-0.1220703125,-0.18310546875,0.4476318359375,-0.8016357421875,0.3980712890625,-294.0,148.0,-151.0,101704.0,-3.1510002613067627,0,0
1.1508240999974078,0.371063232421875,-0.45172119140625,0.31097412109375,-0.74932861328125,-0.06103515625,-0.244140625,-0.1220703125,0.4461669921875,-0.7999267578125,0.3970947265625,-294.0,148.0,-151.0,101704.0,-3.1510002613067627,0,0
1.151081299991347,0.371063232421875,-0.45172119140625,0.31097412109375,-0.74932861328125,0.0,-0.1220703125,-0.1220703125,0.446533203125,-0.8023681640625,0.3984375,-294.0,148.0,-151.0,101704.0,-3.1510002613067627,0,0
1.1511445999931311,0.371063232421875,-0.45172119140625,0.31097412109375,-0.74932861328125,0.30517578125,0.3662109375,-0.244140625,0.445068359375,-0.802490234375,0.398193359375,-294.0,148.0,-151.0,101704.0,-3.1510002613067627,0,0
1.1512031000020215,0.371063232421875,-0.45172119140625,0.31097412109375,-0.74932861328125,0.30517578125,0.3662109375,-0.244140625,0.445068359375,-0.802490234375,0.398193359375,-294.0,148.0,-151.0,101704.0,-3.1510002613067627,0,0
1.151259599995683,0.371063232421875,-0.45172119140625,0.31097412109375,-0.74932861328125,0.06103515625,-0.30517578125,-0.1220703125,0.444580078125,-0.8004150390625,0.39697265625,-294.0,148.0,-151.0,101704.0,-3.1510002613067627,0,0
1.151315800001612,0.371063232421875,-0.45172119140625,0.31097412109375,-0.74932861328125,0.06103515625,-0.1220703125,0.0,0.4449462890625,-0.80029296875,0.398681640625,-294.0,148.0,-151.0,101704.0,-3.1510002613067627,0,0
1.1513713000022108,0.371063232421875,-0.45172119140625,0.31097412109375,-0.74932861328125,-0.1220703125,-0.06103515625,-0.06103515625,0.447998046875,-0.80078125,0.39697265625,-294.0,148.0,-151.0,101704.0,-3.1510002613067627,0,0
1.211714999997639,0.371063232421875,-0.451690673828125,0.31097412109375,-0.74932861328125,0.244140625,0.06103515625,0.06103515625,0.443603515625,-0.80078125,0.398681640625,-294.0,148.0,-151.0,101704.0,-3.1510002613067627,0,0
1.2117845000029774,0.371063232421875,-0.45172119140625,0.31097412109375,-0.74932861328125,-0.06103515625,-0.244140625,-0.1220703125,0.447509765625,-0.8026123046875,0.396240234375,-294.0,148.0,-151.0,101704.0,-3.1510002613067627,0,0
1.2118491000001086,0.371063232421875,-0.45172119140625,0.31097412109375,-0.74932861328125,-0.06103515625,0.18310546875,0.18310546875,0.448974609375,-0.8011474609375,0.3974609375,-294.0,148.0,-151.0,101704.0,-3.1510002613067627,0,0
1.2119071999914013,0.371063232421875,-0.45172119140625,0.31097412109375,-0.74932861328125,0.1220703125,-0.1220703125,0.06103515625,0.4454345703125,-0.798583984375,0.3980712890625,-294.0,148.0,-151.0,101704.0,-3.1510002613067627,0,0
1.2119647999934386,0.371063232421875,-0.45172119140625,0.31097412109375,-0.74932861328125,0.18310546875,-0.06103515625,-0.18310546875,0.4482421875,-0.7999267578125,0.3970947265625,-294.0,148.0,-151.0,101704.0,-3.1510002613067627,0,0
1.212024599997676,0.371063232421875,-0.45172119140625,0.31097412109375,-0.74932861328125,0.0,0.06103515625,-0.18310546875,0.44580078125,-0.8004150390625,0.3963623046875,-294.0,148.0,-151.0,101704.0,-3.1510002613067627,0,0
1.213073599996278,0.371063232421875,-0.45172119140625,0.31097412109375,-0.74932861328125,0.0,0.06103515625,-0.18310546875,0.44580078125,-0.8004150390625,0.3963623046875,-294.0,148.0,-151.0,101704.0,-3.1510002613067627,0,0
1.2131400999933248,0.371063232421875,-0.45172119140625,0.31097412109375,-0.74932861328125,0.18310546875,-0.1220703125,0.0,0.4464111328125,-0.8004150390625,0.398681640625,-294.0,148.0,-151.0,101704.0,-3.1510002613067627,0,0
1.2131995999952778,0.371063232421875,-0.45172119140625,0.310943603515625,-0.74932861328125,0.06103515625,0.0,0.1220703125,0.446044921875,-0.8009033203125,0.4002685546875,-294.0,148.0,-151.0,101704.0,-3.1510002613067627,0,0
1.2132587999949465,0.371063232421875,-0.45172119140625,0.31097412109375,-0.74932861328125,0.244140625,0.0,0.0,0.445556640625,-0.8043212890625,0.400146484375,-294.0,148.0,-151.0,101704.0,-3.1510002613067627,0,0
1.2133153000031598,0.371063232421875,-0.45172119140625,0.31097412109375,-0.74932861328125,0.0,-0.244140625,-0.1220703125,0.4471435546875,-0.80224609375,0.398193359375,-294.0,148.0,-151.0,101704.0,-3.1510002613067627,0,0
1.2133723000006285,0.371063232421875,-0.45172119140625,0.31097412109375,-0.74932861328125,0.18310546875,0.18310546875,0.1220703125,0.446533203125,-0.80078125,0.3968505859375,-294.0,148.0,-151.0,101704.0,-3.1510002613067627,0,0
1.2134286999935284,0.371063232421875,-0.45172119140625,0.31097412109375,-0.74932861328125,-0.30517578125,-0.244140625,-0.18310546875,0.447021484375,-0.801513671875,0.3975830078125,-294.0,148.0,-151.0,101704.0,-3.1520001888275146,0,0
1.2753867999999784,0.37066650390625,-0.451568603515625,0.311187744140625,-0.749542236328125,-0.06103515625,-0.1220703125,0.0,0.4456787109375,-0.79931640625,0.3994140625,-295.0,148.0,-153.0,101704.0,-3.1520001888275146,0,0
1.2754539000015939,0.37066650390625,-0.451568603515625,0.31121826171875,-0.749542236328125,0.1220703125,-0.1220703125,-0.06103515625,0.4468994140625,-0.8006591796875,0.3975830078125,-295.0,148.0,-153.0,101704.0,-3.1520001888275146,0,0
1.275515200002701,0.370635986328125,-0.451568603515625,0.31121826171875,-0.74951171875,0.06103515625,0.1220703125,-0.1220703125,0.4466552734375,-0.802490234375,0.3970947265625,-295.0,148.0,-153.0,101704.0,-3.1520001888275146,0,0
1.2755774999968708,0.370635986328125,-0.451568603515625,0.311187744140625,-0.749542236328125,0.244140625,-0.18310546875,-0.1220703125,0.447509765625,-0.7984619140625,0.39794921875,-295.0,148.0,-153.0,101704.0,-3.1520001888275146,0,0
1.275634399993578,0.370635986328125,-0.451568603515625,0.311187744140625,-0.749542236328125,0.1220703125,0.18310546875,-0.06103515625,0.4468994140625,-0.7991943359375,0.3992919921875,-295.0,148.0,-153.0,101704.0,-3.1520001888275146,0,0
1.275704500003485,0.370635986328125,-0.451568603515625,0.311187744140625,-0.749542236328125,0.06103515625,0.0,-0.244140625,0.446044921875,-0.80078125,0.3973388671875,-295.0,148.0,-153.0,101704.0,-3.1520001888275146,0,0
1.2759189999924274,0.370635986328125,-0.451568603515625,0.311187744140625,-0.749542236328125,-0.18310546875,-0.06103515625,0.0,0.4456787109375,-0.80078125,0.398193359375,-295.0,148.0,-153.0,101704.0,-3.1520001888275146,0,0
1.2760551999963354,0.370635986328125,-0.451568603515625,0.311187744140625,-0.749542236328125,-0.18310546875,-0.06103515625,0.0,0.4456787109375,-0.80078125,0.398193359375,-295.0,148.0,-153.0,101704.0,-3.1520001888275146,0,0
1.2761234999925364,0.370635986328125,-0.451568603515625,0.311187744140625,-0.749542236328125,0.18310546875,-0.06103515625,-0.1220703125,0.443603515625,-0.8006591796875,0.3995361328125,-295.0,148.0,-153.0,101704.0,-3.1520001888275146,0,0
1.276615499999025,0.370635986328125,-0.451568603515625,0.311187744140625,-0.749542236328125,0.0,-0.1220703125,-0.1220703125,0.4454345703125,-0.80126953125,0.39794921875,-295.0,148.0,-153.0,101704.0,-3.1520001888275146,0,0
1.2767004999914207,0.370635986328125,-0.451568603515625,0.311187744140625,-0.749542236328125,0.0,-0.1220703125,-0.1220703125,0.4454345703125,-0.80126953125,0.39794921875,-295.0,148.0,-153.0,101704.0,-3.1520001888275146,0,0
1.3383255999942776,0.37066650390625,-0.451568603515625,0.31121826171875,-0.749542236328125,-0.06103515625,-0.18310546875,0.0,0.443359375,-0.801513671875,0.3970947265625,-295.0,148.0,-153.0,101704.0,-3.1520001888275146,0,0
1.3383920999913244,0.37066650390625,-0.451568603515625,0.31121826171875,-0.749542236328125,0.30517578125,0.1220703125,-0.06103515625,0.4456787109375,-0.8006591796875,0.398193359375,-295.0,148.0,-153.0,101704.0,-3.1520001888275146,0,0
1.3384515999932773,0.370635986328125,-0.451568603515625,0.311187744140625,-0.749542236328125,-0.30517578125,-0.18310546875,-0.06103515625,0.445556640625,-0.802001953125,0.3988037109375,-295.0,148.0,-153.0,101704.0,-3.1520001888275146,0,0
1.3385104999906616,0.370635986328125,-0.451568603515625,0.311187744140625,-0.749542236328125,0.1220703125,0.1220703125,-0.30517578125,0.447509765625,-0.798583984375,0.3975830078125,-295.0,148.0,-153.0,101704.0,-3.1520001888275146,0,0
1.3385725999978604,0.37066650390625,-0.451568603515625,0.311187744140625,-0.749542236328125,-0.06103515625,0.0,0.1220703125,0.4466552734375,-0.80126953125,0.3983154296875,-295.0,148.0,-153.0,101704.0,-3.1500000953674316,0,0
1.338793100003386,0.37066650390625,-0.451568603515625,0.311187744140625,-0.749542236328125,-0.3662109375,0.1220703125,-0.06103515625,0.4447021484375,-0.8009033203125,0.400146484375,-294.0,149.0,-153.0,101704.0,-3.1500000953674316,0,0
1.3388483000017004,0.37066650390625,-0.451568603515625,0.311187744140625,-0.749542236328125,-0.3662109375,0.1220703125,-0.06103515625,0.4447021484375,-0.8009033203125,0.400146484375,-294.0,149.0,-153.0,101704.0,-3.1500000953674316,0,0
1.3389048999961233,0.370361328125,-0.451446533203125,0.311370849609375,-0.74969482421875,0.0,-0.06103515625,-0.1220703125,0.446533203125,-0.801025390625,0.3990478515625,-294.0,149.0,-153.0,101704.0,-3.1500000953674316,0,0
1.338959699991392,0.370361328125,-0.451446533203125,0.311370849609375,-0.74969482421875,-0.1220703125,-0.1220703125,-0.244140625,0.44677734375,-0.7999267578125,0.398681640625,-294.0,149.0,-153.0,101704.0,-3.1500000953674316,0,0
1.3390150000050198,0.370361328125,-0.451446533203125,0.311370849609375,-0.74969482421875,0.06103515625,0.1220703125,-0.18310546875,0.445556640625,-0.8013916015625,0.3983154296875,-294.0,149.0,-153.0,101704.0,-3.1500000953674316,0,0
1.3390695999987656,0.370361328125,-0.451446533203125,0.3114013671875,-0.749664306640625,-0.18310546875,-0.06103515625,-0.3662109375,0.4447021484375,-0.8028564453125,0.3978271484375,-294.0,149.0,-153.0,101704.0,-3.1500000953674316,0,0
1.404081500004395,0.370361328125,-0.451446533203125,0.3114013671875,-0.749664306640625,0.244140625,-0.244140625,-0.18310546875,0.4444580078125,-0.802490234375,0.3983154296875,-294.0,149.0,-153.0,101704.0,-3.1500000953674316,0,0
1.4041502000036417,0.370361328125,-0.451446533203125,0.3114013671875,-0.749664306640625,-0.1220703125,-0.18310546875,0.06103515625,0.447509765625,-0.802490234375,0.3975830078125,-294.0,149.0,-153.0,101704.0,-3.1500000953674316,0,0
1.4042100999940885,0.370361328125,-0.451446533203125,0.3114013671875,-0.749664306640625,0.0,0.1220703125,-0.1220703125,0.4462890625,-0.802490234375,0.3968505859375,-294.0,149.0,-153.0,101704.0,-3.1500000953674316,0,0
1.404267499994603,0.370361328125,-0.451446533203125,0.3114013671875,-0.749664306640625,0.244140625,-0.06103515625,-0.06103515625,0.444091796875,-0.8021240234375,0.3984375,-294.0,149.0,-153.0,101704.0,-3.1500000953674316,0,0
1.4043254999996861,0.370361328125,-0.451446533203125,0.3114013671875,-0.749664306640625,-0.30517578125,0.0,0.06103515625,0.44775390625,-0.801025390625,0.3984375,-294.0,149.0,-153.0,101704.0,-3.1500000953674316,0,0
1.404383000000962,0.370361328125,-0.451446533203125,0.3114013671875,-0.749664306640625,-0.30517578125,0.0,0.06103515625,0.44775390625,-0.801025390625,0.3984375,-294.0,149.0,-153.0,101704.0,-3.1500000953674316,0,0
1.4044407000037609,0.370361328125,-0.451446533203125,0.3114013671875,-0.749664306640625,0.06103515625,-0.06103515625,0.06103515625,0.4486083984375,-0.80029296875,0.399658203125,-294.0,149.0,-153.0,101704.0,-3.1500000953674316,0,0
1.405379299991182,0.370361328125,-0.451446533203125,0.3114013671875,-0.749664306640625,-0.1220703125,-0.244140625,-0.1220703125,0.4464111328125,-0.80126953125,0.4007568359375,-294.0,149.0,-153.0,101704.0,-3.1500000953674316,0,0
1.4054458000027807,0.370361328125,-0.451446533203125,0.3114013671875,-0.749664306640625,0.18310546875,-0.1220703125,-0.18310546875,0.4454345703125,-0.8026123046875,0.3992919921875,-294.0,149.0,-153.0,101704.0,-3.1500000953674316,0,0
1.405504700000165,0.370361328125,-0.451446533203125,0.3114013671875,-0.749664306640625,0.06103515625,-0.30517578125,-0.06103515625,0.4456787109375,-0.8009033203125,0.3973388671875,-294.0,149.0,-153.0,101704.0,-3.1500000953674316,0,0
1.4055623000022024,0.370361328125,-0.451446533203125,0.3114013671875,-0.74969482421875,0.1220703125,0.0,0.06103515625,0.4451904296875,-0.80078125,0.3995361328125,-294.0,149.0,-153.0,101704.0,-3.1500000953674316,0,0
1.4056199000042398,0.370361328125,-0.451446533203125,0.3114013671875,-0.749664306640625,0.06103515625,-0.1220703125,-0.1220703125,0.44677734375,-0.80224609375,0.3980712890625,-294.0,149.0,-153.0,101704.0,-3.1500000953674316,0,0
1.405677699993248,0.370361328125,-0.451446533203125,0.3114013671875,-0.749664306640625,-0.1220703125,-0.18310546875,0.06103515625,0.4459228515625,-0.80126953125,0.3973388671875,-294.0,149.0,-153.0,101704.0,-3.1500000953674316,0,0
1.4725675999943633,0.370147705078125,-0.45135498046875,0.3115234375,-0.749786376953125,0.244140625,0.0,0.1220703125,0.4461669921875,-0.801513671875,0.3983154296875,-294.0,148.0,-152.0,101704.0,-3.1520001888275146,0,0
1.4726386999973329,0.370147705078125,-0.45135498046875,0.3115234375,-0.749786376953125,0.06103515625,-0.18310546875,0.244140625,0.4464111328125,-0.801025390625,0.39794921875,-294.0,148.0,-152.0,101704.0,-3.1520001888275146,0,0
1.4727000999992015,0.370147705078125,-0.45135498046875,0.3115234375,-0.749786376953125,-0.1220703125,0.06103515625,0.0,0.4453125,-0.80126953125,0.39892578125,-294.0,148.0,-152.0,101704.0,-3.1520001888275146,0,0
1.4727606999949785,0.370147705078125,-0.45135498046875,0.3115234375,-0.749786376953125,0.30517578125,-0.244140625,0.0,0.446044921875,-0.799072265625,0.3978271484375,-294.0,148.0,-152.0,101704.0,-3.1520001888275146,0,0
1.4728198999946471,0.370147705078125,-0.45135498046875,0.3115234375,-0.749786376953125,0.06103515625,-0.18310546875,-0.30517578125,0.4459228515625,-0.80078125,0.3988037109375,-294.0,148.0,-152.0,101704.0,-3.1520001888275146,0,0
1.4730003000004217,0.370147705078125,-0.45135498046875,0.3115234375,-0.749786376953125,-0.1220703125,-0.1220703125,-0.18310546875,0.4454345703125,-0.7989501953125,0.3990478515625,-294.0,148.0,-152.0,101704.0,-3.1520001888275146,0,0
1.4730657000036445,0.370147705078125,-0.45135498046875,0.3115234375,-0.749786376953125,0.30517578125,-0.18310546875,-0.18310546875,0.4471435546875,-0.802978515625,0.3978271484375,-294.0,148.0,-152.0,101704.0,-3.1520001888275146,0,0
1.4731247000017902,0.370147705078125,-0.45135498046875,0.3115234375,-0.749786376953125,-0.30517578125,0.1220703125,-0.1220703125,0.4459228515625,-0.8016357421875,0.3980712890625,-294.0,148.0,-152.0,101704.0,-3.1520001888275146,0,0
1.4731827999930829,0.370147705078125,-0.45135498046875,0.3115234375,-0.749786376953125,0.1220703125,0.0,-0.06103515625,0.4453125,-0.802978515625,0.3974609375,-294.0,148.0,-152.0,101704.0,-3.1520001888275146,0,0
1.4732444999972358,0.370147705078125,-0.45135498046875,0.3115234375,-0.749786376953125,0.1220703125,0.0,-0.06103515625,0.4453125,-0.802978515625,0.3974609375,-294.0,148.0,-152.0,101704.0,-3.1520001888275146,0,0
1.473304500002996,0.370147705078125,-0.45135498046875,0.3115234375,-0.749786376953125,0.1220703125,0.18310546875,-0.06103515625,0.44775390625,-0.8006591796875,0.3974609375,-294.0,148.0,-152.0,101704.0,-3.1520001888275146,0,0
1.534136899994337,0.370147705078125,-0.45135498046875,0.3115234375,-0.749786376953125,0.18310546875,0.0,-0.1220703125,0.4468994140625,-0.8026123046875,0.39794921875,-294.0,148.0,-152.0,101704.0,-3.1520001888275146,0,0
1.534208299999591,0.370147705078125,-0.45135498046875,0.3115234375,-0.749786376953125,0.1220703125,-0.18310546875,-0.244140625,0.4439697265625,-0.8026123046875,0.3992919921875,-294.0,148.0,-152.0,101704.0,-3.1520001888275146,0,0
1.5342682999907993,0.37017822265625,-0.45135498046875,0.3115234375,-0.749786376953125,0.0,-0.06103515625,0.06103515625,0.4434814453125,-0.8016357421875,0.399658203125,-294.0,148.0,-152.0,101704.0,-3.1520001888275146,0,0
1.534327100001974,0.37017822265625,-0.45135498046875,0.3115234375,-0.749755859375,0.30517578125,-0.18310546875,-0.1220703125,0.4462890625,-0.8033447265625,0.397216796875,-294.0,148.0,-152.0,101704.0,-3.1520001888275146,0,0
1.534386799990898,0.370147705078125,-0.45135498046875,0.3115234375,-0.749786376953125,0.18310546875,0.0,0.06103515625,0.449462890625,-0.801025390625,0.4000244140625,-294.0,148.0,-152.0,101704.0,-3.1520001888275146,0,0
1.5344592000037665,0.370147705078125,-0.45135498046875,0.3115234375,-0.749786376953125,0.18310546875,0.0,0.06103515625,0.449462890625,-0.801025390625,0.4000244140625,-294.0,148.0,-152.0,101704.0,-3.1520001888275146,0,0
1.5345584000024246,0.370147705078125,-0.45135498046875,0.3115234375,-0.749786376953125,0.1220703125,-0.06103515625,-0.1220703125,0.447021484375,-0.8004150390625,0.3980712890625,-294.0,148.0,-152.0,101703.0,-3.1500000953674316,0,0
1.534647299995413,0.370147705078125,-0.45135498046875,0.3115234375,-0.749786376953125,0.244140625,-0.30517578125,-0.18310546875,0.446044921875,-0.801513671875,0.3990478515625,-293.0,149.0,-153.0,101703.0,-3.1500000953674316,0,0
1.5347111000010045,0.3697509765625,-0.451202392578125,0.311767578125,-0.749969482421875,-0.1220703125,-0.42724609375,-0.30517578125,0.4464111328125,-0.800537109375,0.3978271484375,-293.0,149.0,-153.0,101703.0,-3.1500000953674316,0,0
1.534768500001519,0.3697509765625,-0.451171875,0.311767578125,-0.749969482421875,0.244140625,-0.06103515625,0.0,0.4456787109375,-0.8001708984375,0.39892578125,-293.0,149.0,-153.0,101703.0,-3.1500000953674316,0,0
1.5348262000043178,0.3697509765625,-0.451202392578125,0.311767578125,-0.749969482421875,0.0,-0.18310546875,-0.1220703125,0.4476318359375,-0.800048828125,0.39892578125,-293.0,149.0,-153.0,101703.0,-3.1500000953674316,0,0
1.5953198999923188,0.3697509765625,-0.451202392578125,0.311767578125,-0.749969482421875,0.06103515625,0.0,-0.06103515625,0.4473876953125,-0.8013916015625,0.39599609375,-293.0,149.0,-153.0,101703.0,-3.1500000953674316,0,0
1.5953915999998571,0.3697509765625,-0.451202392578125,0.311767578125,-0.749969482421875,-0.06103515625,-0.18310546875,-0.1220703125,0.4459228515625,-0.802001953125,0.3980712890625,-293.0,149.0,-153.0,101703.0,-3.1500000953674316,0,0
1.5954543999978341,0.3697509765625,-0.451171875,0.311767578125,-0.749969482421875,-0.67138671875,0.0,-0.1220703125,0.446044921875,-0.8016357421875,0.3992919921875,-293.0,149.0,-153.0,101703.0,-3.1500000953674316,0,0
1.5955156999989413,0.3697509765625,-0.451171875,0.311767578125,-0.749969482421875,0.244140625,0.06103515625,-0.06103515625,0.444580078125,-0.7996826171875,0.399658203125,-293.0,149.0,-153.0,101703.0,-3.1500000953674316,0,0
1.595574499995564,0.3697509765625,-0.451171875,0.311767578125,-0.749969482421875,0.244140625,0.06103515625,-0.06103515625,0.444580078125,-0.7996826171875,0.399658203125,-293.0,149.0,-153.0,101703.0,-3.1500000953674316,0,0
1.5956315999937942,0.3697509765625,-0.451171875,0.311767578125,-0.75,0.0,-0.1220703125,0.0,0.4462890625,-0.802734375,0.399658203125,-293.0,149.0,-153.0,101703.0,-3.1500000953674316,0,0
1.5956893999973545,0.3697509765625,-0.451171875,0.311767578125,-0.75,0.0,0.06103515625,0.18310546875,0.4442138671875,-0.8011474609375,0.399658203125,-293.0,149.0,-153.0,101703.0,-3.1500000953674316,0,0
1.5957944999972824,0.3697509765625,-0.451171875,0.311737060546875,-0.75,0.0,-0.244140625,-0.42724609375,0.4493408203125,-0.7994384765625,0.3978271484375,-293.0,149.0,-153.0,101703.0,-3.1500000953674316,0,0
1.5958519999985583,0.3697509765625,-0.451171875,0.311737060546875,-0.75,-0.1220703125,-0.244140625,-0.1220703125,0.44775390625,-0.8031005859375,0.3990478515625,-293.0,149.0,-153.0,101703.0,-3.1500000953674316,0,0
1.595908799994504,0.3697509765625,-0.451171875,0.311737060546875,-0.75,-0.244140625,-0.244140625,-0.244140625,0.44580078125,-0.80322265625,0.39794921875,-293.0,149.0,-153.0,101703.0,-3.1500000953674316,0,0
1.595964299995103,0.3697509765625,-0.451171875,0.311767578125,-0.75,0.1220703125,-0.18310546875,-0.30517578125,0.4444580078125,-0.8011474609375,0.3980712890625,-293.0,149.0,-153.0,101703.0,-3.1500000953674316,0,0
1.5960211999918101,0.3697509765625,-0.451171875,0.311737060546875,-0.75,-0.06103515625,-0.18310546875,-0.06103515625,0.4466552734375,-0.800537109375,0.3990478515625,-293.0,149.0,-153.0,101703.0,-3.1500000953674316,0,0
1.596076699992409,0.3697509765625,-0.451171875,0.311737060546875,-0.75,0.1220703125,0.06103515625,-0.18310546875,0.4453125,-0.800537109375,0.398681640625,-293.0,149.0,-153.0,101703.0,-3.1500000953674316,0,0
1.6594809999951394,0.3697509765625,-0.451171875,0.311737060546875,-0.75,0.0,-0.244140625,-0.06103515625,0.4468994140625,-0.8011474609375,0.3974609375,-293.0,149.0,-153.0,101703.0,-3.1500000953674316,0,0
1.6595591999939643,0.3697509765625,-0.451171875,0.311737060546875,-0.75,-0.1220703125,-0.06103515625,-0.06103515625,0.4476318359375,-0.8023681640625,0.3975830078125,-293.0,149.0,-152.0,101704.0,-3.1530001163482666,0,0
1.6596222999942256,0.369659423828125,-0.451141357421875,0.31182861328125,-0.750030517578125,-0.244140625,0.18310546875,0.0,0.4439697265625,-0.803466796875,0.39794921875,-293.0,149.0,-152.0,101704.0,-3.1530001163482666,0,0
1.6596817999961786,0.369659423828125,-0.451141357421875,0.31182861328125,-0.750030517578125,0.0,-0.18310546875,0.1220703125,0.446044921875,-0.8021240234375,0.39697265625,-293.0,149.0,-152.0,101704.0,-3.1530001163482666,0,0
1.6597402000043076,0.36962890625,-0.451141357421875,0.31182861328125,-0.750030517578125,-0.1220703125,0.0,-0.1220703125,0.446044921875,-0.800537109375,0.3966064453125,-293.0,149.0,-152.0,101704.0,-3.1530001163482666,0,0
1.6603537000046344,0.36962890625,-0.451141357421875,0.31182861328125,-0.750030517578125,0.30517578125,-0.1220703125,0.0,0.4464111328125,-0.799560546875,0.398193359375,-293.0,149.0,-152.0,101704.0,-3.1530001163482666,0,0
1.6604210999939824,0.36962890625,-0.451141357421875,0.311798095703125,-0.750030517578125,0.1220703125,0.0,0.06103515625,0.4488525390625,-0.8004150390625,0.4005126953125,-293.0,149.0,-152.0,101704.0,-3.1530001163482666,0,0
1.6605114999983925,0.36962890625,-0.451141357421875,0.311798095703125,-0.750030517578125,0.1220703125,0.0,0.06103515625,0.4488525390625,-0.8004150390625,0.4005126953125,-293.0,149.0,-152.0,101704.0,-3.1530001163482666,0,0
1.6605755999917164,0.36962890625,-0.451141357421875,0.311798095703125,-0.750030517578125,0.06103515625,0.0,-0.18310546875,0.446044921875,-0.8018798828125,0.39892578125,-293.0,149.0,-152.0,101704.0,-3.1530001163482666,0,0
1.660634600004414,0.36962890625,-0.451141357421875,0.311798095703125,-0.750030517578125,0.1220703125,-0.1220703125,0.06103515625,0.445556640625,-0.8016357421875,0.3988037109375,-293.0,149.0,-152.0,101704.0,-3.1530001163482666,0,0
1.6606908999965526,0.36962890625,-0.451141357421875,0.311798095703125,-0.750030517578125,0.1220703125,-0.1220703125,0.06103515625,0.445556640625,-0.8016357421875,0.3988037109375,-293.0,149.0,-152.0,101704.0,-3.1530001163482666,0,0
1.7197004999907222,0.369659423828125,-0.451141357421875,0.311798095703125,-0.750030517578125,-0.732421875,-0.1220703125,-0.1220703125,0.4466552734375,-0.8038330078125,0.399169921875,-293.0,149.0,-152.0,101704.0,-3.1530001163482666,0,0
1.7197799999994459,0.369659423828125,-0.451141357421875,0.311798095703125,-0.750030517578125,0.06103515625,-0.1220703125,-0.06103515625,0.446044921875,-0.80224609375,0.3997802734375,-293.0,149.0,-152.0,101704.0,-3.1530001163482666,0,0
1.7198466999980155,0.369659423828125,-0.451141357421875,0.311798095703125,-0.750030517578125,-0.06103515625,-0.18310546875,-0.18310546875,0.44775390625,-0.8023681640625,0.3990478515625,-293.0,149.0,-152.0,101704.0,-3.1530001163482666,0,0
1.7199045000015758,0.369659423828125,-0.451141357421875,0.311798095703125,-0.750030517578125,-0.18310546875,-0.06103515625,-0.1220703125,0.447265625,-0.802001953125,0.399169921875,-293.0,149.0,-152.0,101704.0,-3.1530001163482666,0,0
1.7199598000006517,0.369659423828125,-0.451141357421875,0.311798095703125,-0.750030517578125,-0.18310546875,-0.06103515625,-0.1220703125,0.447265625,-0.802001953125,0.399169921875,-293.0,149.0,-152.0,101704.0,-3.1530001163482666,0,0
1.7200741999986349,0.369659423828125,-0.451141357421875,0.311798095703125,-0.75006103515625,-0.18310546875,-0.06103515625,-0.244140625,0.4482421875,-0.800537109375,0.4007568359375,-293.0,149.0,-152.0,101704.0,-3.1530001163482666,0,0
1.7201287999923807,0.369659423828125,-0.451141357421875,0.311798095703125,-0.75006103515625,0.1220703125,-0.244140625,0.18310546875,0.44677734375,-0.80078125,0.4000244140625,-293.0,149.0,-152.0,101704.0,-3.1530001163482666,0,0
1.720183099998394,0.369659423828125,-0.451141357421875,0.311798095703125,-0.75006103515625,-0.1220703125,-0.18310546875,-0.18310546875,0.4462890625,-0.80126953125,0.3983154296875,-293.0,149.0,-152.0,101704.0,-3.1510002613067627,0,0
1.7202365999983158,0.36962890625,-0.451141357421875,0.311798095703125,-0.75006103515625,0.1220703125,-0.06103515625,-0.06103515625,0.44921875,-0.7994384765625,0.398681640625,-294.0,149.0,-152.0,101704.0,-3.1510002613067627,0,0
1.720289100005175,0.369537353515625,-0.451080322265625,0.311859130859375,-0.750091552734375,0.0,-0.1220703125,-0.06103515625,0.446533203125,-0.7989501953125,0.39794921875,-294.0,149.0,-152.0,101704.0,-3.1510002613067627,0,0
1.7203411999944365,0.369537353515625,-0.451080322265625,0.31182861328125,-0.750091552734375,-0.1220703125,-0.06103515625,0.06103515625,0.446044921875,-0.8001708984375,0.3985595703125,-294.0,149.0,-152.0,101704.0,-3.1510002613067627,0,0
1.784938199998578,0.369537353515625,-0.451080322265625,0.311859130859375,-0.750091552734375,0.0,0.0,0.0,0.4449462890625,-0.802978515625,0.398193359375,-294.0,149.0,-152.0,101704.0,-3.1510002613067627,0,0
1.7850023999926634,0.369537353515625,-0.451080322265625,0.311859130859375,-0.750091552734375,0.06103515625,-0.244140625,-0.18310546875,0.4444580078125,-0.7999267578125,0.399658203125,-294.0,149.0,-152.0,101704.0,-3.1510002613067627,0,0
1.7854431000014301,0.369537353515625,-0.451080322265625,0.311859130859375,-0.750091552734375,0.06103515625,-0.244140625,-0.18310546875,0.4444580078125,-0.7999267578125,0.399658203125,-294.0,149.0,-152.0,101704.0,-3.1510002613067627,0,0
1.785524599996279,0.369537353515625,-0.451080322265625,0.311859130859375,-0.750091552734375,0.1220703125,0.0,0.06103515625,0.4456787109375,-0.8006591796875,0.3978271484375,-294.0,149.0,-152.0,101704.0,-3.1510002613067627,0,0
1.785586099998909,0.369537353515625,-0.451080322265625,0.311859130859375,-0.750091552734375,0.06103515625,0.06103515625,0.0,0.4449462890625,-0.80224609375,0.3970947265625,-294.0,149.0,-152.0,101704.0,-3.1510002613067627,0,0
1.7856405999918934,0.369537353515625,-0.451080322265625,0.311859130859375,-0.750091552734375,0.06103515625,-0.1220703125,-0.06103515625,0.447509765625,-0.803955078125,0.3983154296875,-294.0,149.0,-152.0,101704.0,-3.1510002613067627,0,0
1.7856946999963839,0.369537353515625,-0.451080322265625,0.311859130859375,-0.750091552734375,-0.06103515625,-0.244140625,0.18310546875,0.444580078125,-0.8017578125,0.3974609375,-294.0,149.0,-152.0,101704.0,-3.1510002613067627,0,0
1.793466699993587,0.369537353515625,-0.451080322265625,0.311859130859375,-0.750091552734375,0.06103515625,0.0,-0.1220703125,0.4453125,-0.800537109375,0.398681640625,-294.0,149.0,-152.0,101704.0,-3.1510002613067627,0,0
1.7935298999946099,0.369537353515625,-0.451080322265625,0.311859130859375,-0.750091552734375,0.30517578125,-0.30517578125,-0.1220703125,0.4459228515625,-0.7998046875,0.39892578125,-294.0,149.0,-152.0,101704.0,-3.1510002613067627,0,0
1.7936388999951305,0.369537353515625,-0.451080322265625,0.311859130859375,-0.750091552734375,0.1220703125,-0.1220703125,-0.1220703125,0.4454345703125,-0.80029296875,0.39892578125,-294.0,149.0,-152.0,101704.0,-3.1510002613067627,0,0
1.793697400004021,0.369537353515625,-0.451080322265625,0.311859130859375,-0.750091552734375,0.18310546875,0.06103515625,-0.06103515625,0.44580078125,-0.802734375,0.3975830078125,-294.0,149.0,-152.0,101704.0,-3.1510002613067627,0,0
1.7937516999954823,0.369537353515625,-0.451080322265625,0.311859130859375,-0.750091552734375,0.18310546875,-0.06103515625,-0.18310546875,0.447265625,-0.8021240234375,0.3985595703125,-294.0,149.0,-152.0,101704.0,-3.1510002613067627,0,0
1.7938045999908354,0.369537353515625,-0.451080322265625,0.311859130859375,-0.750091552734375,0.18310546875,-0.06103515625,-0.18310546875,0.447265625,-0.8021240234375,0.3985595703125,-294.0,149.0,-152.0,101704.0,-3.1510002613067627,0,0
1.852108599996427,0.369537353515625,-0.451080322265625,0.311859130859375,-0.750091552734375,0.18310546875,-0.18310546875,-0.18310546875,0.445068359375,-0.7972412109375,0.3985595703125,-294.0,149.0,-152.0,101704.0,-3.1510002613067627,0,0
1.8521686000021873,0.369537353515625,-0.451080322265625,0.311859130859375,-0.750091552734375,-0.18310546875,-0.3662109375,-0.06103515625,0.4471435546875,-0.80126953125,0.3992919921875,-294.0,149.0,-152.0,101704.0,-3.1510002613067627,0,0
1.852225399998133,0.369537353515625,-0.451080322265625,0.311859130859375,-0.750091552734375,0.3662109375,0.1220703125,-0.18310546875,0.446044921875,-0.800537109375,0.398681640625,-294.0,149.0,-152.0,101704.0,-3.1530001163482666,0,0
1.8522807999979705,0.369537353515625,-0.451080322265625,0.31182861328125,-0.750091552734375,0.3662109375,0.1220703125,-0.18310546875,0.446044921875,-0.800537109375,0.398681640625,-295.0,151.0,-152.0,101704.0,-3.1530001163482666,0,0
1.852335999996285,0.369537353515625,-0.451080322265625,0.31182861328125,-0.7501220703125,0.30517578125,0.06103515625,0.06103515625,0.4500732421875,-0.80029296875,0.398681640625,-295.0,151.0,-152.0,101704.0,-3.1530001163482666,0,0
1.8532795999926748,0.369537353515625,-0.451080322265625,0.311859130859375,-0.750091552734375,-0.1220703125,-0.18310546875,-0.06103515625,0.447509765625,-0.80078125,0.39892578125,-295.0,151.0,-152.0,101704.0,-3.1530001163482666,0,0
1.8533368999924278,0.369537353515625,-0.451080322265625,0.311859130859375,-0.750091552734375,-0.1220703125,-0.18310546875,-0.06103515625,0.447509765625,-0.80078125,0.39892578125,-295.0,151.0,-152.0,101704.0,-3.1530001163482666,0,0
1.8533912999992026,0.369537353515625,-0.451080322265625,0.31182861328125,-0.750091552734375,0.18310546875,0.0,-0.06103515625,0.4461669921875,-0.8009033203125,0.3997802734375,-295.0,151.0,-152.0,101704.0,-3.1530001163482666,0,0
1.853445400003693,0.369537353515625,-0.451080322265625,0.311859130859375,-0.750091552734375,0.1220703125,-0.1220703125,0.06103515625,0.446044921875,-0.802490234375,0.3997802734375,-295.0,151.0,-152.0,101704.0,-3.1530001163482666,0,0
1.8534993999928702,0.369537353515625,-0.451080322265625,0.311859130859375,-0.750091552734375,0.06103515625,-0.1220703125,0.0,0.445068359375,-0.8033447265625,0.3990478515625,-295.0,151.0,-152.0,101704.0,-3.1530001163482666,0,0
1.853552699991269,0.369537353515625,-0.45111083984375,0.311859130859375,-0.750091552734375,0.18310546875,-0.06103515625,-0.1220703125,0.44482421875,-0.804443359375,0.398681640625,-295.0,151.0,-152.0,101704.0,-3.1530001163482666,0,0
1.9125758000009228,0.369537353515625,-0.45111083984375,0.311859130859375,-0.750091552734375,-0.06103515625,-0.18310546875,0.244140625,0.4468994140625,-0.802001953125,0.3984375,-295.0,151.0,-152.0,101704.0,-3.1530001163482666,0,0
1.9127118000033079,0.369537353515625,-0.45111083984375,0.311859130859375,-0.750091552734375,0.06103515625,0.0,-0.18310546875,0.4495849609375,-0.7994384765625,0.396484375,-295.0,151.0,-152.0,101704.0,-3.1530001163482666,0,0
1.912833900001715,0.369537353515625,-0.45111083984375,0.311859130859375,-0.750091552734375,-0.1220703125,-0.244140625,-0.1220703125,0.44677734375,-0.80029296875,0.39794921875,-295.0,151.0,-152.0,101704.0,-3.1530001163482666,0,0
1.912894299995969,0.369537353515625,-0.45111083984375,0.311859130859375,-0.750091552734375,-0.1220703125,-0.244140625,-0.1220703125,0.44677734375,-0.80029296875,0.39794921875,-295.0,151.0,-152.0,101704.0,-3.1530001163482666,0,0
1.9129546000040136,0.369537353515625,-0.45111083984375,0.311859130859375,-0.750091552734375,0.18310546875,0.06103515625,-0.244140625,0.44873046875,-0.80224609375,0.3992919921875,-295.0,151.0,-152.0,101704.0,-3.1530001163482666,0,0
1.9130963999923551,0.369537353515625,-0.45111083984375,0.31182861328125,-0.750091552734375,-0.1220703125,-0.06103515625,-0.1220703125,0.446533203125,-0.8001708984375,0.3988037109375,-295.0,151.0,-152.0,101704.0,-3.1530001163482666,0,0
1.9131525999982841,0.369537353515625,-0.45111083984375,0.311859130859375,-0.750091552734375,0.244140625,-0.18310546875,0.0,0.44482421875,-0.7996826171875,0.3992919921875,-295.0,151.0,-152.0,101704.0,-3.1530001163482666,0,0
1.913204800002859,0.369537353515625,-0.451080322265625,0.311859130859375,-0.750091552734375,-0.06103515625,0.0,-0.18310546875,0.4466552734375,-0.8033447265625,0.398681640625,-295.0,151.0,-152.0,101704.0,-3.1530001163482666,0,0
1.9132562000013422,0.369537353515625,-0.451080322265625,0.311859130859375,-0.750091552734375,0.3662109375,0.0,0.06103515625,0.443359375,-0.801025390625,0.3997802734375,-295.0,151.0,-152.0,101704.0,-3.1530001163482666,0,0
1.913309900002787,0.369537353515625,-0.451080322265625,0.311859130859375,-0.750091552734375,0.1220703125,-0.30517578125,-0.18310546875,0.4462890625,-0.8017578125,0.3995361328125,-295.0,151.0,-152.0,101704.0,-3.1530001163482666,0,0
1.913362599996617,0.369537353515625,-0.451080322265625,0.31182861328125,-0.750091552734375,-0.06103515625,0.0,-0.1220703125,0.4451904296875,-0.7991943359375,0.3985595703125,-296.0,150.0,-153.0,101704.0,-3.1530001163482666,0,0
1.9134171000041533,0.369232177734375,-0.450958251953125,0.31201171875,-0.750244140625,0.18310546875,0.06103515625,0.0,0.446533203125,-0.8013916015625,0.399169921875,-296.0,150.0,-153.0,101704.0,-3.1530001163482666,0,0
1.9840595999994548,0.369232177734375,-0.450958251953125,0.31201171875,-0.750244140625,0.18310546875,0.06103515625,0.0,0.446533203125,-0.8013916015625,0.399169921875,-296.0,150.0,-153.0,101704.0,-3.1530001163482666,0,0
1.9841307000024244,0.369232177734375,-0.45098876953125,0.31201171875,-0.750244140625,0.18310546875,-0.18310546875,0.06103515625,0.447021484375,-0.8013916015625,0.3966064453125,-296.0,150.0,-153.0,101704.0,-3.1530001163482666,0,0
1.9841887999937171,0.369232177734375,-0.450958251953125,0.31201171875,-0.750244140625,-0.06103515625,-0.06103515625,0.18310546875,0.4453125,-0.8009033203125,0.3978271484375,-296.0,150.0,-153.0,101704.0,-3.1530001163482666,0,0
1.9842428999982076,0.369232177734375,-0.450958251953125,0.312042236328125,-0.750244140625,-0.1220703125,0.06103515625,0.1220703125,0.4456787109375,-0.8031005859375,0.3970947265625,-296.0,150.0,-153.0,101704.0,-3.1530001163482666,0,0
1.9843008000025293,0.369232177734375,-0.450958251953125,0.312042236328125,-0.750244140625,-0.1220703125,0.0,0.1220703125,0.445556640625,-0.802001953125,0.39892578125,-296.0,150.0,-153.0,101704.0,-3.1530001163482666,0,0
1.9843584999907762,0.369232177734375,-0.450958251953125,0.312042236328125,-0.750244140625,-0.06103515625,-0.1220703125,0.0,0.44482421875,-0.800048828125,0.399169921875,-296.0,150.0,-153.0,101704.0,-3.1530001163482666,0,0
1.9844468999945093,0.369232177734375,-0.450958251953125,0.31201171875,-0.750244140625,0.1220703125,0.06103515625,-0.244140625,0.4481201171875,-0.8016357421875,0.400146484375,-296.0,150.0,-153.0,101704.0,-3.1530001163482666,0,0
1.9844986999960383,0.369232177734375,-0.450958251953125,0.312042236328125,-0.750244140625,0.244140625,0.0,0.0,0.4461669921875,-0.8028564453125,0.3990478515625,-296.0,150.0,-153.0,101704.0,-3.1530001163482666,0,0
1.9845530000020517,0.369232177734375,-0.450958251953125,0.312042236328125,-0.750244140625,-0.18310546875,-0.18310546875,0.06103515625,0.4449462890625,-0.80078125,0.3983154296875,-296.0,150.0,-153.0,101704.0,-3.1530001163482666,0,0
1.9846050000051036,0.369232177734375,-0.450958251953125,0.312042236328125,-0.750244140625,-0.06103515625,0.0,-0.244140625,0.4466552734375,-0.80126953125,0.3980712890625,-296.0,150.0,-153.0,101704.0,-3.1530001163482666,0,0
1.9846566000051098,0.369232177734375,-0.450958251953125,0.312042236328125,-0.750244140625,-0.06103515625,0.0,-0.244140625,0.4466552734375,-0.80126953125,0.3980712890625,-296.0,150.0,-153.0,101704.0,-3.1530001163482666,0,0
1.984710199991241,0.369232177734375,-0.450958251953125,0.31201171875,-0.750244140625,0.18310546875,0.18310546875,-0.18310546875,0.447265625,-0.802001953125,0.3992919921875,-296.0,150.0,-153.0,101704.0,-3.1530001163482666,0,0
2.041326399994432,0.369232177734375,-0.450958251953125,0.31201171875,-0.750244140625,0.0,-0.1220703125,0.06103515625,0.447509765625,-0.7999267578125,0.39892578125,-296.0,150.0,-153.0,101704.0,-3.1530001163482666,0,0
2.04139519999444,0.369232177734375,-0.450958251953125,0.31201171875,-0.750244140625,0.244140625,-0.18310546875,-0.1220703125,0.4459228515625,-0.801025390625,0.40185546875,-296.0,150.0,-153.0,101704.0,-3.1530001163482666,0,0
2.0414539000048535,0.369232177734375,-0.450958251953125,0.31201171875,-0.750244140625,-0.18310546875,-0.06103515625,-0.1220703125,0.445556640625,-0.8004150390625,0.3974609375,-296.0,150.0,-153.0,101704.0,-3.1530001163482666,0,0
2.041507999994792,0.369232177734375,-0.450958251953125,0.31201171875,-0.750244140625,0.18310546875,-0.06103515625,-0.3662109375,0.4454345703125,-0.80078125,0.3961181640625,-296.0,150.0,-153.0,101704.0,-3.1530001163482666,0,0
2.0415606000024127,0.369232177734375,-0.450958251953125,0.31201171875,-0.750244140625,0.18310546875,0.0,-0.06103515625,0.4483642578125,-0.79833984375,0.399658203125,-296.0,150.0,-153.0,101704.0,-3.1530001163482666,0,0
2.0416623999917647,0.369232177734375,-0.450958251953125,0.31201171875,-0.750244140625,0.18310546875,0.0,-0.06103515625,0.4483642578125,-0.79833984375,0.399658203125,-296.0,150.0,-153.0,101704.0,-3.1530001163482666,0,0
2.0417359999992186,0.369232177734375,-0.450958251953125,0.31201171875,-0.750244140625,-0.06103515625,-0.3662109375,-0.3662109375,0.4454345703125,-0.801025390625,0.39794921875,-297.0,150.0,-152.0,101704.0,-3.1530001163482666,0,0
2.041795099998126,0.369232177734375,-0.450958251953125,0.31201171875,-0.750244140625,0.1220703125,0.06103515625,0.06103515625,0.447509765625,-0.8001708984375,0.39794921875,-297.0,150.0,-152.0,101704.0,-3.1530001163482666,0,0
2.041850499997963,0.369232177734375,-0.450958251953125,0.31201171875,-0.750244140625,-0.18310546875,-0.3662109375,0.18310546875,0.4449462890625,-0.8004150390625,0.398193359375,-297.0,150.0,-152.0,101704.0,-3.1530001163482666,0,0
2.0419038999971235,0.369232177734375,-0.450958251953125,0.31201171875,-0.750244140625,0.0,0.06103515625,0.0,0.4454345703125,-0.802001953125,0.3995361328125,-297.0,150.0,-152.0,101704.0,-3.1530001163482666,0,0
2.041956500004744,0.369232177734375,-0.450958251953125,0.31201171875,-0.750244140625,-0.1220703125,-0.06103515625,-0.1220703125,0.4461669921875,-0.8040771484375,0.3990478515625,-297.0,150.0,-152.0,101704.0,-3.1530001163482666,0,0
2.1035088999924483,0.3692626953125,-0.450958251953125,0.31201171875,-0.750274658203125,0.244140625,0.0,-0.1220703125,0.447998046875,-0.8011474609375,0.39990234375,-297.0,150.0,-152.0,101704.0,-3.1530001163482666,0,0
2.103574499997194,0.3692626953125,-0.450958251953125,0.31201171875,-0.750274658203125,0.244140625,0.0,-0.1220703125,0.447998046875,-0.8011474609375,0.39990234375,-297.0,150.0,-152.0,101704.0,-3.1520001888275146,0,0
2.1036316999961855,0.3692626953125,-0.450958251953125,0.31201171875,-0.750274658203125,0.244140625,0.0,-0.1220703125,0.447998046875,-0.8011474609375,0.39990234375,-297.0,150.0,-152.0,101704.0,-3.1520001888275146,0,0
2.1036852999968687,0.3692626953125,-0.450927734375,0.31201171875,-0.750274658203125,-0.30517578125,-0.18310546875,0.06103515625,0.446533203125,-0.7998046875,0.3983154296875,-297.0,150.0,-152.0,101704.0,-3.1520001888275146,0,0
2.1037399000051664,0.3692626953125,-0.450927734375,0.31201171875,-0.750274658203125,0.0,0.1220703125,0.0,0.4459228515625,-0.80078125,0.3990478515625,-297.0,150.0,-152.0,101704.0,-3.1520001888275146,0,0
2.1038144000049215,0.369232177734375,-0.450958251953125,0.31201171875,-0.750274658203125,-0.1220703125,-0.244140625,-0.1220703125,0.4476318359375,-0.7999267578125,0.399169921875,-297.0,150.0,-152.0,101704.0,-3.1520001888275146,0,0
2.1038697000039974,0.369232177734375,-0.450958251953125,0.31201171875,-0.750274658203125,0.3662109375,-0.06103515625,-0.1220703125,0.4482421875,-0.8021240234375,0.3983154296875,-297.0,150.0,-152.0,101704.0,-3.1520001888275146,0,0
2.103921200003242,0.369232177734375,-0.450958251953125,0.31201171875,-0.750274658203125,0.18310546875,-0.244140625,0.06103515625,0.4451904296875,-0.80078125,0.3980712890625,-297.0,150.0,-152.0,101704.0,-3.1520001888275146,0,0
2.103973399993265,0.369232177734375,-0.450958251953125,0.31201171875,-0.750274658203125,-0.42724609375,-0.30517578125,-0.06103515625,0.44482421875,-0.7998046875,0.3975830078125,-297.0,150.0,-152.0,101704.0,-3.1520001888275146,0,0
2.1040267999924254,0.369232177734375,-0.450958251953125,0.31201171875,-0.750274658203125,0.0,-0.1220703125,-0.06103515625,0.4464111328125,-0.7999267578125,0.3994140625,-297.0,150.0,-152.0,101704.0,-3.1520001888275146,0,0
2.1040787999954773,0.3692626953125,-0.450927734375,0.31201171875,-0.750274658203125,0.06103515625,0.0,-0.18310546875,0.445556640625,-0.7996826171875,0.400634765625,-297.0,150.0,-152.0,101704.0,-3.1520001888275146,0,0
2.104132099993876,0.3692626953125,-0.450927734375,0.31201171875,-0.750274658203125,0.06103515625,0.0,-0.18310546875,0.445556640625,-0.7996826171875,0.400634765625,-297.0,150.0,-152.0,101704.0,-3.1520001888275146,0,0
2.1789906000049086,0.3692626953125,-0.450927734375,0.31201171875,-0.750274658203125,-0.18310546875,-0.06103515625,-0.1220703125,0.4459228515625,-0.8001708984375,0.3990478515625,-297.0,150.0,-152.0,101704.0,-3.1520001888275146,0,0
2.179053300002124,0.3692626953125,-0.450927734375,0.31201171875,-0.750274658203125,0.18310546875,0.0,-0.1220703125,0.445556640625,-0.8018798828125,0.3983154296875,-297.0,150.0,-152.0,101704.0,-3.1520001888275146,0,0
2.179108800002723,0.3692626953125,-0.450927734375,0.31201171875,-0.750274658203125,0.3662109375,0.18310546875,-0.244140625,0.4456787109375,-0.8017578125,0.3990478515625,-297.0,150.0,-152.0,101704.0,-3.1520001888275146,0,0
2.1791635999979917,0.3692626953125,-0.450927734375,0.31201171875,-0.750274658203125,-0.1220703125,-0.30517578125,-0.06103515625,0.4468994140625,-0.8011474609375,0.3978271484375,-297.0,150.0,-152.0,101704.0,-3.1520001888275146,0,0
2.1792170999979135,0.3692626953125,-0.450927734375,0.31201171875,-0.750274658203125,0.0,-0.06103515625,0.0,0.44677734375,-0.800048828125,0.4000244140625,-297.0,150.0,-152.0,101704.0,-3.1520001888275146,0,0
2.179270499997074,0.3692626953125,-0.450927734375,0.31201171875,-0.750274658203125,-0.1220703125,-0.18310546875,-0.06103515625,0.446533203125,-0.8006591796875,0.39990234375,-297.0,150.0,-152.0,101704.0,-3.1520001888275146,0,0
2.1793441999907373,0.3692626953125,-0.450927734375,0.31201171875,-0.750274658203125,0.0,-0.06103515625,-0.1220703125,0.4447021484375,-0.7989501953125,0.398193359375,-297.0,150.0,-152.0,101704.0,-3.1520001888275146,0,0
2.179399899992859,0.3692626953125,-0.450927734375,0.311981201171875,-0.750274658203125,0.18310546875,-0.1220703125,0.0,0.446533203125,-0.80029296875,0.3997802734375,-297.0,150.0,-152.0,101704.0,-3.1520001888275146,0,0
2.1794567000033567,0.3692626953125,-0.450927734375,0.311981201171875,-0.750274658203125,0.06103515625,-0.30517578125,-0.1220703125,0.4444580078125,-0.8004150390625,0.398193359375,-297.0,150.0,-152.0,101704.0,-3.1520001888275146,0,0
2.179513399998541,0.3692626953125,-0.450927734375,0.311981201171875,-0.750274658203125,0.06103515625,-0.30517578125,-0.1220703125,0.4444580078125,-0.8004150390625,0.398193359375,-297.0,150.0,-152.0,101704.0,-3.1520001888275146,0,0
2.1795655000023544,0.3692626953125,-0.450927734375,0.31201171875,-0.750274658203125,0.18310546875,0.06103515625,-0.1220703125,0.4466552734375,-0.802001953125,0.396484375,-297.0,150.0,-152.0,101704.0,-3.1530001163482666,0,0
2.1796191000030376,0.3692626953125,-0.450927734375,0.311981201171875,-0.750274658203125,0.244140625,-0.1220703125,-0.244140625,0.4453125,-0.799560546875,0.399658203125,-297.0,150.0,-152.0,101704.0,-3.1530001163482666,0,0
2.2332268000027398,0.3692626953125,-0.450927734375,0.311981201171875,-0.750274658203125,0.06103515625,0.0,-0.1220703125,0.4468994140625,-0.8013916015625,0.3983154296875,-297.0,150.0,-152.0,101704.0,-3.1530001163482666,0,0
2.2332898000022396,0.3692626953125,-0.450927734375,0.311981201171875,-0.750274658203125,0.0,-0.18310546875,0.0,0.4459228515625,-0.8018798828125,0.3994140625,-297.0,150.0,-152.0,101704.0,-3.1530001163482666,0,0
2.2333455000043614,0.3692626953125,-0.450927734375,0.311981201171875,-0.750274658203125,-0.30517578125,0.06103515625,0.0,0.447509765625,-0.801025390625,0.398193359375,-297.0,150.0,-152.0,101704.0,-3.1530001163482666,0,0
2.2334008000034373,0.3692626953125,-0.450927734375,0.311981201171875,-0.750274658203125,-0.06103515625,-0.06103515625,0.0,0.4447021484375,-0.799560546875,0.3980712890625,-297.0,150.0,-152.0,101704.0,-3.1530001163482666,0,0
2.2334552999964217,0.3692626953125,-0.450927734375,0.311981201171875,-0.750274658203125,-0.06103515625,-0.06103515625,0.0,0.4447021484375,-0.799560546875,0.3980712890625,-297.0,150.0,-152.0,101704.0,-3.1530001163482666,0,0
2.2339215999963926,0.3692626953125,-0.450927734375,0.311981201171875,-0.750274658203125,0.0,-0.18310546875,0.0,0.4444580078125,-0.8011474609375,0.4000244140625,-297.0,150.0,-152.0,101704.0,-3.1530001163482666,0,0
2.2339857000042684,0.3692626953125,-0.450927734375,0.311981201171875,-0.75030517578125,0.18310546875,-0.18310546875,-0.06103515625,0.4447021484375,-0.7999267578125,0.399658203125,-297.0,150.0,-152.0,101704.0,-3.1530001163482666,0,0
2.23403920000419,0.3692626953125,-0.450897216796875,0.311981201171875,-0.75030517578125,0.18310546875,-0.18310546875,-0.06103515625,0.4447021484375,-0.7999267578125,0.399658203125,-297.0,150.0,-151.0,101704.0,-3.1530001163482666,0,0
2.2340929999918444,0.3692626953125,-0.450927734375,0.311981201171875,-0.75030517578125,0.06103515625,-0.30517578125,-0.1220703125,0.4473876953125,-0.8011474609375,0.39794921875,-297.0,150.0,-151.0,101704.0,-3.1530001163482666,0,0
2.2341457000002265,0.3692626953125,-0.450897216796875,0.311981201171875,-0.75030517578125,0.06103515625,0.0,0.0,0.4466552734375,-0.80126953125,0.400634765625,-297.0,150.0,-151.0,101704.0,-3.1530001163482666,0,0
2.2341983999940567,0.3692626953125,-0.450897216796875,0.311981201171875,-0.75030517578125,-0.06103515625,-0.06103515625,-0.06103515625,0.4454345703125,-0.8018798828125,0.3983154296875,-297.0,150.0,-151.0,101704.0,-3.1530001163482666,0,0
2.234250699999393,0.3692626953125,-0.450897216796875,0.311981201171875,-0.75030517578125,-0.244140625,-0.18310546875,-0.18310546875,0.447509765625,-0.8033447265625,0.3978271484375,-297.0,150.0,-151.0,101704.0,-3.1530001163482666,0,0
2.2933229000045685,0.3692626953125,-0.450897216796875,0.311981201171875,-0.75030517578125,-0.1220703125,-0.06103515625,-0.06103515625,0.4456787109375,-0.800537109375,0.398681640625,-297.0,150.0,-151.0,101704.0,-3.1530001163482666,0,0
2.2933974000043236,0.3692626953125,-0.450897216796875,0.311981201171875,-0.750274658203125,0.1220703125,-0.1220703125,-0.06103515625,0.445556640625,-0.80126953125,0.3980712890625,-297.0,150.0,-151.0,101704.0,-3.1530001163482666,0,0
2.2934641000028932,0.3692626953125,-0.450897216796875,0.311981201171875,-0.750274658203125,0.1220703125,-0.1220703125,-0.06103515625,0.445556640625,-0.80126953125,0.3980712890625,-297.0,150.0,-151.0,101704.0,-3.1530001163482666,0,0
2.293527300003916,0.3692626953125,-0.450897216796875,0.311981201171875,-0.750274658203125,-0.06103515625,0.06103515625,0.06103515625,0.4456787109375,-0.8016357421875,0.398193359375,-297.0,150.0,-151.0,101704.0,-3.1530001163482666,0,0
2.2939115000044694,0.3692626953125,-0.450897216796875,0.311981201171875,-0.750274658203125,0.0,-0.244140625,-0.244140625,0.44482421875,-0.80126953125,0.398193359375,-297.0,150.0,-151.0,101704.0,-3.1530001163482666,0,0
2.29398499999661,0.3692626953125,-0.450897216796875,0.311981201171875,-0.75030517578125,-0.06103515625,-0.244140625,0.1220703125,0.44677734375,-0.799072265625,0.39990234375,-297.0,150.0,-151.0,101704.0,-3.1530001163482666,0,0
2.294043200003216,0.3692626953125,-0.450897216796875,0.311981201171875,-0.75030517578125,0.18310546875,0.1220703125,-0.30517578125,0.44580078125,-0.7998046875,0.3992919921875,-297.0,150.0,-151.0,101704.0,-3.1530001163482666,0,0
2.294097599995439,0.3692626953125,-0.450897216796875,0.311981201171875,-0.75030517578125,0.1220703125,-0.244140625,0.0,0.4468994140625,-0.802734375,0.3984375,-297.0,150.0,-151.0,101704.0,-3.1530001163482666,0,0
2.2941525999922305,0.3692626953125,-0.450897216796875,0.311981201171875,-0.75030517578125,0.1220703125,-0.18310546875,0.0,0.446533203125,-0.8021240234375,0.39794921875,-297.0,150.0,-151.0,101704.0,-3.1530001163482666,0,0
2.294206299993675,0.3692626953125,-0.450897216796875,0.311981201171875,-0.75030517578125,0.1220703125,-0.18310546875,0.0,0.446533203125,-0.8021240234375,0.39794921875,-297.0,150.0,-151.0,101704.0,-3.1530001163482666,0,0
2.2942596999928355,0.3692626953125,-0.450897216796875,0.311981201171875,-0.75030517578125,0.30517578125,-0.1220703125,-0.1220703125,0.44677734375,-0.8006591796875,0.399658203125,-297.0,150.0,-151.0,101704.0,-3.1530001163482666,0,0
2.3609021000011126,0.3692626953125,-0.450897216796875,0.311981201171875,-0.75030517578125,-0.06103515625,-0.1220703125,0.06103515625,0.446044921875,-0.802001953125,0.3978271484375,-297.0,150.0,-151.0,101704.0,-3.1530001163482666,0,0
2.360964099992998,0.3692626953125,-0.450897216796875,0.311981201171875,-0.75030517578125,0.06103515625,-0.1220703125,0.0,0.447265625,-0.8009033203125,0.400390625,-297.0,150.0,-151.0,101704.0,-3.1530001163482666,0,0
2.362837099994067,0.3692626953125,-0.450897216796875,0.311981201171875,-0.75030517578125,0.18310546875,-0.18310546875,-0.06103515625,0.4493408203125,-0.8013916015625,0.3988037109375,-298.0,149.0,-152.0,101704.0,-3.1530001163482666,0,0
2.362926799993147,0.3692626953125,-0.450897216796875,0.311981201171875,-0.75030517578125,0.1220703125,-0.06103515625,-0.1220703125,0.4462890625,-0.802001953125,0.3994140625,-298.0,149.0,-152.0,101704.0,-3.1530001163482666,0,0
2.3629870000004303,0.3692626953125,-0.450897216796875,0.311981201171875,-0.75030517578125,-0.06103515625,-0.244140625,0.0,0.4473876953125,-0.800537109375,0.3975830078125,-298.0,149.0,-152.0,101704.0,-3.1530001163482666,0,0
2.3630426000017906,0.3692626953125,-0.450897216796875,0.311981201171875,-0.75030517578125,0.1220703125,-0.06103515625,0.06103515625,0.4471435546875,-0.7994384765625,0.399169921875,-298.0,149.0,-152.0,101704.0,-3.1530001163482666,0,0
2.3632013000024017,0.3692626953125,-0.450897216796875,0.311981201171875,-0.75030517578125,0.06103515625,0.1220703125,-0.1220703125,0.4459228515625,-0.8016357421875,0.3994140625,-298.0,149.0,-152.0,101704.0,-3.1530001163482666,0,0
2.363256199998432,0.3692626953125,-0.450897216796875,0.311981201171875,-0.75030517578125,0.30517578125,-0.06103515625,-0.18310546875,0.447021484375,-0.8011474609375,0.398193359375,-298.0,149.0,-152.0,101704.0,-3.1530001163482666,0,0
2.3633105999906547,0.3692626953125,-0.450897216796875,0.311981201171875,-0.75030517578125,0.30517578125,-0.06103515625,-0.18310546875,0.447021484375,-0.8011474609375,0.398193359375,-298.0,149.0,-152.0,101704.0,-3.1530001163482666,0,0
2.3633641000051284,0.3692626953125,-0.450897216796875,0.311981201171875,-0.75030517578125,0.3662109375,-0.06103515625,0.06103515625,0.4443359375,-0.800048828125,0.39892578125,-298.0,149.0,-152.0,101704.0,-3.1530001163482666,0,0
2.363418699998874,0.3692626953125,-0.450897216796875,0.31195068359375,-0.75030517578125,0.30517578125,0.1220703125,0.06103515625,0.4466552734375,-0.8001708984375,0.39892578125,-298.0,149.0,-152.0,101704.0,-3.1530001163482666,0,0
2.363471100004972,0.3692626953125,-0.450897216796875,0.311981201171875,-0.75030517578125,0.1220703125,-0.1220703125,-0.06103515625,0.447021484375,-0.80322265625,0.3992919921875,-298.0,149.0,-152.0,101704.0,-3.1530001163482666,0,0
2.363522899991949,0.3692626953125,-0.450897216796875,0.311981201171875,-0.75030517578125,0.42724609375,0.0,-0.1220703125,0.4471435546875,-0.8009033203125,0.3974609375,-298.0,149.0,-152.0,101704.0,-3.1530001163482666,0,0
2.4232058999914443,0.3692626953125,-0.450897216796875,0.311981201171875,-0.75030517578125,0.06103515625,0.1220703125,-0.18310546875,0.4443359375,-0.7984619140625,0.3975830078125,-298.0,149.0,-152.0,101704.0,-3.1530001163482666,0,0
2.4232685000024503,0.3692626953125,-0.450897216796875,0.311981201171875,-0.75030517578125,0.18310546875,-0.244140625,-0.06103515625,0.4462890625,-0.8023681640625,0.398193359375,-298.0,149.0,-152.0,101704.0,-3.1530001163482666,0,0
2.4234106999938376,0.3692626953125,-0.450897216796875,0.311981201171875,-0.75030517578125,0.18310546875,-0.244140625,-0.06103515625,0.4462890625,-0.8023681640625,0.398193359375,-298.0,149.0,-152.0,101704.0,-3.1530001163482666,0,0
2.423471000001882,0.3692626953125,-0.450897216796875,0.311981201171875,-0.75030517578125,0.06103515625,-0.18310546875,0.0,0.4461669921875,-0.8017578125,0.4000244140625,-298.0,149.0,-152.0,101704.0,-3.1530001163482666,0,0
2.426936999996542,0.3692626953125,-0.450897216796875,0.311981201171875,-0.75030517578125,0.1220703125,-0.30517578125,-0.18310546875,0.44677734375,-0.8013916015625,0.3975830078125,-298.0,149.0,-152.0,101704.0,-3.1530001163482666,0,0
2.4270013999921503,0.3692626953125,-0.450897216796875,0.311981201171875,-0.75030517578125,0.1220703125,-0.06103515625,-0.1220703125,0.4466552734375,-0.8018798828125,0.3988037109375,-298.0,149.0,-152.0,101704.0,-3.1530001163482666,0,0
2.4270587999926647,0.3692626953125,-0.450897216796875,0.311981201171875,-0.75030517578125,0.18310546875,-0.30517578125,0.0,0.4434814453125,-0.8004150390625,0.3968505859375,-298.0,149.0,-152.0,101704.0,-3.1530001163482666,0,0
2.4271159999916563,0.3692626953125,-0.450897216796875,0.311981201171875,-0.75030517578125,0.1220703125,-0.06103515625,-0.1220703125,0.4447021484375,-0.8023681640625,0.3997802734375,-298.0,149.0,-152.0,101704.0,-3.1530001163482666,0,0
2.427170800001477,0.3692626953125,-0.450897216796875,0.311981201171875,-0.75030517578125,-0.18310546875,-0.18310546875,-0.06103515625,0.4471435546875,-0.7996826171875,0.3983154296875,-296.0,150.0,-151.0,101704.0,-3.1530001163482666,0,0
2.4272265000035986,0.3692626953125,-0.450897216796875,0.311981201171875,-0.75030517578125,0.0,0.0,-0.06103515625,0.44482421875,-0.7979736328125,0.3983154296875,-296.0,150.0,-151.0,101704.0,-3.1530001163482666,0,0
2.4272804999927757,0.3692626953125,-0.450897216796875,0.311981201171875,-0.75030517578125,0.0,0.1220703125,0.0,0.44873046875,-0.7999267578125,0.3966064453125,-296.0,150.0,-151.0,101704.0,-3.1530001163482666,0,0
2.4977116999943973,0.3692626953125,-0.450897216796875,0.311981201171875,-0.750274658203125,-0.18310546875,-0.18310546875,-0.1220703125,0.44580078125,-0.8009033203125,0.3985595703125,-296.0,150.0,-151.0,101704.0,-3.1530001163482666,0,0
2.4977713999978732,0.3692626953125,-0.450897216796875,0.311981201171875,-0.75030517578125,0.18310546875,-0.1220703125,0.0,0.44677734375,-0.801025390625,0.3992919921875,-296.0,150.0,-151.0,101704.0,-3.1530001163482666,0,0
2.4978310000005877,0.3692626953125,-0.450897216796875,0.311981201171875,-0.750274658203125,-0.244140625,-0.1220703125,0.1220703125,0.4468994140625,-0.80126953125,0.3975830078125,-296.0,150.0,-151.0,101704.0,-3.1530001163482666,0,0
2.4978883000003407,0.3692626953125,-0.450897216796875,0.311981201171875,-0.750274658203125,0.06103515625,0.06103515625,-0.18310546875,0.44580078125,-0.801513671875,0.399169921875,-296.0,150.0,-151.0,101704.0,-3.1530001163482666,0,0
2.4979443000047468,0.3692626953125,-0.450897216796875,0.31201171875,-0.750274658203125,0.06103515625,0.06103515625,-0.18310546875,0.44580078125,-0.801513671875,0.399169921875,-296.0,150.0,-151.0,101704.0,-3.1520001888275146,0,0
2.49811729999783,0.3692626953125,-0.450897216796875,0.31201171875,-0.750274658203125,0.1220703125,-0.06103515625,0.0,0.44384765625,-0.8033447265625,0.3988037109375,-296.0,150.0,-151.0,101704.0,-3.1520001888275146,0,0
2.498173100000713,0.3692626953125,-0.450897216796875,0.31201171875,-0.750274658203125,0.1220703125,-0.1220703125,0.0,0.44482421875,-0.7989501953125,0.398193359375,-296.0,150.0,-151.0,101704.0,-3.1520001888275146,0,0
2.498225499992259,0.369293212890625,-0.450897216796875,0.31201171875,-0.750274658203125,0.18310546875,0.0,-0.244140625,0.44287109375,-0.8033447265625,0.3974609375,-296.0,150.0,-151.0,101704.0,-3.1520001888275146,0,0
2.498277799997595,0.369293212890625,-0.450897216796875,0.31201171875,-0.750274658203125,0.18310546875,0.0,-0.244140625,0.44287109375,-0.8033447265625,0.3974609375,-296.0,150.0,-151.0,101704.0,-3.1520001888275146,0,0
2.4983313999982784,0.369293212890625,-0.450897216796875,0.31201171875,-0.750274658203125,-0.06103515625,-0.06103515625,0.06103515625,0.4437255859375,-0.801025390625,0.398681640625,-296.0,150.0,-151.0,101704.0,-3.1520001888275146,0,0
2.498383300000569,0.369293212890625,-0.450897216796875,0.31201171875,-0.750274658203125,0.18310546875,-0.18310546875,0.06103515625,0.4443359375,-0.801025390625,0.396240234375,-296.0,150.0,-151.0,101704.0,-3.1520001888275146,0,0
2.553382400001283,0.369293212890625,-0.450897216796875,0.312042236328125,-0.750274658203125,-0.18310546875,-0.244140625,-0.1220703125,0.4454345703125,-0.8023681640625,0.3975830078125,-296.0,150.0,-151.0,101704.0,-3.1520001888275146,0,0
2.5534448999969754,0.369293212890625,-0.450897216796875,0.312042236328125,-0.750274658203125,0.06103515625,-0.06103515625,-0.1220703125,0.444091796875,-0.800537109375,0.3974609375,-296.0,150.0,-151.0,101704.0,-3.1520001888275146,0,0
2.553507199991145,0.369293212890625,-0.450897216796875,0.312042236328125,-0.750274658203125,0.06103515625,0.1220703125,-0.1220703125,0.445556640625,-0.7999267578125,0.3980712890625,-296.0,150.0,-151.0,101704.0,-3.1520001888275146,0,0
2.5537060999922687,0.369293212890625,-0.450897216796875,0.312042236328125,-0.750274658203125,0.0,0.0,-0.3662109375,0.4466552734375,-0.802001953125,0.396240234375,-296.0,150.0,-151.0,101704.0,-3.1520001888275146,0,0
2.553788099990925,0.369293212890625,-0.450897216796875,0.312042236328125,-0.750274658203125,0.48828125,-0.30517578125,0.06103515625,0.4459228515625,-0.8018798828125,0.3983154296875,-297.0,151.0,-151.0,101704.0,-3.1520001888275146,0,0
2.554063599993242,0.369384765625,-0.450927734375,0.311981201171875,-0.750213623046875,-0.06103515625,-0.06103515625,-0.18310546875,0.447021484375,-0.8016357421875,0.39697265625,-297.0,151.0,-151.0,101704.0,-3.1520001888275146,0,0
2.554612599997199,0.369384765625,-0.450958251953125,0.311981201171875,-0.750213623046875,0.1220703125,-0.1220703125,-0.1220703125,0.4453125,-0.802734375,0.3966064453125,-297.0,151.0,-151.0,101704.0,-3.1520001888275146,0,0
2.554694999998901,0.369384765625,-0.450958251953125,0.311981201171875,-0.750213623046875,0.1220703125,-0.1220703125,-0.1220703125,0.4453125,-0.802734375,0.3966064453125,-297.0,151.0,-151.0,101704.0,-3.1520001888275146,0,0
2.5547558999969624,0.369384765625,-0.450958251953125,0.311981201171875,-0.750213623046875,-0.18310546875,-0.244140625,0.06103515625,0.446044921875,-0.802978515625,0.398681640625,-297.0,151.0,-151.0,101704.0,-3.1520001888275146,0,0
2.5549099999916507,0.369384765625,-0.450958251953125,0.311981201171875,-0.750213623046875,0.30517578125,-0.18310546875,-0.06103515625,0.4459228515625,-0.80126953125,0.3975830078125,-297.0,151.0,-151.0,101704.0,-3.1520001888275146,0,0
2.554975299994112,0.369384765625,-0.450958251953125,0.311981201171875,-0.750213623046875,0.244140625,-0.3662109375,-0.244140625,0.4461669921875,-0.801025390625,0.3974609375,-297.0,151.0,-151.0,101704.0,-3.1520001888275146,0,0
2.5550376000028336,0.369384765625,-0.450958251953125,0.31201171875,-0.75018310546875,-0.06103515625,-0.1220703125,0.06103515625,0.44384765625,-0.8013916015625,0.3956298828125,-297.0,151.0,-151.0,101704.0,-3.1520001888275146,0,0
2.5552816999988863,0.369384765625,-0.450958251953125,0.31201171875,-0.75018310546875,0.1220703125,-0.244140625,-0.1220703125,0.4444580078125,-0.7991943359375,0.3974609375,-297.0,151.0,-151.0,101704.0,-3.1520001888275146,0,0
2.6166765999951167,0.369384765625,-0.450958251953125,0.31201171875,-0.75018310546875,0.244140625,-0.18310546875,-0.1220703125,0.4451904296875,-0.8018798828125,0.3974609375,-297.0,151.0,-151.0,101704.0,-3.1510002613067627,0,0
2.6167392999923322,0.369384765625,-0.450958251953125,0.31201171875,-0.75018310546875,0.244140625,-0.18310546875,-0.1220703125,0.4451904296875,-0.8018798828125,0.3974609375,-297.0,151.0,-151.0,101704.0,-3.1510002613067627,0,0
2.6167944999906467,0.369384765625,-0.450958251953125,0.31201171875,-0.75018310546875,0.06103515625,-0.18310546875,-0.18310546875,0.4478759765625,-0.7994384765625,0.3973388671875,-297.0,151.0,-151.0,101704.0,-3.1510002613067627,0,0
2.6168481999920914,0.369384765625,-0.450958251953125,0.31201171875,-0.75018310546875,0.06103515625,0.0,-0.244140625,0.4468994140625,-0.80029296875,0.396728515625,-297.0,151.0,-151.0,101704.0,-3.1510002613067627,0,0
2.6169017999927746,0.369384765625,-0.450958251953125,0.31201171875,-0.75018310546875,0.1220703125,-0.1220703125,0.1220703125,0.446044921875,-0.8033447265625,0.3983154296875,-297.0,151.0,-151.0,101704.0,-3.1510002613067627,0,0
2.6170319999946514,0.369384765625,-0.450958251953125,0.31201171875,-0.75018310546875,-0.18310546875,-0.06103515625,0.0,0.4461669921875,-0.80126953125,0.3973388671875,-297.0,151.0,-151.0,101704.0,-3.1510002613067627,0,0
2.6170908999920357,0.369384765625,-0.45098876953125,0.31201171875,-0.75018310546875,-0.18310546875,0.0,-0.06103515625,0.447265625,-0.80078125,0.3975830078125,-297.0,151.0,-151.0,101704.0,-3.1510002613067627,0,0
2.617146699994919,0.369384765625,-0.45098876953125,0.31201171875,-0.75018310546875,0.1220703125,-0.244140625,0.06103515625,0.4481201171875,-0.802490234375,0.395263671875,-297.0,151.0,-151.0,101704.0,-3.1510002613067627,0,0
2.617201400003978,0.369384765625,-0.45098876953125,0.312042236328125,-0.75018310546875,-0.244140625,-0.244140625,-0.244140625,0.444580078125,-0.80078125,0.39501953125,-297.0,151.0,-151.0,101704.0,-3.1510002613067627,0,0
2.6172552999923937,0.369384765625,-0.45098876953125,0.312042236328125,-0.750152587890625,-0.06103515625,0.0,0.244140625,0.444580078125,-0.8011474609375,0.3970947265625,-297.0,153.0,-151.0,101704.0,-3.1510002613067627,0,0
2.6173089999938384,0.369476318359375,-0.451019287109375,0.311981201171875,-0.7501220703125,-0.244140625,-0.06103515625,-0.1220703125,0.446533203125,-0.802001953125,0.399658203125,-297.0,153.0,-151.0,101704.0,-3.1510002613067627,0,0
2.681616000001668,0.369476318359375,-0.4510498046875,0.311981201171875,-0.7501220703125,-0.1220703125,-0.1220703125,-0.06103515625,0.44677734375,-0.803466796875,0.3955078125,-297.0,153.0,-151.0,101704.0,-3.1510002613067627,0,0
2.6816776000050595,0.369476318359375,-0.4510498046875,0.311981201171875,-0.7501220703125,0.0,0.06103515625,0.06103515625,0.4451904296875,-0.7977294921875,0.3973388671875,-297.0,153.0,-151.0,101704.0,-3.1510002613067627,0,0
2.681733899997198,0.369476318359375,-0.4510498046875,0.311981201171875,-0.750091552734375,0.06103515625,-0.06103515625,0.0,0.44580078125,-0.802490234375,0.3973388671875,-297.0,153.0,-151.0,101704.0,-3.1510002613067627,0,0
2.6818630999914603,0.369476318359375,-0.4510498046875,0.311981201171875,-0.750091552734375,0.0,-0.06103515625,-0.18310546875,0.4466552734375,-0.80078125,0.3955078125,-297.0,153.0,-151.0,101704.0,-3.1510002613067627,0,0
2.681942800001707,0.369476318359375,-0.4510498046875,0.311981201171875,-0.750091552734375,0.244140625,-0.244140625,-0.1220703125,0.44580078125,-0.800537109375,0.3988037109375,-297.0,153.0,-151.0,101704.0,-3.1510002613067627,0,0
2.684025099995779,0.369476318359375,-0.4510498046875,0.311981201171875,-0.750091552734375,0.244140625,-0.244140625,-0.1220703125,0.44580078125,-0.800537109375,0.3988037109375,-297.0,153.0,-151.0,101704.0,-3.1530001163482666,0,0
2.6841656000033254,0.369476318359375,-0.4510498046875,0.311981201171875,-0.750091552734375,0.30517578125,-0.1220703125,0.0,0.4471435546875,-0.8013916015625,0.396728515625,-297.0,153.0,-151.0,101704.0,-3.1530001163482666,0,0
2.684239099995466,0.369476318359375,-0.4510498046875,0.311981201171875,-0.750091552734375,0.30517578125,-0.1220703125,0.0,0.4471435546875,-0.8013916015625,0.396728515625,-297.0,153.0,-151.0,101704.0,-3.1530001163482666,0,0
2.684299500004272,0.36944580078125,-0.4510498046875,0.311981201171875,-0.750091552734375,0.244140625,0.0,0.0,0.4461669921875,-0.80078125,0.3978271484375,-297.0,153.0,-151.0,101704.0,-3.1530001163482666,0,0
2.6843552999926032,0.36944580078125,-0.451080322265625,0.311981201171875,-0.750091552734375,0.0,0.0,0.0,0.4473876953125,-0.8026123046875,0.3973388671875,-297.0,153.0,-151.0,101704.0,-3.1530001163482666,0,0
2.6844108999939635,0.36944580078125,-0.451080322265625,0.311981201171875,-0.750091552734375,0.30517578125,-0.244140625,-0.06103515625,0.4442138671875,-0.7979736328125,0.396728515625,-297.0,153.0,-151.0,101704.0,-3.1530001163482666,0,0
2.7526533999916865,0.36944580078125,-0.451080322265625,0.311981201171875,-0.750091552734375,0.0,-0.30517578125,-0.244140625,0.44775390625,-0.800048828125,0.396240234375,-297.0,153.0,-151.0,101704.0,-3.1530001163482666,0,0
2.7527183999918634,0.36944580078125,-0.451080322265625,0.311981201171875,-0.750091552734375,0.244140625,0.1220703125,-0.06103515625,0.4471435546875,-0.802978515625,0.3968505859375,-297.0,153.0,-151.0,101704.0,-3.1530001163482666,0,0
2.752777200003038,0.36944580078125,-0.451080322265625,0.311981201171875,-0.750091552734375,0.54931640625,0.18310546875,0.18310546875,0.4464111328125,-0.804443359375,0.39794921875,-297.0,153.0,-151.0,101704.0,-3.1530001163482666,0,0
2.7528320999990683,0.36944580078125,-0.451080322265625,0.311981201171875,-0.750091552734375,0.1220703125,-0.06103515625,-0.244140625,0.4447021484375,-0.8017578125,0.3968505859375,-297.0,153.0,-151.0,101704.0,-3.1530001163482666,0,0
2.7528859000012744,0.36944580078125,-0.451080322265625,0.311981201171875,-0.750091552734375,0.06103515625,-0.06103515625,-0.06103515625,0.4456787109375,-0.8004150390625,0.3973388671875,-297.0,153.0,-151.0,101704.0,-3.1530001163482666,0,0
2.7529409999988275,0.36944580078125,-0.451080322265625,0.311981201171875,-0.750091552734375,0.06103515625,-0.3662109375,0.06103515625,0.4505615234375,-0.8004150390625,0.3974609375,-296.0,152.0,-151.0,101704.0,-3.1530001163482666,0,0
2.7530418999958783,0.36944580078125,-0.451080322265625,0.311981201171875,-0.750091552734375,0.06103515625,-0.3662109375,0.06103515625,0.4505615234375,-0.8004150390625,0.3974609375,-296.0,152.0,-151.0,101704.0,-3.1530001163482666,0,0
2.753097599998,0.369537353515625,-0.451141357421875,0.311920166015625,-0.750030517578125,0.1220703125,0.0,-0.3662109375,0.4451904296875,-0.8017578125,0.3984375,-296.0,152.0,-151.0,101704.0,-3.1530001163482666,0,0
2.753151099997922,0.369537353515625,-0.451141357421875,0.311920166015625,-0.750030517578125,0.18310546875,0.06103515625,-0.244140625,0.445556640625,-0.801025390625,0.3988037109375,-296.0,152.0,-151.0,101704.0,-3.1530001163482666,0,0
2.7532033000024967,0.369537353515625,-0.451141357421875,0.311920166015625,-0.750030517578125,0.3662109375,-0.06103515625,0.06103515625,0.4476318359375,-0.8018798828125,0.3975830078125,-296.0,152.0,-151.0,101704.0,-3.1530001163482666,0,0
2.753255200004787,0.369537353515625,-0.451141357421875,0.311920166015625,-0.750030517578125,0.0,-0.1220703125,-0.1220703125,0.4468994140625,-0.801513671875,0.398193359375,-296.0,152.0,-151.0,101704.0,-3.1530001163482666,0,0
2.7533087999909185,0.369537353515625,-0.451141357421875,0.311920166015625,-0.750030517578125,0.0,0.1220703125,0.06103515625,0.448486328125,-0.8001708984375,0.3970947265625,-296.0,152.0,-151.0,101704.0,-3.1530001163482666,0,0
2.753362499992363,0.369537353515625,-0.451141357421875,0.311920166015625,-0.750030517578125,0.18310546875,-0.1220703125,0.0,0.447021484375,-0.7999267578125,0.39697265625,-296.0,152.0,-151.0,101704.0,-3.1530001163482666,0,0
2.806262099999003,0.369537353515625,-0.451171875,0.311920166015625,-0.750030517578125,0.06103515625,-0.1220703125,0.0,0.447509765625,-0.8018798828125,0.3961181640625,-296.0,152.0,-151.0,101704.0,-3.1510002613067627,0,0
2.8063223999924958,0.3695068359375,-0.451171875,0.311920166015625,-0.750030517578125,0.06103515625,-0.06103515625,-0.1220703125,0.447509765625,-0.800537109375,0.3983154296875,-296.0,152.0,-151.0,101704.0,-3.1510002613067627,0,0
2.806379499990726,0.3695068359375,-0.451171875,0.311920166015625,-0.750030517578125,-0.1220703125,-0.06103515625,-0.18310546875,0.445068359375,-0.8016357421875,0.397216796875,-296.0,152.0,-151.0,101704.0,-3.1510002613067627,0,0
2.806434199999785,0.369537353515625,-0.451171875,0.311920166015625,-0.750030517578125,-0.06103515625,-0.06103515625,-0.244140625,0.4449462890625,-0.800537109375,0.3990478515625,-296.0,152.0,-151.0,101704.0,-3.1510002613067627,0,0
2.806487099995138,0.369537353515625,-0.451171875,0.311920166015625,-0.750030517578125,0.0,-0.244140625,0.1220703125,0.4454345703125,-0.8026123046875,0.3980712890625,-296.0,152.0,-151.0,101704.0,-3.1510002613067627,0,0
2.8065608000033535,0.3695068359375,-0.451171875,0.311920166015625,-0.750030517578125,0.3662109375,-0.18310546875,-0.1220703125,0.4471435546875,-0.80029296875,0.3984375,-296.0,152.0,-151.0,101704.0,-3.1510002613067627,0,0
2.806615599998622,0.3695068359375,-0.451171875,0.311920166015625,-0.750030517578125,-0.06103515625,-0.1220703125,-0.06103515625,0.4461669921875,-0.80078125,0.3973388671875,-296.0,152.0,-151.0,101704.0,-3.1510002613067627,0,0
2.806670199992368,0.369537353515625,-0.451171875,0.311920166015625,-0.750030517578125,0.06103515625,0.0,-0.06103515625,0.4454345703125,-0.802490234375,0.398193359375,-296.0,152.0,-151.0,101704.0,-3.1510002613067627,0,0
2.806723100002273,0.369537353515625,-0.451171875,0.311920166015625,-0.750030517578125,0.1220703125,-0.18310546875,0.06103515625,0.44677734375,-0.8038330078125,0.3975830078125,-296.0,152.0,-151.0,101704.0,-3.1510002613067627,0,0
2.806777499994496,0.369537353515625,-0.451171875,0.311920166015625,-0.750030517578125,0.06103515625,-0.1220703125,-0.244140625,0.447265625,-0.802490234375,0.3983154296875,-296.0,152.0,-151.0,101704.0,-3.1510002613067627,0,0
2.806830200002878,0.369537353515625,-0.451171875,0.311920166015625,-0.750030517578125,0.06103515625,-0.1220703125,-0.244140625,0.447265625,-0.802490234375,0.3983154296875,-296.0,152.0,-151.0,101704.0,-3.1510002613067627,0,0
2.8712977999966824,0.369537353515625,-0.451171875,0.31195068359375,-0.750030517578125,0.18310546875,0.0,-0.06103515625,0.445556640625,-0.8023681640625,0.3975830078125,-295.0,151.0,-151.0,101704.0,-3.1510002613067627,0,0
2.871360299992375,0.369537353515625,-0.451171875,0.31195068359375,-0.750030517578125,0.0,-0.1220703125,-0.244140625,0.4476318359375,-0.8009033203125,0.3974609375,-295.0,151.0,-151.0,101704.0,-3.1510002613067627,0,0
2.871417400005157,0.369537353515625,-0.451171875,0.31195068359375,-0.750030517578125,0.06103515625,0.0,-0.18310546875,0.446533203125,-0.801513671875,0.4005126953125,-295.0,151.0,-151.0,101704.0,-3.1510002613067627,0,0
2.8714744000026258,0.3695068359375,-0.451171875,0.311920166015625,-0.750030517578125,-0.06103515625,-0.18310546875,-0.244140625,0.44677734375,-0.801025390625,0.3978271484375,-295.0,151.0,-151.0,101704.0,-3.1510002613067627,0,0
2.871529099997133,0.3695068359375,-0.451171875,0.311920166015625,-0.750030517578125,-0.244140625,-0.06103515625,0.0,0.446044921875,-0.79931640625,0.395751953125,-295.0,151.0,-151.0,101704.0,-3.1510002613067627,0,0
2.871630900001037,0.3695068359375,-0.451171875,0.311920166015625,-0.750030517578125,0.1220703125,-0.06103515625,-0.1220703125,0.448486328125,-0.7999267578125,0.3968505859375,-295.0,151.0,-151.0,101704.0,-3.1510002613067627,0,0
2.8716858999978285,0.3695068359375,-0.451171875,0.311920166015625,-0.750030517578125,0.1220703125,-0.06103515625,-0.1220703125,0.448486328125,-0.7999267578125,0.3968505859375,-295.0,151.0,-151.0,101704.0,-3.1510002613067627,0,0
2.87173869999242,0.3695068359375,-0.451171875,0.311920166015625,-0.750030517578125,-0.06103515625,-0.1220703125,-0.1220703125,0.4464111328125,-0.8016357421875,0.3978271484375,-295.0,151.0,-151.0,101704.0,-3.1530001163482666,0,0
2.8717920999915805,0.3695068359375,-0.451171875,0.311920166015625,-0.750030517578125,0.18310546875,-0.18310546875,-0.1220703125,0.4464111328125,-0.8001708984375,0.3984375,-295.0,151.0,-151.0,101704.0,-3.1530001163482666,0,0
2.871845100002247,0.3695068359375,-0.451171875,0.311920166015625,-0.750030517578125,0.06103515625,-0.3662109375,0.1220703125,0.4466552734375,-0.8016357421875,0.3973388671875,-295.0,151.0,-151.0,101704.0,-3.1530001163482666,0,0
2.871897599994554,0.3695068359375,-0.451171875,0.311920166015625,-0.750030517578125,-0.18310546875,-0.18310546875,-0.06103515625,0.4456787109375,-0.80224609375,0.3990478515625,-295.0,151.0,-151.0,101704.0,-3.1530001163482666,0,0
2.93345739999495,0.3695068359375,-0.451171875,0.311920166015625,-0.750030517578125,0.18310546875,-0.1220703125,-0.06103515625,0.4454345703125,-0.80126953125,0.3975830078125,-295.0,151.0,-151.0,101704.0,-3.1530001163482666,0,0
2.9335245999973267,0.3695068359375,-0.451171875,0.311920166015625,-0.750030517578125,0.244140625,0.0,-0.06103515625,0.44482421875,-0.8028564453125,0.398681640625,-295.0,151.0,-151.0,101704.0,-3.1530001163482666,0,0
2.9337354000017513,0.3695068359375,-0.451171875,0.311920166015625,-0.750030517578125,0.1220703125,0.0,-0.1220703125,0.4443359375,-0.800537109375,0.399658203125,-295.0,151.0,-151.0,101704.0,-3.1530001163482666,0,0
2.933794399999897,0.3695068359375,-0.451171875,0.311920166015625,-0.750030517578125,0.06103515625,-0.06103515625,0.0,0.4453125,-0.8013916015625,0.39794921875,-295.0,151.0,-151.0,101704.0,-3.1530001163482666,0,0
2.9338497999997344,0.3695068359375,-0.451171875,0.311920166015625,-0.750030517578125,0.06103515625,-0.06103515625,0.0,0.4453125,-0.8013916015625,0.39794921875,-295.0,151.0,-151.0,101704.0,-3.1530001163482666,0,0
