Time stamp(sec),quaternion_0,quaternion_1,quaternion_2,quaternion_3,roll_angular_rate,pitch_angular_rate,yaw_angular_rate,acc_X,acc_Y,acc_Z,mag_X,mag_Y,mag_Z,pressure,altitude
1965.600998,-0.914520263671875,0.02032470703125,0.050323486328125,0.40081787109375,-0.1220703125,0.30517578125,-0.06103515625,0.1082763671875,0.0047607421875,1.0009765625,-143.0,124.0,-21.0,101944.0,-5.14300012588501,0,0
1965.607998,-0.914520263671875,0.02032470703125,0.050323486328125,0.40081787109375,0.0,0.18310546875,-0.18310546875,0.1129150390625,0.0048828125,0.9989013671875,-143.0,124.0,-21.0,101944.0,-5.14300012588501,0,0
1965.615018,-0.914520263671875,0.02032470703125,0.050323486328125,0.40081787109375,-0.18310546875,0.244140625,0.06103515625,0.1083984375,0.00244140625,0.9990234375,-143.0,124.0,-21.0,101944.0,-5.14300012588501,0,0
1965.622001,-0.914520263671875,0.02032470703125,0.050323486328125,0.40081787109375,0.18310546875,0.42724609375,-0.1220703125,0.1094970703125,0.004638671875,0.9970703125,-143.0,124.0,-21.0,101944.0,-5.14300012588501,0,0
1965.629018,-0.914520263671875,0.02032470703125,0.050323486328125,0.40081787109375,-0.1220703125,0.3662109375,0.18310546875,0.1099853515625,0.0048828125,0.99951171875,-143.0,124.0,-21.0,101944.0,-5.14300012588501,0,0
1965.635996,-0.914520263671875,0.02032470703125,0.050323486328125,0.40081787109375,0.18310546875,0.54931640625,-0.1220703125,0.1087646484375,0.004638671875,0.99951171875,-143.0,124.0,-21.0,101944.0,-5.14300012588501,0,0
1965.643,-0.914520263671875,0.02032470703125,0.050323486328125,0.40081787109375,-0.06103515625,0.244140625,0.18310546875,0.1082763671875,0.005615234375,0.999755859375,-143.0,124.0,-21.0,101944.0,-5.14300012588501,0,0
1965.65002,-0.914520263671875,0.020294189453125,0.050323486328125,0.40081787109375,0.0,0.30517578125,-0.06103515625,0.1075439453125,0.0042724609375,1.0,-143.0,124.0,-21.0,101944.0,-5.14300012588501,0,0
1965.656999,-0.914520263671875,0.020294189453125,0.05035400390625,0.40081787109375,-0.244140625,0.18310546875,0.18310546875,0.1102294921875,0.004638671875,0.999755859375,-143.0,124.0,-21.0,101944.0,-5.14300012588501,0,0
1965.664016,-0.914520263671875,0.020294189453125,0.05035400390625,0.40081787109375,-0.1220703125,0.30517578125,-0.1220703125,0.1090087890625,0.0037841796875,1.0003662109375,-143.0,124.0,-21.0,101944.0,-5.14300012588501,0,0
1965.670051,-0.914520263671875,0.020294189453125,0.05035400390625,0.40081787109375,-0.1220703125,0.30517578125,-0.1220703125,0.1090087890625,0.0037841796875,1.0003662109375,-143.0,124.0,-21.0,101944.0,-5.14300012588501,0,0
1965.677004,-0.914520263671875,0.02032470703125,0.05035400390625,0.40081787109375,0.18310546875,0.244140625,0.18310546875,0.1099853515625,0.00341796875,0.99951171875,-143.0,124.0,-21.0,101944.0,-5.14300012588501,0,0
1965.697997,-0.91436767578125,0.02032470703125,0.05035400390625,0.40118408203125,0.1220703125,0.30517578125,-0.06103515625,0.10693359375,0.00439453125,0.999267578125,-143.0,124.0,-21.0,101944.0,-5.14300012588501,0,0
1965.705018,-0.91436767578125,0.02032470703125,0.05035400390625,0.40118408203125,-0.1220703125,0.06103515625,-0.06103515625,0.10986328125,0.0037841796875,1.0006103515625,-143.0,124.0,-21.0,101944.0,-5.14300012588501,0,0
1965.712001,-0.91436767578125,0.02032470703125,0.05035400390625,0.40118408203125,-0.06103515625,0.30517578125,-0.244140625,0.108642578125,0.0067138671875,0.9989013671875,-143.0,124.0,-21.0,101944.0,-5.14300012588501,0,0
1965.719018,-0.91436767578125,0.02032470703125,0.05035400390625,0.40118408203125,-0.3662109375,0.54931640625,-0.18310546875,0.110595703125,0.0054931640625,0.9970703125,-143.0,124.0,-21.0,101944.0,-5.14300012588501,0,0
1965.725995,-0.91436767578125,0.020294189453125,0.05035400390625,0.40118408203125,-0.1220703125,0.30517578125,0.18310546875,0.1085205078125,0.0040283203125,0.9981689453125,-143.0,124.0,-21.0,101944.0,-5.141000270843506,0,0
1965.787998,-0.914215087890625,0.020263671875,0.050384521484375,0.40155029296875,0.0,0.30517578125,0.18310546875,0.108642578125,0.0052490234375,0.9998779296875,-144.0,123.0,-22.0,101944.0,-5.141000270843506,0,0
1965.795018,-0.914215087890625,0.020263671875,0.050384521484375,0.40155029296875,-0.06103515625,0.30517578125,-0.06103515625,0.1109619140625,0.0028076171875,0.9990234375,-144.0,123.0,-22.0,101944.0,-5.141000270843506,0,0
1965.802001,-0.914215087890625,0.020263671875,0.050384521484375,0.40155029296875,-0.06103515625,0.1220703125,0.0,0.1097412109375,0.0042724609375,0.998779296875,-144.0,123.0,-22.0,101944.0,-5.141000270843506,0,0
1965.809019,-0.914215087890625,0.020294189453125,0.050384521484375,0.40155029296875,-0.18310546875,0.18310546875,0.1220703125,0.1077880859375,0.0018310546875,0.999267578125,-144.0,123.0,-22.0,101944.0,-5.141000270843506,0,0
1965.815995,-0.914215087890625,0.020294189453125,0.050384521484375,0.40155029296875,0.06103515625,0.06103515625,0.1220703125,0.111572265625,0.002685546875,0.9971923828125,-144.0,123.0,-22.0,101944.0,-5.141000270843506,0,0
1965.822996,-0.9141845703125,0.020294189453125,0.0504150390625,0.40155029296875,-0.244140625,0.3662109375,0.0,0.1092529296875,0.00634765625,0.9970703125,-144.0,123.0,-22.0,101944.0,-5.141000270843506,0,0
1965.83002,-0.9141845703125,0.020294189453125,0.0504150390625,0.40155029296875,-0.06103515625,0.30517578125,-0.1220703125,0.1097412109375,0.00439453125,0.9993896484375,-144.0,123.0,-22.0,101944.0,-5.142000198364258,0,0
1965.836999,-0.9141845703125,0.020263671875,0.0504150390625,0.40155029296875,0.1220703125,0.18310546875,0.0,0.1090087890625,0.005615234375,0.998291015625,-144.0,123.0,-22.0,101944.0,-5.142000198364258,0,0
1965.844016,-0.9141845703125,0.020263671875,0.0504150390625,0.40155029296875,0.0,0.244140625,0.06103515625,0.1102294921875,0.00439453125,0.99853515625,-144.0,123.0,-22.0,101944.0,-5.142000198364258,0,0
1965.850998,-0.9141845703125,0.020263671875,0.0504150390625,0.40155029296875,0.0,0.244140625,0.1220703125,0.1070556640625,0.0035400390625,0.9996337890625,-144.0,123.0,-22.0,101944.0,-5.142000198364258,0,0
1965.85703,-0.9141845703125,0.020263671875,0.0504150390625,0.40155029296875,0.0,0.244140625,0.1220703125,0.1070556640625,0.0035400390625,0.9996337890625,-144.0,123.0,-22.0,101944.0,-5.142000198364258,0,0
1965.864018,-0.9141845703125,0.020263671875,0.0504150390625,0.40155029296875,-0.06103515625,0.3662109375,0.06103515625,0.1085205078125,0.0028076171875,0.997314453125,-144.0,123.0,-22.0,101944.0,-5.142000198364258,0,0
1965.870998,-0.9141845703125,0.020263671875,0.0504150390625,0.40155029296875,0.06103515625,0.3662109375,-0.3662109375,0.109130859375,0.0050048828125,0.9990234375,-144.0,123.0,-22.0,101944.0,-5.142000198364258,0,0
1965.877998,-0.9141845703125,0.020263671875,0.0504150390625,0.40155029296875,0.0,0.244140625,0.06103515625,0.1094970703125,0.00634765625,0.99853515625,-144.0,124.0,-22.0,101944.0,-5.142000198364258,0,0
1965.885018,-0.914031982421875,0.020263671875,0.0504150390625,0.40191650390625,-0.18310546875,0.244140625,0.06103515625,0.107666015625,0.0042724609375,0.999267578125,-144.0,124.0,-22.0,101944.0,-5.142000198364258,0,0
1965.892001,-0.914031982421875,0.020263671875,0.0504150390625,0.40191650390625,-0.18310546875,0.244140625,0.06103515625,0.109130859375,0.005859375,0.9970703125,-144.0,124.0,-22.0,101944.0,-5.142000198364258,0,0
1965.899018,-0.914031982421875,0.020263671875,0.050445556640625,0.40191650390625,0.1220703125,0.18310546875,-0.06103515625,0.1104736328125,0.006103515625,0.998779296875,-144.0,124.0,-22.0,101944.0,-5.142000198364258,0,0
1965.905996,-0.914031982421875,0.020263671875,0.050445556640625,0.40191650390625,-0.06103515625,0.06103515625,0.0,0.11083984375,0.00537109375,0.9979248046875,-144.0,124.0,-22.0,101944.0,-5.142000198364258,0,0
1965.913,-0.914031982421875,0.020263671875,0.050445556640625,0.40191650390625,-0.1220703125,0.06103515625,-0.06103515625,0.109130859375,0.004638671875,1.0006103515625,-144.0,124.0,-22.0,101944.0,-5.142000198364258,0,0
1965.92002,-0.914031982421875,0.020263671875,0.050445556640625,0.40191650390625,0.06103515625,0.06103515625,0.06103515625,0.1097412109375,0.00537109375,0.998291015625,-144.0,124.0,-22.0,101944.0,-5.142000198364258,0,0
1965.926999,-0.914031982421875,0.020233154296875,0.050445556640625,0.40191650390625,-0.18310546875,0.18310546875,0.0,0.10791015625,0.0069580078125,0.9996337890625,-144.0,124.0,-22.0,101944.0,-5.14300012588501,0,0
1965.934016,-0.914031982421875,0.020233154296875,0.050445556640625,0.40191650390625,-0.06103515625,0.18310546875,0.0,0.1102294921875,0.0052490234375,0.99951171875,-144.0,124.0,-22.0,101944.0,-5.14300012588501,0,0
1965.940998,-0.914031982421875,0.020233154296875,0.050445556640625,0.40191650390625,-0.06103515625,0.0,-0.06103515625,0.109375,0.004150390625,0.9989013671875,-144.0,124.0,-22.0,101944.0,-5.14300012588501,0,0
1965.960998,-0.914031982421875,0.020233154296875,0.050445556640625,0.40191650390625,-0.1220703125,0.06103515625,0.06103515625,0.107666015625,0.0028076171875,1.000244140625,-144.0,124.0,-22.0,101944.0,-5.14300012588501,0,0
1965.967998,-0.914031982421875,0.020233154296875,0.05047607421875,0.40191650390625,-0.18310546875,0.06103515625,0.06103515625,0.1141357421875,0.0035400390625,1.0,-144.0,124.0,-22.0,101944.0,-5.14300012588501,0,0
1965.975018,-0.914031982421875,0.020233154296875,0.05047607421875,0.40191650390625,0.0,0.18310546875,0.06103515625,0.109375,0.001953125,0.999267578125,-144.0,124.0,-22.0,101944.0,-5.14300012588501,0,0
1965.982001,-0.914031982421875,0.020233154296875,0.05047607421875,0.40191650390625,0.06103515625,0.18310546875,-0.18310546875,0.106201171875,0.0029296875,0.9991455078125,-144.0,123.0,-22.0,101944.0,-5.14300012588501,0,0
1965.989018,-0.91387939453125,0.020233154296875,0.050445556640625,0.40228271484375,-0.06103515625,0.244140625,-0.18310546875,0.107666015625,0.003173828125,0.9964599609375,-144.0,123.0,-22.0,101944.0,-5.14300012588501,0,0
1965.995995,-0.91387939453125,0.020233154296875,0.050445556640625,0.40228271484375,-0.18310546875,0.30517578125,0.0,0.109130859375,0.00341796875,0.998046875,-144.0,123.0,-22.0,101944.0,-5.14300012588501,0,0
1966.002995,-0.91387939453125,0.020233154296875,0.050445556640625,0.40228271484375,0.30517578125,0.18310546875,0.18310546875,0.1085205078125,0.0032958984375,0.9993896484375,-144.0,123.0,-22.0,101944.0,-5.14300012588501,0,0
1966.01002,-0.91387939453125,0.020233154296875,0.050445556640625,0.40228271484375,0.06103515625,0.3662109375,0.18310546875,0.108154296875,0.0028076171875,0.9996337890625,-144.0,123.0,-22.0,101944.0,-5.14300012588501,0,0
1966.016999,-0.91387939453125,0.020233154296875,0.050445556640625,0.40228271484375,0.06103515625,0.30517578125,-0.06103515625,0.109130859375,0.003662109375,0.9970703125,-144.0,123.0,-22.0,101944.0,-5.14300012588501,0,0
1966.024016,-0.91387939453125,0.020233154296875,0.050445556640625,0.40228271484375,0.18310546875,0.30517578125,0.30517578125,0.1083984375,0.0018310546875,0.9970703125,-144.0,123.0,-22.0,101944.0,-5.14300012588501,0,0
1966.030998,-0.91387939453125,0.020233154296875,0.050445556640625,0.40228271484375,0.1220703125,0.3662109375,-0.1220703125,0.1082763671875,0.0035400390625,0.998046875,-144.0,123.0,-22.0,101944.0,-5.14300012588501,0,0
1966.050998,-0.91387939453125,0.020233154296875,0.05047607421875,0.40228271484375,-0.18310546875,0.18310546875,-0.1220703125,0.109130859375,0.0069580078125,0.9998779296875,-144.0,123.0,-22.0,101944.0,-5.14300012588501,0,0
1966.057997,-0.91387939453125,0.02020263671875,0.05047607421875,0.40228271484375,0.0,0.244140625,0.0,0.107421875,0.0057373046875,1.0,-144.0,123.0,-22.0,101944.0,-5.14300012588501,0,0
1966.065018,-0.91387939453125,0.02020263671875,0.05047607421875,0.40228271484375,0.0,0.30517578125,0.06103515625,0.1092529296875,0.00341796875,0.99853515625,-144.0,123.0,-22.0,101944.0,-5.14300012588501,0,0
1966.072001,-0.91387939453125,0.02020263671875,0.05047607421875,0.40228271484375,0.0,0.1220703125,0.06103515625,0.1102294921875,0.00439453125,0.998291015625,-144.0,123.0,-22.0,101944.0,-5.14300012588501,0,0
1966.079018,-0.91387939453125,0.02020263671875,0.05047607421875,0.40228271484375,0.0,0.48828125,-0.06103515625,0.108642578125,0.00439453125,0.9984130859375,-144.0,122.0,-22.0,101944.0,-5.14300012588501,0,0
1966.085995,-0.913665771484375,0.020233154296875,0.05047607421875,0.40277099609375,0.06103515625,0.244140625,0.0,0.107666015625,0.0048828125,0.9990234375,-144.0,122.0,-22.0,101944.0,-5.14300012588501,0,0
1966.092996,-0.913665771484375,0.020233154296875,0.05047607421875,0.40277099609375,-0.06103515625,0.18310546875,0.0,0.108642578125,0.0040283203125,0.99853515625,-144.0,122.0,-22.0,101944.0,-5.14300012588501,0,0
1966.10002,-0.913665771484375,0.020233154296875,0.05047607421875,0.40277099609375,0.1220703125,0.18310546875,-0.06103515625,0.1107177734375,0.0040283203125,1.0018310546875,-144.0,122.0,-22.0,101944.0,-5.14300012588501,0,0
1966.106999,-0.913665771484375,0.020233154296875,0.05047607421875,0.40277099609375,-0.18310546875,0.18310546875,0.06103515625,0.112060546875,0.002685546875,0.9991455078125,-144.0,122.0,-22.0,101944.0,-5.14300012588501,0,0
1966.114016,-0.913665771484375,0.020233154296875,0.05047607421875,0.40277099609375,0.0,0.30517578125,0.0,0.1107177734375,0.005126953125,0.9996337890625,-144.0,122.0,-22.0,101944.0,-5.14300012588501,0,0
1966.120997,-0.913665771484375,0.020233154296875,0.050506591796875,0.40277099609375,0.1220703125,0.244140625,0.18310546875,0.1112060546875,0.002685546875,0.9993896484375,-144.0,122.0,-22.0,101944.0,-5.14300012588501,0,0
1966.127997,-0.913665771484375,0.020233154296875,0.050506591796875,0.40277099609375,0.1220703125,0.3662109375,0.0,0.109375,0.00537109375,0.9998779296875,-144.0,122.0,-22.0,101944.0,-5.142000198364258,0,0
1966.134025,-0.913665771484375,0.020233154296875,0.050506591796875,0.40277099609375,0.1220703125,0.3662109375,0.0,0.109375,0.00537109375,0.9998779296875,-144.0,122.0,-22.0,101944.0,-5.142000198364258,0,0
1966.140998,-0.913665771484375,0.020233154296875,0.050506591796875,0.40277099609375,0.0,0.1220703125,-0.18310546875,0.1103515625,0.0042724609375,0.99951171875,-144.0,122.0,-22.0,101944.0,-5.142000198364258,0,0
1966.147997,-0.913665771484375,0.02020263671875,0.050506591796875,0.40277099609375,0.06103515625,0.244140625,-0.06103515625,0.107666015625,0.0040283203125,0.9984130859375,-144.0,122.0,-22.0,101944.0,-5.142000198364258,0,0
1966.155018,-0.913665771484375,0.02020263671875,0.050506591796875,0.40277099609375,-0.244140625,0.18310546875,-0.18310546875,0.1080322265625,0.003662109375,0.9981689453125,-144.0,122.0,-22.0,101944.0,-5.142000198364258,0,0
1966.162001,-0.913665771484375,0.02020263671875,0.050506591796875,0.40277099609375,-0.1220703125,0.3662109375,-0.06103515625,0.110595703125,0.003662109375,0.998046875,-144.0,122.0,-22.0,101944.0,-5.142000198364258,0,0
1966.169018,-0.913665771484375,0.02020263671875,0.050506591796875,0.40277099609375,-0.06103515625,0.18310546875,-0.1220703125,0.1107177734375,0.004150390625,0.99951171875,-144.0,122.0,-22.0,101944.0,-5.142000198364258,0,0
1966.175996,-0.913665771484375,0.02020263671875,0.050506591796875,0.40277099609375,0.244140625,0.42724609375,0.06103515625,0.1087646484375,0.0025634765625,0.998046875,-144.0,122.0,-22.0,101944.0,-5.142000198364258,0,0
1966.183,-0.913665771484375,0.02020263671875,0.050506591796875,0.40277099609375,0.06103515625,0.3662109375,0.1220703125,0.1094970703125,0.0025634765625,0.99951171875,-144.0,122.0,-23.0,101944.0,-5.142000198364258,0,0
1966.19002,-0.913482666015625,0.020233154296875,0.050506591796875,0.40313720703125,-0.1220703125,0.30517578125,-0.1220703125,0.1085205078125,0.0050048828125,0.997802734375,-144.0,122.0,-23.0,101944.0,-5.142000198364258,0,0
1966.196999,-0.913482666015625,0.020233154296875,0.050506591796875,0.40313720703125,-0.244140625,0.42724609375,-0.1220703125,0.111083984375,0.002197265625,0.9984130859375,-144.0,122.0,-23.0,101944.0,-5.142000198364258,0,0
1966.204016,-0.913482666015625,0.020233154296875,0.050506591796875,0.40313720703125,-0.06103515625,0.30517578125,-0.06103515625,0.1077880859375,0.002197265625,0.99853515625,-144.0,122.0,-23.0,101944.0,-5.142000198364258,0,0
1966.22403,-0.913482666015625,0.020263671875,0.050506591796875,0.40313720703125,-0.06103515625,0.3662109375,-0.06103515625,0.10888671875,0.00390625,1.0009765625,-144.0,122.0,-23.0,101944.0,-5.142000198364258,0,0
1966.230998,-0.913482666015625,0.020263671875,0.050506591796875,0.40313720703125,0.18310546875,0.42724609375,0.06103515625,0.10986328125,0.005126953125,0.9991455078125,-144.0,122.0,-23.0,101944.0,-5.141000270843506,0,0
1966.237998,-0.913482666015625,0.020263671875,0.050506591796875,0.40313720703125,-0.06103515625,0.18310546875,-0.1220703125,0.1092529296875,0.0057373046875,0.9976806640625,-144.0,122.0,-23.0,101944.0,-5.141000270843506,0,0
1966.245018,-0.913482666015625,0.020263671875,0.050506591796875,0.40313720703125,0.18310546875,0.244140625,-0.06103515625,0.1104736328125,0.0048828125,0.9984130859375,-144.0,122.0,-23.0,101944.0,-5.141000270843506,0,0
1966.252001,-0.913482666015625,0.020263671875,0.050506591796875,0.40313720703125,-0.18310546875,0.1220703125,0.18310546875,0.107177734375,0.002197265625,0.99755859375,-144.0,122.0,-23.0,101944.0,-5.141000270843506,0,0
1966.259018,-0.913482666015625,0.020263671875,0.050537109375,0.40313720703125,0.0,0.244140625,-0.06103515625,0.10986328125,0.00390625,0.997314453125,-144.0,122.0,-23.0,101944.0,-5.141000270843506,0,0
1966.265996,-0.913482666015625,0.020263671875,0.050506591796875,0.40313720703125,0.1220703125,0.3662109375,0.0,0.1075439453125,0.0013427734375,0.9986572265625,-144.0,122.0,-23.0,101944.0,-5.141000270843506,0,0
1966.273,-0.913482666015625,0.020263671875,0.050506591796875,0.40313720703125,-0.1220703125,0.1220703125,-0.06103515625,0.1090087890625,0.0029296875,0.9976806640625,-144.0,122.0,-23.0,101944.0,-5.141000270843506,0,0
1966.28002,-0.91326904296875,0.020263671875,0.050506591796875,0.40362548828125,-0.1220703125,0.1220703125,-0.06103515625,0.1090087890625,0.0029296875,0.9976806640625,-145.0,123.0,-22.0,101944.0,-5.141000270843506,0,0
1966.286999,-0.91326904296875,0.020263671875,0.050506591796875,0.40362548828125,0.48828125,0.0,0.0,0.1068115234375,0.0052490234375,0.9969482421875,-145.0,123.0,-22.0,101944.0,-5.141000270843506,0,0
1966.294016,-0.91326904296875,0.020263671875,0.050506591796875,0.40362548828125,-0.18310546875,0.30517578125,-0.18310546875,0.108154296875,0.001708984375,0.996826171875,-145.0,123.0,-22.0,101944.0,-5.141000270843506,0,0
1966.315022,-0.91326904296875,0.020263671875,0.050506591796875,0.40362548828125,0.0,0.18310546875,-0.06103515625,0.1126708984375,0.00634765625,0.997802734375,-145.0,123.0,-22.0,101944.0,-5.141000270843506,0,0
1966.32105,-0.91326904296875,0.020263671875,0.050506591796875,0.40362548828125,0.0,0.18310546875,-0.06103515625,0.1126708984375,0.00634765625,0.997802734375,-145.0,123.0,-22.0,101944.0,-5.141000270843506,0,0
1966.327997,-0.91326904296875,0.020263671875,0.050506591796875,0.40362548828125,-0.1220703125,0.244140625,-0.244140625,0.1102294921875,0.005859375,1.00048828125,-145.0,123.0,-22.0,101944.0,-5.142000198364258,0,0
1966.335018,-0.91326904296875,0.020263671875,0.050506591796875,0.40362548828125,0.244140625,0.18310546875,-0.244140625,0.1085205078125,0.0040283203125,0.9989013671875,-145.0,123.0,-22.0,101944.0,-5.142000198364258,0,0
1966.342001,-0.91326904296875,0.020263671875,0.050506591796875,0.40362548828125,0.06103515625,0.244140625,0.1220703125,0.111083984375,0.004638671875,0.99951171875,-145.0,123.0,-22.0,101944.0,-5.142000198364258,0,0
1966.349018,-0.91326904296875,0.020263671875,0.050537109375,0.40362548828125,0.06103515625,0.30517578125,-0.06103515625,0.111572265625,0.004150390625,0.9981689453125,-145.0,123.0,-22.0,101944.0,-5.142000198364258,0,0
1966.355995,-0.91326904296875,0.020263671875,0.050537109375,0.40362548828125,0.244140625,0.18310546875,0.1220703125,0.11083984375,0.0054931640625,0.99853515625,-145.0,123.0,-22.0,101944.0,-5.142000198364258,0,0
1966.362995,-0.91326904296875,0.020263671875,0.050537109375,0.40362548828125,0.06103515625,0.30517578125,0.1220703125,0.1103515625,0.003173828125,0.99755859375,-145.0,123.0,-22.0,101944.0,-5.142000198364258,0,0
1966.37002,-0.91326904296875,0.020263671875,0.050537109375,0.40362548828125,-0.18310546875,0.30517578125,0.06103515625,0.1092529296875,0.0032958984375,0.99951171875,-145.0,123.0,-22.0,101944.0,-5.142000198364258,0,0
1966.376999,-0.91326904296875,0.020263671875,0.050537109375,0.40362548828125,0.06103515625,0.06103515625,-0.06103515625,0.1097412109375,0.005615234375,0.9996337890625,-145.0,123.0,-22.0,101944.0,-5.142000198364258,0,0
1966.384016,-0.913116455078125,0.020263671875,0.050506591796875,0.40399169921875,0.1220703125,0.18310546875,0.1220703125,0.106689453125,0.0030517578125,0.9974365234375,-144.0,123.0,-23.0,101944.0,-5.142000198364258,0,0
1966.390998,-0.913116455078125,0.020263671875,0.050506591796875,0.40399169921875,0.0,0.18310546875,0.1220703125,0.1094970703125,0.0023193359375,0.99853515625,-144.0,123.0,-23.0,101944.0,-5.142000198364258,0,0
1966.397997,-0.913116455078125,0.020263671875,0.050506591796875,0.40399169921875,0.0,0.18310546875,0.06103515625,0.10888671875,0.0047607421875,0.999267578125,-144.0,123.0,-23.0,101944.0,-5.142000198364258,0,0
1966.405022,-0.913116455078125,0.020263671875,0.050506591796875,0.40399169921875,0.1220703125,0.18310546875,-0.18310546875,0.109375,0.0042724609375,0.9971923828125,-144.0,123.0,-23.0,101944.0,-5.142000198364258,0,0
1966.41105,-0.913116455078125,0.020263671875,0.050506591796875,0.40399169921875,0.1220703125,0.18310546875,-0.18310546875,0.109375,0.0042724609375,0.9971923828125,-144.0,123.0,-23.0,101944.0,-5.142000198364258,0,0
1966.417998,-0.913116455078125,0.020263671875,0.050537109375,0.40399169921875,-0.18310546875,0.244140625,0.06103515625,0.10986328125,0.0050048828125,0.9979248046875,-144.0,123.0,-23.0,101944.0,-5.142000198364258,0,0
1966.425018,-0.913116455078125,0.020263671875,0.050537109375,0.40399169921875,-0.06103515625,0.30517578125,0.244140625,0.108642578125,0.003173828125,0.999267578125,-144.0,123.0,-23.0,101944.0,-5.141000270843506,0,0
1966.432001,-0.913116455078125,0.020263671875,0.050537109375,0.40399169921875,-0.18310546875,0.1220703125,0.06103515625,0.1103515625,0.004150390625,0.99755859375,-144.0,123.0,-23.0,101944.0,-5.141000270843506,0,0
1966.439018,-0.913116455078125,0.020263671875,0.050537109375,0.40399169921875,-0.244140625,0.18310546875,-0.1220703125,0.1102294921875,0.003662109375,0.9974365234375,-144.0,123.0,-23.0,101944.0,-5.141000270843506,0,0
1966.445995,-0.913116455078125,0.020263671875,0.050567626953125,0.40399169921875,0.0,0.18310546875,-0.18310546875,0.10986328125,0.005615234375,0.997802734375,-144.0,123.0,-23.0,101944.0,-5.141000270843506,0,0
1966.452995,-0.913116455078125,0.020263671875,0.050567626953125,0.40399169921875,0.1220703125,0.1220703125,0.1220703125,0.110107421875,0.0028076171875,0.9970703125,-144.0,123.0,-23.0,101944.0,-5.141000270843506,0,0
1966.46002,-0.913116455078125,0.020263671875,0.050567626953125,0.40399169921875,-0.1220703125,0.244140625,-0.18310546875,0.1087646484375,0.0040283203125,0.998291015625,-144.0,123.0,-23.0,101944.0,-5.141000270843506,0,0
1966.466999,-0.913116455078125,0.020263671875,0.050567626953125,0.40399169921875,-0.1220703125,0.48828125,-0.18310546875,0.110595703125,0.0030517578125,0.9993896484375,-144.0,123.0,-23.0,101944.0,-5.141000270843506,0,0
1966.487997,-0.91290283203125,0.020294189453125,0.050567626953125,0.40447998046875,-0.06103515625,0.1220703125,-0.06103515625,0.1114501953125,0.0029296875,0.997802734375,-145.0,122.0,-23.0,101944.0,-5.141000270843506,0,0
1966.495022,-0.91290283203125,0.020294189453125,0.050567626953125,0.40447998046875,-0.18310546875,0.18310546875,-0.1220703125,0.1092529296875,0.0045166015625,0.998046875,-145.0,122.0,-23.0,101944.0,-5.141000270843506,0,0
1966.502001,-0.91290283203125,0.020294189453125,0.050567626953125,0.40447998046875,-0.18310546875,0.1220703125,-0.06103515625,0.1083984375,0.0052490234375,0.99755859375,-145.0,122.0,-23.0,101944.0,-5.141000270843506,0,0
1966.508034,-0.91290283203125,0.020294189453125,0.050567626953125,0.40447998046875,-0.18310546875,0.1220703125,-0.06103515625,0.1083984375,0.0052490234375,0.99755859375,-145.0,122.0,-23.0,101944.0,-5.141000270843506,0,0
1966.515018,-0.91290283203125,0.020294189453125,0.050567626953125,0.40447998046875,0.06103515625,0.06103515625,-0.06103515625,0.1114501953125,0.005126953125,0.996826171875,-145.0,122.0,-23.0,101944.0,-5.141000270843506,0,0
1966.522001,-0.91290283203125,0.020294189453125,0.050567626953125,0.40447998046875,0.06103515625,0.18310546875,0.06103515625,0.1080322265625,0.0040283203125,0.9981689453125,-145.0,122.0,-23.0,101944.0,-5.141000270843506,0,0
1966.529018,-0.91290283203125,0.020263671875,0.050567626953125,0.40447998046875,-0.06103515625,0.244140625,-0.30517578125,0.1072998046875,0.003662109375,0.9976806640625,-145.0,122.0,-23.0,101944.0,-5.141000270843506,0,0
1966.535996,-0.91290283203125,0.020263671875,0.050567626953125,0.40447998046875,0.06103515625,0.18310546875,0.06103515625,0.1085205078125,0.00244140625,0.9990234375,-145.0,122.0,-23.0,101944.0,-5.141000270843506,0,0
1966.543,-0.91290283203125,0.020263671875,0.050567626953125,0.40447998046875,-0.244140625,0.244140625,0.0,0.109375,0.004638671875,0.9964599609375,-145.0,122.0,-23.0,101944.0,-5.141000270843506,0,0
1966.55002,-0.91290283203125,0.020263671875,0.050537109375,0.40447998046875,0.06103515625,0.30517578125,-0.06103515625,0.1070556640625,0.0006103515625,0.998779296875,-145.0,122.0,-23.0,101944.0,-5.141000270843506,0,0
1966.570998,-0.91290283203125,0.020263671875,0.050567626953125,0.40447998046875,0.0,0.3662109375,0.30517578125,0.1112060546875,0.004638671875,0.997802734375,-145.0,122.0,-23.0,101944.0,-5.141000270843506,0,0
1966.577997,-0.91290283203125,0.020263671875,0.050567626953125,0.40447998046875,-0.06103515625,0.244140625,0.0,0.108154296875,0.0042724609375,0.9993896484375,-144.0,122.0,-25.0,101944.0,-5.141000270843506,0,0
1966.585022,-0.9127197265625,0.020294189453125,0.050567626953125,0.40484619140625,-0.1220703125,0.3662109375,0.0,0.1083984375,0.005126953125,0.9976806640625,-144.0,122.0,-25.0,101944.0,-5.141000270843506,0,0
1966.592001,-0.9127197265625,0.020294189453125,0.050567626953125,0.40484619140625,-0.18310546875,0.18310546875,0.06103515625,0.1094970703125,0.004150390625,0.99755859375,-144.0,122.0,-25.0,101944.0,-5.141000270843506,0,0
1966.598029,-0.9127197265625,0.020294189453125,0.050567626953125,0.40484619140625,-0.18310546875,0.18310546875,0.06103515625,0.1094970703125,0.004150390625,0.99755859375,-144.0,122.0,-25.0,101944.0,-5.141000270843506,0,0
1966.605018,-0.9127197265625,0.020294189453125,0.050567626953125,0.40484619140625,0.06103515625,0.18310546875,-0.18310546875,0.1094970703125,0.0054931640625,0.998046875,-144.0,122.0,-25.0,101944.0,-5.141000270843506,0,0
1966.612001,-0.9127197265625,0.020294189453125,0.050567626953125,0.40484619140625,0.0,0.1220703125,-0.18310546875,0.108154296875,0.0037841796875,0.99853515625,-144.0,122.0,-25.0,101944.0,-5.141000270843506,0,0
1966.619018,-0.9127197265625,0.020294189453125,0.050567626953125,0.40484619140625,0.0,0.67138671875,0.0,0.1077880859375,0.0040283203125,0.99951171875,-144.0,122.0,-25.0,101944.0,-5.141000270843506,0,0
1966.625995,-0.9127197265625,0.020294189453125,0.050567626953125,0.40484619140625,0.06103515625,0.244140625,0.06103515625,0.1099853515625,0.004638671875,0.9986572265625,-144.0,122.0,-25.0,101944.0,-5.141000270843506,0,0
1966.632995,-0.9127197265625,0.020263671875,0.050567626953125,0.40484619140625,-0.18310546875,0.30517578125,0.1220703125,0.108154296875,0.0047607421875,0.9991455078125,-144.0,122.0,-25.0,101944.0,-5.141000270843506,0,0
1966.64002,-0.9127197265625,0.020263671875,0.050537109375,0.40484619140625,-0.06103515625,0.54931640625,-0.06103515625,0.109130859375,0.0037841796875,0.9993896484375,-144.0,122.0,-25.0,101944.0,-5.141000270843506,0,0
1966.646999,-0.9127197265625,0.020263671875,0.050567626953125,0.40484619140625,-0.1220703125,0.3662109375,0.0,0.109130859375,0.005615234375,0.997802734375,-144.0,122.0,-25.0,101944.0,-5.141000270843506,0,0
1966.654016,-0.9127197265625,0.020263671875,0.050567626953125,0.40484619140625,0.06103515625,0.48828125,0.30517578125,0.108642578125,0.0042724609375,0.9969482421875,-144.0,122.0,-25.0,101944.0,-5.141000270843506,0,0
1966.660997,-0.9127197265625,0.020263671875,0.050537109375,0.40484619140625,-0.18310546875,0.3662109375,0.0,0.1080322265625,0.00244140625,0.998046875,-144.0,122.0,-25.0,101944.0,-5.141000270843506,0,0
1966.667997,-0.9127197265625,0.020263671875,0.050537109375,0.40484619140625,-0.1220703125,0.18310546875,0.1220703125,0.1082763671875,0.004150390625,0.998046875,-144.0,122.0,-25.0,101944.0,-5.141000270843506,0,0
1966.675022,-0.9127197265625,0.020263671875,0.050537109375,0.40484619140625,0.0,0.6103515625,0.1220703125,0.107421875,0.0054931640625,0.9967041015625,-144.0,122.0,-25.0,101944.0,-5.141000270843506,0,0
1966.682001,-0.912628173828125,0.020263671875,0.050537109375,0.40509033203125,0.0,0.244140625,0.0,0.109130859375,0.0042724609375,0.9990234375,-143.0,122.0,-25.0,101944.0,-5.141000270843506,0,0
1966.689015,-0.912628173828125,0.020263671875,0.050537109375,0.40509033203125,-0.06103515625,0.54931640625,0.244140625,0.1082763671875,0.0052490234375,0.998291015625,-143.0,122.0,-25.0,101944.0,-5.141000270843506,0,0
1966.695048,-0.912628173828125,0.020263671875,0.050537109375,0.40509033203125,-0.06103515625,0.54931640625,0.244140625,0.1082763671875,0.0052490234375,0.998291015625,-143.0,122.0,-25.0,101944.0,-5.141000270843506,0,0
1966.702001,-0.912628173828125,0.020263671875,0.050537109375,0.40509033203125,-0.18310546875,0.30517578125,0.0,0.1099853515625,0.004150390625,0.99755859375,-143.0,122.0,-25.0,101944.0,-5.141000270843506,0,0
1966.709018,-0.912628173828125,0.020263671875,0.050537109375,0.40509033203125,-0.18310546875,0.30517578125,-0.1220703125,0.1087646484375,0.004638671875,0.9984130859375,-143.0,122.0,-25.0,101944.0,-5.141000270843506,0,0
1966.715995,-0.912628173828125,0.020263671875,0.050537109375,0.40509033203125,0.0,0.1220703125,0.0,0.1080322265625,0.0028076171875,0.9974365234375,-143.0,122.0,-25.0,101944.0,-5.141000270843506,0,0
1966.722996,-0.912628173828125,0.020294189453125,0.050537109375,0.40509033203125,0.0,0.0,-0.1220703125,0.108642578125,0.0020751953125,0.996826171875,-143.0,122.0,-25.0,101944.0,-5.141000270843506,0,0
1966.744016,-0.912628173828125,0.020294189453125,0.050537109375,0.40509033203125,0.1220703125,0.244140625,-0.06103515625,0.1097412109375,0.0020751953125,0.9979248046875,-143.0,122.0,-25.0,101944.0,-5.141000270843506,0,0
1966.750997,-0.912628173828125,0.020294189453125,0.050537109375,0.40509033203125,0.1220703125,0.48828125,-0.244140625,0.1104736328125,0.0018310546875,0.9984130859375,-143.0,122.0,-25.0,101944.0,-5.141000270843506,0,0
1966.757997,-0.912628173828125,0.020294189453125,0.050537109375,0.40509033203125,0.0,0.244140625,0.0,0.1097412109375,0.0030517578125,0.9998779296875,-143.0,122.0,-25.0,101944.0,-5.141000270843506,0,0
1966.765022,-0.912628173828125,0.020294189453125,0.050537109375,0.40509033203125,-0.18310546875,0.244140625,-0.1220703125,0.108154296875,0.0048828125,0.9989013671875,-143.0,122.0,-25.0,101944.0,-5.141000270843506,0,0
1966.772001,-0.912628173828125,0.020294189453125,0.050506591796875,0.40509033203125,-0.1220703125,0.1220703125,0.06103515625,0.1072998046875,0.0040283203125,0.9981689453125,-143.0,122.0,-25.0,101944.0,-5.141000270843506,0,0
1966.779015,-0.912628173828125,0.020294189453125,0.050537109375,0.40509033203125,0.1220703125,0.244140625,0.244140625,0.11181640625,0.0032958984375,0.9971923828125,-142.0,124.0,-24.0,101944.0,-5.14300012588501,0,0
1966.785048,-0.912628173828125,0.020294189453125,0.050537109375,0.40509033203125,0.1220703125,0.244140625,0.244140625,0.11181640625,0.0032958984375,0.9971923828125,-142.0,124.0,-24.0,101944.0,-5.14300012588501,0,0
1966.792001,-0.912689208984375,0.020294189453125,0.050537109375,0.40496826171875,0.06103515625,0.18310546875,-0.06103515625,0.110107421875,0.0045166015625,0.9981689453125,-142.0,124.0,-24.0,101944.0,-5.14300012588501,0,0
1966.799018,-0.912689208984375,0.020294189453125,0.050537109375,0.40496826171875,-0.06103515625,0.244140625,0.06103515625,0.109375,0.005126953125,0.998291015625,-142.0,124.0,-24.0,101944.0,-5.14300012588501,0,0
1966.805996,-0.912689208984375,0.020294189453125,0.050537109375,0.40496826171875,0.0,0.244140625,-0.06103515625,0.1094970703125,0.0050048828125,0.998779296875,-142.0,124.0,-24.0,101944.0,-5.14300012588501,0,0
1966.813,-0.912689208984375,0.020294189453125,0.050567626953125,0.40496826171875,0.06103515625,0.30517578125,-0.18310546875,0.110595703125,0.005126953125,0.9984130859375,-142.0,124.0,-24.0,101944.0,-5.14300012588501,0,0
1966.834016,-0.912689208984375,0.020263671875,0.050567626953125,0.40496826171875,0.18310546875,0.06103515625,0.1220703125,0.1104736328125,0.00439453125,0.9976806640625,-142.0,124.0,-24.0,101944.0,-5.14300012588501,0,0
1966.840998,-0.912689208984375,0.020263671875,0.050567626953125,0.40496826171875,-0.244140625,0.30517578125,0.1220703125,0.1090087890625,0.0042724609375,0.997802734375,-142.0,124.0,-24.0,101944.0,-5.14300012588501,0,0
1966.847997,-0.912689208984375,0.020294189453125,0.050567626953125,0.40496826171875,0.1220703125,0.244140625,0.18310546875,0.109130859375,0.003173828125,0.9969482421875,-142.0,124.0,-24.0,101944.0,-5.14300012588501,0,0
1966.855022,-0.912689208984375,0.020263671875,0.050567626953125,0.40496826171875,0.0,0.18310546875,-0.06103515625,0.109619140625,0.003662109375,0.9984130859375,-142.0,124.0,-24.0,101944.0,-5.14300012588501,0,0
1966.862001,-0.912689208984375,0.020263671875,0.050567626953125,0.40496826171875,-0.18310546875,0.3662109375,-0.06103515625,0.1085205078125,0.006103515625,0.997802734375,-142.0,124.0,-24.0,101944.0,-5.14300012588501,0,0
1966.869015,-0.912689208984375,0.020263671875,0.050567626953125,0.40496826171875,-0.06103515625,0.06103515625,-0.1220703125,0.1065673828125,0.00634765625,0.998291015625,-142.0,124.0,-24.0,101944.0,-5.14300012588501,0,0
1966.875996,-0.912689208984375,0.020263671875,0.050567626953125,0.40496826171875,0.06103515625,0.1220703125,0.18310546875,0.1058349609375,0.0048828125,0.99853515625,-142.0,124.0,-23.0,101944.0,-5.14300012588501,0,0
1966.882028,-0.912689208984375,0.020263671875,0.050567626953125,0.40496826171875,0.06103515625,0.1220703125,0.18310546875,0.1058349609375,0.0048828125,0.99853515625,-142.0,124.0,-23.0,101944.0,-5.14300012588501,0,0
1966.889019,-0.9127197265625,0.020233154296875,0.050567626953125,0.40484619140625,0.18310546875,0.244140625,0.1220703125,0.1083984375,0.005126953125,0.9986572265625,-142.0,124.0,-23.0,101944.0,-5.14300012588501,0,0
1966.895995,-0.9127197265625,0.020233154296875,0.050567626953125,0.40484619140625,0.18310546875,0.48828125,0.18310546875,0.109130859375,0.0048828125,0.9993896484375,-142.0,124.0,-23.0,101944.0,-5.14300012588501,0,0
1966.902995,-0.9127197265625,0.020233154296875,0.050567626953125,0.40484619140625,0.0,0.30517578125,-0.1220703125,0.1077880859375,0.00390625,0.99951171875,-142.0,124.0,-23.0,101944.0,-5.14300012588501,0,0
1966.91002,-0.9127197265625,0.020233154296875,0.050567626953125,0.40484619140625,0.06103515625,0.3662109375,-0.06103515625,0.107177734375,0.0045166015625,0.998046875,-142.0,124.0,-23.0,101944.0,-5.14300012588501,0,0
1966.916999,-0.9127197265625,0.020233154296875,0.050567626953125,0.40484619140625,0.18310546875,0.244140625,0.3662109375,0.10791015625,0.0037841796875,0.99853515625,-142.0,124.0,-23.0,101944.0,-5.14300012588501,0,0
1966.924016,-0.9127197265625,0.020233154296875,0.050567626953125,0.40484619140625,-0.18310546875,0.18310546875,-0.1220703125,0.109130859375,0.0047607421875,0.997314453125,-142.0,124.0,-23.0,101944.0,-5.14300012588501,0,0
1966.930998,-0.9127197265625,0.020233154296875,0.050567626953125,0.40484619140625,-0.244140625,0.1220703125,0.0,0.1102294921875,0.0057373046875,0.9989013671875,-142.0,124.0,-23.0,101944.0,-5.14300012588501,0,0
1966.937997,-0.9127197265625,0.020233154296875,0.050537109375,0.40484619140625,0.0,0.0,0.18310546875,0.106689453125,0.0045166015625,0.9976806640625,-142.0,124.0,-23.0,101944.0,-5.14300012588501,0,0
1966.945022,-0.9127197265625,0.020233154296875,0.050537109375,0.40484619140625,-0.06103515625,0.30517578125,0.06103515625,0.109130859375,0.003173828125,0.9989013671875,-142.0,124.0,-23.0,101944.0,-5.14300012588501,0,0
1966.952001,-0.9127197265625,0.020233154296875,0.050537109375,0.40484619140625,0.18310546875,0.30517578125,-0.06103515625,0.107666015625,0.0042724609375,0.9974365234375,-142.0,124.0,-23.0,101944.0,-5.14300012588501,0,0
1966.959015,-0.9127197265625,0.020233154296875,0.050537109375,0.40484619140625,0.1220703125,0.244140625,-0.1220703125,0.108642578125,0.003662109375,0.99755859375,-142.0,124.0,-23.0,101944.0,-5.14300012588501,0,0
1966.965995,-0.9127197265625,0.020233154296875,0.050537109375,0.40484619140625,0.18310546875,0.30517578125,-0.1220703125,0.109619140625,0.0040283203125,0.999267578125,-142.0,124.0,-23.0,101944.0,-5.14300012588501,0,0
1966.972027,-0.9127197265625,0.020233154296875,0.050537109375,0.40484619140625,0.18310546875,0.30517578125,-0.1220703125,0.109619140625,0.0040283203125,0.999267578125,-142.0,124.0,-23.0,101944.0,-5.14300012588501,0,0
1966.979019,-0.91278076171875,0.020233154296875,0.050567626953125,0.40472412109375,-0.244140625,0.30517578125,0.1220703125,0.1099853515625,0.0032958984375,0.9984130859375,-141.0,124.0,-24.0,101944.0,-5.142000198364258,0,0
1966.985995,-0.91278076171875,0.020233154296875,0.050567626953125,0.40472412109375,-0.244140625,0.42724609375,-0.18310546875,0.1087646484375,0.0054931640625,0.9990234375,-141.0,124.0,-24.0,101944.0,-5.142000198364258,0,0
1967.006999,-0.91278076171875,0.02020263671875,0.050567626953125,0.40472412109375,0.0,0.244140625,0.1220703125,0.10986328125,0.004150390625,0.998046875,-141.0,124.0,-24.0,101944.0,-5.142000198364258,0,0
1967.014016,-0.91278076171875,0.02020263671875,0.050567626953125,0.40472412109375,0.0,0.244140625,0.1220703125,0.1107177734375,0.00341796875,0.9971923828125,-141.0,124.0,-24.0,101944.0,-5.142000198364258,0,0
1967.020997,-0.91278076171875,0.02020263671875,0.050567626953125,0.40472412109375,0.0,0.244140625,0.0,0.110595703125,0.0032958984375,0.9970703125,-141.0,124.0,-24.0,101944.0,-5.142000198364258,0,0
1967.027997,-0.91278076171875,0.02020263671875,0.050567626953125,0.40472412109375,0.1220703125,0.30517578125,-0.06103515625,0.1092529296875,0.003173828125,0.9993896484375,-141.0,124.0,-24.0,101944.0,-5.142000198364258,0,0
1967.035022,-0.91278076171875,0.02020263671875,0.050567626953125,0.40472412109375,-0.06103515625,0.42724609375,-0.06103515625,0.108642578125,0.003173828125,0.9981689453125,-141.0,124.0,-24.0,101944.0,-5.142000198364258,0,0
1967.042001,-0.91278076171875,0.02020263671875,0.050567626953125,0.40472412109375,0.1220703125,0.48828125,0.06103515625,0.1090087890625,0.004150390625,0.999267578125,-141.0,124.0,-24.0,101944.0,-5.142000198364258,0,0
1967.049015,-0.91278076171875,0.02020263671875,0.050567626953125,0.40472412109375,-0.244140625,0.06103515625,0.244140625,0.1077880859375,0.00390625,0.998046875,-141.0,124.0,-24.0,101944.0,-5.142000198364258,0,0
1967.055995,-0.91278076171875,0.02020263671875,0.050537109375,0.40472412109375,-0.1220703125,0.30517578125,0.30517578125,0.107177734375,0.002685546875,0.9981689453125,-141.0,124.0,-24.0,101944.0,-5.142000198364258,0,0
1967.062995,-0.91278076171875,0.02020263671875,0.050567626953125,0.40472412109375,0.0,0.244140625,-0.1220703125,0.1107177734375,0.0037841796875,0.9991455078125,-141.0,124.0,-24.0,101944.0,-5.142000198364258,0,0
1967.069027,-0.91278076171875,0.02020263671875,0.050567626953125,0.40472412109375,0.0,0.244140625,-0.1220703125,0.1107177734375,0.0037841796875,0.9991455078125,-141.0,124.0,-24.0,101944.0,-5.142000198364258,0,0
1967.075996,-0.91278076171875,0.02020263671875,0.050567626953125,0.40472412109375,0.06103515625,0.6103515625,-0.18310546875,0.1109619140625,0.0035400390625,1.000244140625,-141.0,124.0,-24.0,101944.0,-5.142000198364258,0,0
1967.096999,-0.912841796875,0.02020263671875,0.050567626953125,0.40460205078125,-0.06103515625,0.42724609375,0.30517578125,0.10791015625,0.0030517578125,0.9967041015625,-141.0,124.0,-23.0,101944.0,-5.142000198364258,0,0
1967.104016,-0.912841796875,0.02020263671875,0.050567626953125,0.40460205078125,0.1220703125,0.06103515625,0.0,0.108154296875,0.0054931640625,0.99853515625,-141.0,124.0,-23.0,101944.0,-5.142000198364258,0,0
1967.110998,-0.912841796875,0.02020263671875,0.050567626953125,0.40460205078125,-0.1220703125,0.18310546875,0.1220703125,0.1094970703125,0.004150390625,0.9979248046875,-141.0,124.0,-23.0,101944.0,-5.142000198364258,0,0
1967.117997,-0.912841796875,0.02020263671875,0.050567626953125,0.40460205078125,0.1220703125,0.3662109375,0.06103515625,0.1085205078125,0.0040283203125,0.9984130859375,-141.0,124.0,-23.0,101944.0,-5.142000198364258,0,0
1967.125022,-0.912841796875,0.02020263671875,0.050567626953125,0.40460205078125,0.18310546875,0.18310546875,-0.3662109375,0.1094970703125,0.002685546875,0.99951171875,-141.0,124.0,-23.0,101944.0,-5.142000198364258,0,0
1967.132001,-0.912841796875,0.02020263671875,0.050567626953125,0.40460205078125,0.06103515625,0.1220703125,0.1220703125,0.110107421875,0.0040283203125,0.9971923828125,-141.0,124.0,-23.0,101944.0,-5.142000198364258,0,0
1967.139015,-0.912841796875,0.02020263671875,0.050567626953125,0.40460205078125,0.18310546875,0.244140625,0.18310546875,0.1103515625,0.0045166015625,0.9991455078125,-141.0,124.0,-23.0,101944.0,-5.142000198364258,0,0
1967.146,-0.912841796875,0.02020263671875,0.050567626953125,0.40460205078125,-0.1220703125,0.244140625,-0.18310546875,0.10986328125,0.0047607421875,0.998291015625,-141.0,124.0,-23.0,101944.0,-5.142000198364258,0,0
1967.152999,-0.912841796875,0.02020263671875,0.050567626953125,0.40460205078125,-0.1220703125,0.0,0.06103515625,0.1094970703125,0.004638671875,0.99755859375,-141.0,124.0,-23.0,101944.0,-5.142000198364258,0,0
1967.159032,-0.912841796875,0.02020263671875,0.050567626953125,0.40460205078125,-0.1220703125,0.0,0.06103515625,0.1094970703125,0.004638671875,0.99755859375,-141.0,124.0,-23.0,101944.0,-5.142000198364258,0,0
1967.165996,-0.912841796875,0.02020263671875,0.050567626953125,0.40460205078125,0.1220703125,0.48828125,0.0,0.1082763671875,0.00390625,0.9957275390625,-141.0,124.0,-23.0,101944.0,-5.142000198364258,0,0
1967.172996,-0.912841796875,0.020233154296875,0.050567626953125,0.40460205078125,-0.244140625,0.18310546875,-0.1220703125,0.107421875,0.003173828125,0.9971923828125,-141.0,124.0,-23.0,101944.0,-5.145000457763672,0,0
1967.18002,-0.91278076171875,0.020233154296875,0.050567626953125,0.40472412109375,0.0,0.3662109375,-0.244140625,0.111083984375,0.00537109375,0.9981689453125,-142.0,123.0,-23.0,101944.0,-5.145000457763672,0,0
1967.186999,-0.91278076171875,0.020233154296875,0.050567626953125,0.40472412109375,-0.06103515625,0.0,0.06103515625,0.109375,0.0020751953125,0.99853515625,-142.0,123.0,-23.0,101944.0,-5.145000457763672,0,0
1967.194016,-0.91278076171875,0.020233154296875,0.050567626953125,0.40472412109375,0.06103515625,0.18310546875,0.0,0.109375,0.0047607421875,0.99853515625,-142.0,123.0,-23.0,101944.0,-5.145000457763672,0,0
1967.200997,-0.91278076171875,0.020233154296875,0.05059814453125,0.40472412109375,-0.06103515625,0.244140625,-0.06103515625,0.109619140625,0.0042724609375,0.9969482421875,-142.0,123.0,-23.0,101944.0,-5.145000457763672,0,0
1967.207997,-0.91278076171875,0.020233154296875,0.05059814453125,0.40472412109375,0.0,0.6103515625,0.0,0.1103515625,0.0047607421875,0.99755859375,-142.0,123.0,-23.0,101944.0,-5.145000457763672,0,0
1967.215022,-0.91278076171875,0.020233154296875,0.05059814453125,0.40472412109375,-0.06103515625,0.244140625,0.0,0.1109619140625,0.003173828125,0.9984130859375,-142.0,123.0,-23.0,101944.0,-5.145000457763672,0,0
1967.222001,-0.91278076171875,0.020233154296875,0.05059814453125,0.40472412109375,-0.1220703125,0.30517578125,0.0,0.106201171875,0.002197265625,0.9974365234375,-142.0,123.0,-23.0,101944.0,-5.145000457763672,0,0
1967.229015,-0.91278076171875,0.020233154296875,0.05059814453125,0.40472412109375,0.0,0.30517578125,-0.244140625,0.107666015625,0.004150390625,0.9964599609375,-142.0,123.0,-23.0,101944.0,-5.145000457763672,0,0
1967.235996,-0.91278076171875,0.020233154296875,0.05059814453125,0.40472412109375,0.0,0.0,0.0,0.1099853515625,0.00439453125,0.9967041015625,-142.0,123.0,-23.0,101944.0,-5.145000457763672,0,0
1967.242995,-0.91278076171875,0.020233154296875,0.05059814453125,0.40472412109375,0.0,0.18310546875,0.0,0.1103515625,0.0035400390625,0.9996337890625,-142.0,123.0,-23.0,101944.0,-5.145000457763672,0,0
1967.250019,-0.91278076171875,0.020233154296875,0.05059814453125,0.40472412109375,0.0,0.30517578125,-0.06103515625,0.1080322265625,0.0047607421875,0.9981689453125,-142.0,123.0,-23.0,101944.0,-5.145000457763672,0,0
1967.27002,-0.91278076171875,0.020263671875,0.05059814453125,0.40472412109375,-0.244140625,0.18310546875,0.06103515625,0.1097412109375,0.0040283203125,0.9984130859375,-142.0,123.0,-23.0,101944.0,-5.145000457763672,0,0
1967.276999,-0.91278076171875,0.020263671875,0.05059814453125,0.40472412109375,0.06103515625,0.1220703125,0.1220703125,0.108154296875,0.004150390625,0.996337890625,-142.0,122.0,-25.0,101944.0,-5.145000457763672,0,0
1967.284016,-0.9127197265625,0.020233154296875,0.05059814453125,0.40484619140625,0.18310546875,0.18310546875,0.06103515625,0.1065673828125,0.00634765625,0.9990234375,-142.0,122.0,-25.0,101944.0,-5.145000457763672,0,0
1967.290998,-0.9127197265625,0.020233154296875,0.05059814453125,0.40484619140625,0.0,0.1220703125,-0.1220703125,0.1094970703125,0.005126953125,0.998291015625,-142.0,122.0,-25.0,101944.0,-5.145000457763672,0,0
1967.297997,-0.9127197265625,0.020233154296875,0.05059814453125,0.40484619140625,0.06103515625,0.0,0.244140625,0.109130859375,0.004638671875,0.99609375,-142.0,122.0,-25.0,101944.0,-5.145000457763672,0,0
1967.305022,-0.9127197265625,0.020233154296875,0.05059814453125,0.40484619140625,0.1220703125,0.30517578125,0.0,0.1082763671875,0.0050048828125,0.9991455078125,-142.0,122.0,-25.0,101944.0,-5.145000457763672,0,0
1967.312001,-0.9127197265625,0.020233154296875,0.05059814453125,0.40484619140625,-0.1220703125,0.244140625,0.06103515625,0.1099853515625,0.00341796875,0.9996337890625,-142.0,122.0,-25.0,101944.0,-5.145000457763672,0,0
1967.319015,-0.9127197265625,0.020233154296875,0.05059814453125,0.40484619140625,0.244140625,0.1220703125,-0.06103515625,0.1094970703125,0.0029296875,0.998046875,-142.0,122.0,-25.0,101944.0,-5.145000457763672,0,0
1967.325996,-0.9127197265625,0.020233154296875,0.05059814453125,0.40484619140625,-0.1220703125,0.30517578125,0.06103515625,0.108642578125,0.0052490234375,0.9989013671875,-142.0,122.0,-25.0,101944.0,-5.145000457763672,0,0
1967.332995,-0.9127197265625,0.020233154296875,0.05059814453125,0.40484619140625,0.30517578125,0.3662109375,-0.06103515625,0.1107177734375,0.0045166015625,0.9984130859375,-142.0,122.0,-25.0,101944.0,-5.145000457763672,0,0
1967.340019,-0.9127197265625,0.020233154296875,0.05059814453125,0.40484619140625,0.1220703125,0.1220703125,0.0,0.10986328125,0.003173828125,0.9969482421875,-142.0,122.0,-25.0,101944.0,-5.145000457763672,0,0
1967.36002,-0.9127197265625,0.020233154296875,0.05059814453125,0.40484619140625,-0.1220703125,0.244140625,0.1220703125,0.1097412109375,0.00390625,0.9976806640625,-142.0,122.0,-25.0,101944.0,-5.145000457763672,0,0
1967.366999,-0.9127197265625,0.020233154296875,0.05059814453125,0.40484619140625,0.06103515625,0.18310546875,0.0,0.110107421875,0.003173828125,0.997802734375,-142.0,122.0,-25.0,101944.0,-5.145000457763672,0,0
1967.374016,-0.9127197265625,0.020233154296875,0.05059814453125,0.40484619140625,-0.06103515625,0.244140625,0.06103515625,0.108154296875,0.005615234375,0.994873046875,-142.0,122.0,-25.0,101944.0,-5.14300012588501,0,0
1967.380998,-0.912689208984375,0.020263671875,0.05059814453125,0.40496826171875,0.244140625,0.30517578125,0.06103515625,0.1099853515625,0.0025634765625,0.9990234375,-142.0,123.0,-24.0,101944.0,-5.14300012588501,0,0
1967.387997,-0.912689208984375,0.020233154296875,0.05059814453125,0.40496826171875,-0.1220703125,0.0,0.1220703125,0.1085205078125,0.0054931640625,0.997802734375,-142.0,123.0,-24.0,101944.0,-5.14300012588501,0,0
1967.395022,-0.912689208984375,0.020233154296875,0.050567626953125,0.40496826171875,0.1220703125,0.30517578125,0.0,0.1080322265625,0.0040283203125,0.996826171875,-142.0,123.0,-24.0,101944.0,-5.14300012588501,0,0
1967.402001,-0.912689208984375,0.020233154296875,0.05059814453125,0.40496826171875,-0.1220703125,0.3662109375,-0.06103515625,0.1099853515625,0.0052490234375,0.9970703125,-142.0,123.0,-24.0,101944.0,-5.14300012588501,0,0
1967.409015,-0.912689208984375,0.020233154296875,0.05059814453125,0.40496826171875,-0.1220703125,0.1220703125,-0.244140625,0.10986328125,0.00634765625,0.99658203125,-142.0,123.0,-24.0,101944.0,-5.14300012588501,0,0
1967.416,-0.912689208984375,0.020233154296875,0.05059814453125,0.40496826171875,0.06103515625,0.3662109375,0.06103515625,0.1087646484375,0.004638671875,0.9986572265625,-142.0,123.0,-24.0,101944.0,-5.14300012588501,0,0
1967.422999,-0.912689208984375,0.020233154296875,0.05059814453125,0.40496826171875,-0.18310546875,0.3662109375,0.0,0.1102294921875,0.0028076171875,0.9957275390625,-142.0,123.0,-24.0,101944.0,-5.14300012588501,0,0
1967.43002,-0.912689208984375,0.020233154296875,0.05059814453125,0.40496826171875,-0.06103515625,0.244140625,0.1220703125,0.1090087890625,0.00439453125,0.9969482421875,-142.0,123.0,-24.0,101944.0,-5.14300012588501,0,0
1967.437003,-0.912689208984375,0.020233154296875,0.05059814453125,0.40496826171875,0.06103515625,0.42724609375,-0.06103515625,0.108642578125,0.0050048828125,0.9990234375,-142.0,123.0,-24.0,101944.0,-5.14300012588501,0,0
1967.443036,-0.912689208984375,0.020233154296875,0.05059814453125,0.40496826171875,0.06103515625,0.42724609375,-0.06103515625,0.108642578125,0.0050048828125,0.9990234375,-142.0,123.0,-24.0,101944.0,-5.14300012588501,0,0
1967.45002,-0.912689208984375,0.020233154296875,0.05059814453125,0.40496826171875,0.0,0.42724609375,-0.06103515625,0.109130859375,0.00634765625,0.99560546875,-142.0,123.0,-24.0,101944.0,-5.14300012588501,0,0
1967.456999,-0.912689208984375,0.020233154296875,0.05059814453125,0.40496826171875,0.06103515625,0.30517578125,-0.06103515625,0.1103515625,0.00634765625,0.9962158203125,-142.0,123.0,-24.0,101944.0,-5.14300012588501,0,0
1967.464016,-0.912689208984375,0.02020263671875,0.05059814453125,0.40496826171875,-0.3662109375,0.244140625,-0.06103515625,0.1097412109375,0.0074462890625,0.9976806640625,-142.0,123.0,-24.0,101944.0,-5.14300012588501,0,0
1967.470998,-0.912689208984375,0.02020263671875,0.050628662109375,0.40496826171875,0.18310546875,0.18310546875,0.06103515625,0.108642578125,0.005859375,0.996337890625,-142.0,123.0,-24.0,101944.0,-5.144000053405762,0,0
1967.477997,-0.912689208984375,0.02020263671875,0.050628662109375,0.40496826171875,-0.1220703125,0.18310546875,0.0,0.1099853515625,0.0074462890625,0.9990234375,-143.0,124.0,-24.0,101944.0,-5.144000053405762,0,0
1967.485022,-0.912689208984375,0.02020263671875,0.050628662109375,0.40496826171875,0.06103515625,0.30517578125,0.244140625,0.1070556640625,0.004150390625,0.9969482421875,-143.0,124.0,-24.0,101944.0,-5.144000053405762,0,0
1967.492001,-0.912689208984375,0.02020263671875,0.050628662109375,0.40496826171875,-0.06103515625,0.42724609375,0.0,0.1102294921875,0.002197265625,0.9964599609375,-143.0,124.0,-24.0,101944.0,-5.144000053405762,0,0
1967.499015,-0.912689208984375,0.02020263671875,0.05059814453125,0.40496826171875,-0.1220703125,0.1220703125,0.1220703125,0.109375,0.0023193359375,0.9962158203125,-143.0,124.0,-24.0,101944.0,-5.144000053405762,0,0
1967.505995,-0.912689208984375,0.02020263671875,0.05059814453125,0.40496826171875,0.0,0.18310546875,0.06103515625,0.1097412109375,0.00390625,0.9970703125,-143.0,124.0,-24.0,101944.0,-5.144000053405762,0,0
1967.512995,-0.912689208984375,0.02020263671875,0.05059814453125,0.40496826171875,-0.06103515625,0.30517578125,0.06103515625,0.1063232421875,0.00439453125,0.995361328125,-143.0,124.0,-24.0,101944.0,-5.144000053405762,0,0
1967.533036,-0.912689208984375,0.02020263671875,0.05059814453125,0.40496826171875,-0.244140625,0.1220703125,0.1220703125,0.107421875,0.0045166015625,0.997802734375,-143.0,124.0,-24.0,101944.0,-5.144000053405762,0,0
1967.54002,-0.912689208984375,0.02020263671875,0.05059814453125,0.40496826171875,0.1220703125,0.48828125,0.18310546875,0.108642578125,0.002685546875,0.9989013671875,-143.0,124.0,-24.0,101944.0,-5.144000053405762,0,0
1967.546999,-0.912689208984375,0.02020263671875,0.050567626953125,0.40496826171875,0.1220703125,0.1220703125,-0.1220703125,0.1068115234375,0.0052490234375,0.9976806640625,-143.0,124.0,-24.0,101944.0,-5.144000053405762,0,0
1967.554016,-0.912689208984375,0.02020263671875,0.050567626953125,0.40496826171875,0.244140625,0.1220703125,0.1220703125,0.1072998046875,0.004638671875,0.99853515625,-143.0,124.0,-24.0,101944.0,-5.144000053405762,0,0
1967.560997,-0.912689208984375,0.02020263671875,0.050567626953125,0.40496826171875,0.1220703125,0.18310546875,0.06103515625,0.107421875,0.005859375,0.9976806640625,-143.0,124.0,-24.0,101944.0,-5.144000053405762,0,0
1967.567997,-0.912689208984375,0.02020263671875,0.050567626953125,0.40496826171875,0.244140625,0.42724609375,0.06103515625,0.10693359375,0.00390625,0.998291015625,-143.0,124.0,-24.0,101944.0,-5.144000053405762,0,0
1967.575022,-0.912689208984375,0.02020263671875,0.050567626953125,0.40496826171875,0.244140625,0.3662109375,0.1220703125,0.1097412109375,0.0037841796875,0.9981689453125,-144.0,125.0,-23.0,101944.0,-5.146000385284424,0,0
1967.582001,-0.912689208984375,0.02020263671875,0.050567626953125,0.40496826171875,0.54931640625,-0.06103515625,0.30517578125,0.108154296875,0.006591796875,0.996337890625,-144.0,125.0,-23.0,101944.0,-5.146000385284424,0,0
1967.589015,-0.912689208984375,0.02020263671875,0.050567626953125,0.40496826171875,0.06103515625,0.18310546875,-0.06103515625,0.1099853515625,0.00244140625,0.9964599609375,-144.0,125.0,-23.0,101944.0,-5.146000385284424,0,0
1967.595996,-0.912689208984375,0.02020263671875,0.050567626953125,0.40496826171875,-0.06103515625,0.18310546875,0.0,0.109375,0.0045166015625,0.9964599609375,-144.0,125.0,-23.0,101944.0,-5.146000385284424,0,0
1967.602995,-0.912689208984375,0.02020263671875,0.050567626953125,0.40496826171875,-0.1220703125,0.42724609375,-0.06103515625,0.109130859375,0.005615234375,0.9967041015625,-144.0,125.0,-23.0,101944.0,-5.146000385284424,0,0
1967.624018,-0.912689208984375,0.020172119140625,0.050567626953125,0.40496826171875,0.0,0.48828125,0.1220703125,0.109130859375,0.0047607421875,0.9969482421875,-144.0,125.0,-23.0,101944.0,-5.146000385284424,0,0
1967.630046,-0.912689208984375,0.020172119140625,0.050567626953125,0.40496826171875,0.0,0.48828125,0.1220703125,0.109130859375,0.0047607421875,0.9969482421875,-144.0,125.0,-23.0,101944.0,-5.146000385284424,0,0
1967.636999,-0.912689208984375,0.02020263671875,0.050567626953125,0.40496826171875,0.18310546875,0.244140625,0.0,0.1103515625,0.00439453125,0.997314453125,-144.0,125.0,-23.0,101944.0,-5.146000385284424,0,0
1967.644016,-0.912689208984375,0.020172119140625,0.050567626953125,0.40496826171875,0.06103515625,0.30517578125,0.06103515625,0.110107421875,0.006591796875,0.998779296875,-144.0,125.0,-23.0,101944.0,-5.146000385284424,0,0
1967.650997,-0.912689208984375,0.020172119140625,0.05059814453125,0.40496826171875,0.1220703125,0.244140625,-0.1220703125,0.1103515625,0.0048828125,0.9974365234375,-144.0,125.0,-23.0,101944.0,-5.146000385284424,0,0
1967.657997,-0.912689208984375,0.02020263671875,0.05059814453125,0.40496826171875,-0.1220703125,0.18310546875,-0.1220703125,0.1092529296875,0.002197265625,0.9974365234375,-144.0,125.0,-23.0,101944.0,-5.146000385284424,0,0
1967.665022,-0.912689208984375,0.02020263671875,0.05059814453125,0.40496826171875,-0.1220703125,0.244140625,-0.06103515625,0.1090087890625,0.0037841796875,0.9974365234375,-144.0,125.0,-23.0,101944.0,-5.146000385284424,0,0
1967.672001,-0.912689208984375,0.02020263671875,0.05059814453125,0.40496826171875,-0.18310546875,0.30517578125,0.18310546875,0.1112060546875,0.002685546875,0.9957275390625,-144.0,125.0,-23.0,101944.0,-5.146000385284424,0,0
1967.692999,-0.912628173828125,0.02020263671875,0.05059814453125,0.40509033203125,-0.1220703125,0.42724609375,0.06103515625,0.1083984375,0.0045166015625,0.998046875,-144.0,124.0,-23.0,101944.0,-5.145000457763672,0,0
1967.70002,-0.912628173828125,0.02020263671875,0.05059814453125,0.40509033203125,0.0,0.42724609375,0.0,0.1082763671875,0.005859375,0.9967041015625,-144.0,124.0,-23.0,101944.0,-5.145000457763672,0,0
1967.707003,-0.912628173828125,0.02020263671875,0.05059814453125,0.40509033203125,0.1220703125,0.3662109375,-0.18310546875,0.1107177734375,0.00439453125,0.998291015625,-144.0,124.0,-23.0,101944.0,-5.145000457763672,0,0
1967.714018,-0.912628173828125,0.02020263671875,0.05059814453125,0.40509033203125,0.0,0.244140625,0.0,0.1087646484375,0.00439453125,0.998291015625,-144.0,124.0,-23.0,101944.0,-5.145000457763672,0,0
1967.720051,-0.912628173828125,0.02020263671875,0.05059814453125,0.40509033203125,0.0,0.244140625,0.0,0.1087646484375,0.00439453125,0.998291015625,-144.0,124.0,-23.0,101944.0,-5.145000457763672,0,0
1967.726999,-0.912628173828125,0.02020263671875,0.05059814453125,0.40509033203125,0.1220703125,0.30517578125,-0.18310546875,0.1097412109375,0.003173828125,0.997314453125,-144.0,124.0,-23.0,101944.0,-5.145000457763672,0,0
1967.734016,-0.912628173828125,0.02020263671875,0.05059814453125,0.40509033203125,0.06103515625,0.244140625,0.06103515625,0.1082763671875,0.0030517578125,0.9986572265625,-144.0,124.0,-23.0,101944.0,-5.145000457763672,0,0
1967.740998,-0.912628173828125,0.020233154296875,0.05059814453125,0.40509033203125,0.0,0.18310546875,0.244140625,0.1090087890625,0.003662109375,0.99658203125,-144.0,124.0,-23.0,101944.0,-5.145000457763672,0,0
1967.747997,-0.912628173828125,0.020233154296875,0.050567626953125,0.40509033203125,-0.1220703125,0.3662109375,-0.06103515625,0.1080322265625,0.0020751953125,0.9974365234375,-144.0,124.0,-23.0,101944.0,-5.145000457763672,0,0
1967.755022,-0.912628173828125,0.020233154296875,0.05059814453125,0.40509033203125,-0.18310546875,0.18310546875,0.1220703125,0.1094970703125,0.0045166015625,0.9996337890625,-144.0,124.0,-23.0,101944.0,-5.145000457763672,0,0
1967.762001,-0.912628173828125,0.020233154296875,0.05059814453125,0.40509033203125,0.06103515625,0.06103515625,0.0,0.1097412109375,0.003173828125,0.9957275390625,-144.0,124.0,-23.0,101944.0,-5.145000457763672,0,0
1967.769015,-0.912628173828125,0.020233154296875,0.05059814453125,0.40509033203125,0.06103515625,0.06103515625,0.244140625,0.1080322265625,0.0028076171875,0.996826171875,-144.0,124.0,-23.0,101944.0,-5.145000457763672,0,0
1967.775995,-0.912506103515625,0.020233154296875,0.050567626953125,0.40533447265625,0.18310546875,0.18310546875,-0.1220703125,0.1099853515625,0.0057373046875,0.9976806640625,-144.0,123.0,-23.0,101944.0,-5.144000053405762,0,0
1967.797003,-0.912506103515625,0.020233154296875,0.050567626953125,0.40533447265625,0.0,0.30517578125,0.06103515625,0.109375,0.005126953125,0.9964599609375,-144.0,123.0,-23.0,101944.0,-5.144000053405762,0,0
1967.804018,-0.912506103515625,0.020233154296875,0.050567626953125,0.40533447265625,0.0,0.244140625,0.06103515625,0.1097412109375,0.0047607421875,0.9964599609375,-144.0,123.0,-23.0,101944.0,-5.144000053405762,0,0
1967.810997,-0.912506103515625,0.020233154296875,0.050567626953125,0.40533447265625,-0.1220703125,0.30517578125,-0.06103515625,0.10791015625,0.003662109375,0.996826171875,-144.0,123.0,-23.0,101944.0,-5.144000053405762,0,0
1967.817025,-0.912506103515625,0.020233154296875,0.050567626953125,0.40533447265625,-0.1220703125,0.30517578125,-0.06103515625,0.10791015625,0.003662109375,0.996826171875,-144.0,123.0,-23.0,101944.0,-5.144000053405762,0,0
1967.824016,-0.912506103515625,0.020233154296875,0.050567626953125,0.40533447265625,-0.1220703125,0.1220703125,-0.06103515625,0.10791015625,0.005126953125,0.99755859375,-144.0,123.0,-23.0,101944.0,-5.144000053405762,0,0
1967.830997,-0.912506103515625,0.020233154296875,0.050567626953125,0.40533447265625,-0.1220703125,0.3662109375,-0.06103515625,0.10888671875,0.0050048828125,0.9962158203125,-144.0,123.0,-23.0,101944.0,-5.144000053405762,0,0
1967.837997,-0.912506103515625,0.020233154296875,0.050567626953125,0.40533447265625,-0.06103515625,0.48828125,-0.06103515625,0.1094970703125,0.0042724609375,0.9986572265625,-144.0,123.0,-23.0,101944.0,-5.144000053405762,0,0
1967.845022,-0.912506103515625,0.02020263671875,0.050567626953125,0.40533447265625,0.0,0.244140625,-0.06103515625,0.1087646484375,0.0052490234375,0.99658203125,-144.0,123.0,-23.0,101944.0,-5.144000053405762,0,0
1967.852001,-0.912506103515625,0.020233154296875,0.050567626953125,0.40533447265625,0.06103515625,0.18310546875,-0.06103515625,0.1104736328125,0.004638671875,0.998046875,-144.0,123.0,-23.0,101944.0,-5.144000053405762,0,0
1967.859015,-0.912506103515625,0.020233154296875,0.050567626953125,0.40533447265625,0.18310546875,0.244140625,-0.18310546875,0.1097412109375,0.0030517578125,0.998046875,-144.0,123.0,-23.0,101944.0,-5.144000053405762,0,0
1967.865995,-0.912506103515625,0.020233154296875,0.05059814453125,0.40533447265625,0.1220703125,0.3662109375,0.06103515625,8.237644005371812e-38,-6.66834226261123e+28,-9.237881812069352e+33,9.072284483718984e-34,-6.533467320177968e+29,-7.51909875063867e+34,4.223157921924753e-38,-9.157135431216679e-35,52793,55967
1967.880019,-0.912353515625,0.020263671875,0.050567626953125,0.40570068359375,-0.18310546875,0.6103515625,-0.30517578125,0.110107421875,0.002197265625,0.9976806640625,-145.0,123.0,-23.0,101944.0,-5.144000053405762,0,0
1967.887003,-0.912353515625,0.020233154296875,0.05059814453125,0.40570068359375,-0.1220703125,0.30517578125,0.06103515625,0.109130859375,0.00634765625,0.99853515625,-145.0,123.0,-23.0,101944.0,-5.144000053405762,0,0
1967.894018,-0.912353515625,0.020233154296875,0.05059814453125,0.40570068359375,0.0,0.18310546875,0.18310546875,0.109619140625,0.0040283203125,0.9970703125,-145.0,123.0,-23.0,101944.0,-5.144000053405762,0,0
1967.900997,-0.912353515625,0.020233154296875,0.050567626953125,0.40570068359375,0.06103515625,0.244140625,0.0,0.10888671875,0.0030517578125,0.9979248046875,-145.0,123.0,-23.0,101944.0,-5.144000053405762,0,0
1967.907025,-0.912353515625,0.020233154296875,0.050567626953125,0.40570068359375,0.06103515625,0.244140625,0.0,0.10888671875,0.0030517578125,0.9979248046875,-145.0,123.0,-23.0,101944.0,-5.144000053405762,0,0
1967.914016,-0.912353515625,0.020233154296875,0.050567626953125,0.40570068359375,0.18310546875,0.244140625,-0.06103515625,0.109619140625,0.0025634765625,0.9970703125,-145.0,123.0,-23.0,101944.0,-5.144000053405762,0,0
1967.920997,-0.912353515625,0.020263671875,0.050567626953125,0.40570068359375,-0.06103515625,0.18310546875,0.1220703125,0.1094970703125,0.00390625,0.9979248046875,-145.0,123.0,-23.0,101944.0,-5.14300012588501,0,0
1967.927997,-0.912353515625,0.020263671875,0.050567626953125,0.40570068359375,-0.18310546875,0.1220703125,0.06103515625,0.108154296875,0.005126953125,0.9984130859375,-145.0,123.0,-23.0,101944.0,-5.14300012588501,0,0
1967.935022,-0.912353515625,0.020263671875,0.050567626953125,0.40570068359375,0.06103515625,0.0,0.244140625,0.1092529296875,0.0035400390625,0.9962158203125,-145.0,123.0,-23.0,101944.0,-5.14300012588501,0,0
1967.942001,-0.912353515625,0.020263671875,0.05059814453125,0.40570068359375,0.1220703125,0.1220703125,-0.06103515625,0.111083984375,0.0048828125,0.998779296875,-145.0,123.0,-23.0,101944.0,-5.14300012588501,0,0
1967.949015,-0.912353515625,0.020233154296875,0.05059814453125,0.40570068359375,-0.06103515625,0.3662109375,0.0,0.1099853515625,0.005859375,0.9986572265625,-145.0,123.0,-23.0,101944.0,-5.14300012588501,0,0
1967.955996,-0.912353515625,0.020233154296875,0.05059814453125,0.40570068359375,0.06103515625,0.3662109375,0.06103515625,0.108642578125,0.005126953125,0.996337890625,-145.0,123.0,-23.0,101944.0,-5.14300012588501,0,0
1967.962995,-0.912353515625,0.020233154296875,0.050567626953125,0.40570068359375,-0.06103515625,0.244140625,0.06103515625,0.10693359375,0.006103515625,0.9979248046875,-145.0,123.0,-23.0,101944.0,-5.14300012588501,0,0
1967.970019,-0.912353515625,0.020233154296875,0.050567626953125,0.40570068359375,-0.06103515625,0.18310546875,0.06103515625,0.1060791015625,0.00390625,0.9984130859375,-145.0,123.0,-23.0,101944.0,-5.14300012588501,0,0
1967.977003,-0.91229248046875,0.020233154296875,0.050567626953125,0.40582275390625,-0.1220703125,0.3662109375,0.0,0.109375,0.0040283203125,0.9974365234375,-146.0,124.0,-22.0,101944.0,-5.14300012588501,0,0
1967.984018,-0.91229248046875,0.020233154296875,0.050567626953125,0.40582275390625,0.18310546875,0.0,0.0,0.1097412109375,0.0048828125,0.99609375,-146.0,124.0,-22.0,101944.0,-5.14300012588501,0,0
1967.990997,-0.91229248046875,0.020233154296875,0.05059814453125,0.40582275390625,-0.06103515625,0.42724609375,0.0,0.10888671875,0.005126953125,0.99658203125,-146.0,124.0,-22.0,101944.0,-5.14300012588501,0,0
1967.99703,-0.91229248046875,0.020233154296875,0.05059814453125,0.40582275390625,-0.06103515625,0.42724609375,0.0,0.10888671875,0.005126953125,0.99658203125,-146.0,124.0,-22.0,101944.0,-5.14300012588501,0,0
1968.004016,-0.91229248046875,0.020233154296875,0.05059814453125,0.40582275390625,-0.1220703125,0.18310546875,-0.06103515625,0.1099853515625,0.0029296875,0.9984130859375,-146.0,124.0,-22.0,101944.0,-5.14300012588501,0,0
1968.010998,-0.91229248046875,0.020233154296875,0.05059814453125,0.40582275390625,0.0,0.244140625,-0.06103515625,0.1075439453125,0.0047607421875,0.9971923828125,-146.0,124.0,-22.0,101944.0,-5.14300012588501,0,0
1968.017997,-0.91229248046875,0.02020263671875,0.05059814453125,0.40582275390625,0.1220703125,0.18310546875,0.18310546875,0.10888671875,0.005859375,0.9969482421875,-146.0,124.0,-22.0,101944.0,-5.14300012588501,0,0
1968.025022,-0.91229248046875,0.020233154296875,0.05059814453125,0.40582275390625,-0.18310546875,0.1220703125,-0.06103515625,0.109619140625,0.0032958984375,0.998046875,-146.0,124.0,-22.0,101944.0,-5.14300012588501,0,0
1968.032001,-0.91229248046875,0.020233154296875,0.05059814453125,0.40582275390625,-0.06103515625,0.30517578125,0.06103515625,0.1087646484375,0.006103515625,0.9990234375,-146.0,124.0,-22.0,101944.0,-5.14300012588501,0,0
1968.052999,-0.91229248046875,0.020233154296875,0.05059814453125,0.40582275390625,0.18310546875,0.3662109375,0.0,0.111083984375,0.00244140625,0.995849609375,-146.0,124.0,-22.0,101944.0,-5.14300012588501,0,0
1968.06002,-0.91229248046875,0.020233154296875,0.05059814453125,0.40582275390625,0.244140625,0.3662109375,0.1220703125,0.1092529296875,0.00390625,0.9981689453125,-146.0,124.0,-22.0,101944.0,-5.14300012588501,0,0
1968.067003,-0.91229248046875,0.020233154296875,0.05059814453125,0.40582275390625,0.0,0.42724609375,0.0,0.11083984375,0.005615234375,0.997314453125,-146.0,124.0,-22.0,101944.0,-5.14300012588501,0,0
1968.074019,-0.91229248046875,0.020233154296875,0.050628662109375,0.40582275390625,0.1220703125,0.30517578125,-0.18310546875,0.1109619140625,0.0054931640625,0.9969482421875,-146.0,124.0,-22.0,101944.0,-5.14300012588501,0,0
1968.080997,-0.912200927734375,0.020263671875,0.05059814453125,0.40606689453125,-0.1220703125,0.1220703125,-0.06103515625,0.1092529296875,0.00390625,0.99658203125,-147.0,125.0,-22.0,101944.0,-5.14300012588501,0,0
1968.087996,-0.912200927734375,0.020263671875,0.05059814453125,0.40606689453125,0.1220703125,0.30517578125,0.244140625,0.1083984375,0.0032958984375,0.9976806640625,-147.0,125.0,-22.0,101944.0,-5.14300012588501,0,0
1968.094029,-0.912200927734375,0.020263671875,0.05059814453125,0.40606689453125,0.1220703125,0.30517578125,0.244140625,0.1083984375,0.0032958984375,0.9976806640625,-147.0,125.0,-22.0,101944.0,-5.14300012588501,0,0
1968.100998,-0.912200927734375,0.020263671875,0.05059814453125,0.40606689453125,0.0,0.244140625,0.18310546875,0.1094970703125,0.0042724609375,0.996826171875,-147.0,125.0,-22.0,101944.0,-5.14300012588501,0,0
1968.107997,-0.912200927734375,0.020263671875,0.05059814453125,0.40606689453125,0.1220703125,0.3662109375,0.18310546875,0.110107421875,0.0059814453125,0.9970703125,-147.0,125.0,-22.0,101944.0,-5.14300012588501,0,0
1968.115022,-0.912200927734375,0.020263671875,0.05059814453125,0.40606689453125,0.1220703125,0.3662109375,0.06103515625,0.107666015625,0.00390625,0.99755859375,-147.0,125.0,-22.0,101944.0,-5.14300012588501,0,0
1968.122001,-0.912200927734375,0.020263671875,0.05059814453125,0.40606689453125,-0.18310546875,0.18310546875,-0.06103515625,0.1103515625,0.005615234375,0.9984130859375,-147.0,125.0,-22.0,101944.0,-5.14300012588501,0,0
1968.142995,-0.912200927734375,0.020263671875,0.050628662109375,0.40606689453125,0.0,0.42724609375,0.0,0.1087646484375,0.00390625,0.99755859375,-147.0,125.0,-22.0,101944.0,-5.14300012588501,0,0
1968.150019,-0.912200927734375,0.020263671875,0.050628662109375,0.40606689453125,0.0,0.42724609375,-0.06103515625,0.108154296875,0.002197265625,0.996337890625,-147.0,125.0,-22.0,101944.0,-5.14300012588501,0,0
1968.157003,-0.912200927734375,0.020263671875,0.050628662109375,0.40606689453125,0.0,0.18310546875,0.244140625,0.1092529296875,0.00537109375,0.997802734375,-147.0,125.0,-22.0,101944.0,-5.14300012588501,0,0
1968.164018,-0.912200927734375,0.020263671875,0.050628662109375,0.40606689453125,-0.30517578125,0.3662109375,-0.1220703125,0.1082763671875,0.004638671875,0.9962158203125,-147.0,125.0,-22.0,101944.0,-5.14300012588501,0,0
1968.170997,-0.912200927734375,0.020263671875,0.050628662109375,0.40606689453125,-0.06103515625,0.06103515625,-0.06103515625,0.107421875,0.00390625,0.9991455078125,-146.0,125.0,-22.0,101944.0,-5.14300012588501,0,0
1968.177996,-0.912139892578125,0.020263671875,0.05059814453125,0.40618896484375,-0.1220703125,0.244140625,0.1220703125,0.1068115234375,0.004638671875,0.9970703125,-146.0,125.0,-22.0,101944.0,-5.14300012588501,0,0
1968.184029,-0.912139892578125,0.020263671875,0.05059814453125,0.40618896484375,-0.1220703125,0.244140625,0.1220703125,0.1068115234375,0.004638671875,0.9970703125,-146.0,125.0,-22.0,101944.0,-5.14300012588501,0,0
1968.190998,-0.912139892578125,0.020263671875,0.050628662109375,0.40618896484375,0.0,0.244140625,-0.1220703125,0.1102294921875,0.0045166015625,0.995849609375,-146.0,125.0,-22.0,101944.0,-5.14300012588501,0,0
1968.197997,-0.912139892578125,0.020263671875,0.050628662109375,0.40618896484375,0.06103515625,0.30517578125,-0.1220703125,0.10986328125,0.0035400390625,0.99658203125,-146.0,125.0,-22.0,101944.0,-5.14300012588501,0,0
1968.205022,-0.912139892578125,0.020263671875,0.050628662109375,0.40618896484375,0.0,0.18310546875,0.0,0.1080322265625,0.004638671875,0.998046875,-146.0,125.0,-22.0,101944.0,-5.14300012588501,0,0
1968.212001,-0.912139892578125,0.020263671875,0.050628662109375,0.40618896484375,-0.18310546875,0.1220703125,0.1220703125,0.110107421875,0.0023193359375,0.997802734375,-146.0,125.0,-22.0,101944.0,-5.14300012588501,0,0
1968.219015,-0.912139892578125,0.020263671875,0.050628662109375,0.40618896484375,0.0,0.30517578125,0.06103515625,0.1087646484375,0.0045166015625,0.9971923828125,-146.0,125.0,-22.0,101944.0,-5.14300012588501,0,0
1968.225995,-0.912139892578125,0.020263671875,0.050628662109375,0.40618896484375,0.0,0.18310546875,0.06103515625,0.1087646484375,0.0047607421875,0.9969482421875,-146.0,125.0,-22.0,101944.0,-5.145000457763672,0,0
1968.232995,-0.912139892578125,0.020263671875,0.050628662109375,0.40618896484375,-0.06103515625,0.18310546875,0.18310546875,0.1075439453125,0.005126953125,0.99755859375,-146.0,125.0,-22.0,101944.0,-5.145000457763672,0,0
1968.240019,-0.912139892578125,0.020263671875,0.050628662109375,0.40618896484375,-0.06103515625,0.42724609375,0.0,0.1094970703125,0.002685546875,0.9957275390625,-146.0,125.0,-22.0,101944.0,-5.145000457763672,0,0
1968.247003,-0.912139892578125,0.020263671875,0.050628662109375,0.40618896484375,-0.244140625,0.06103515625,-0.1220703125,0.1075439453125,0.004638671875,0.9964599609375,-146.0,125.0,-22.0,101944.0,-5.145000457763672,0,0
1968.254018,-0.912139892578125,0.020263671875,0.050628662109375,0.40618896484375,-0.30517578125,0.244140625,0.244140625,0.110107421875,0.004638671875,0.9959716796875,-146.0,125.0,-22.0,101944.0,-5.145000457763672,0,0
1968.260997,-0.912139892578125,0.020263671875,0.050628662109375,0.40618896484375,-0.1220703125,0.244140625,0.244140625,0.1083984375,0.000732421875,0.99658203125,-146.0,125.0,-22.0,101944.0,-5.145000457763672,0,0
1968.267996,-0.912139892578125,0.020263671875,0.050628662109375,0.40618896484375,-0.18310546875,0.1220703125,-0.18310546875,0.109619140625,0.00439453125,0.997802734375,-146.0,125.0,-22.0,101944.0,-5.145000457763672,0,0
1968.275017,-0.912139892578125,0.020263671875,0.050628662109375,0.40618896484375,-0.18310546875,0.1220703125,-0.18310546875,0.109619140625,0.00439453125,0.997802734375,-146.0,125.0,-22.0,101944.0,-5.145000457763672,0,0
1968.28105,-0.912139892578125,0.020263671875,0.050628662109375,0.40618896484375,-0.18310546875,0.1220703125,-0.18310546875,0.109619140625,0.00439453125,0.997802734375,-146.0,125.0,-22.0,101944.0,-5.145000457763672,0,0
1968.287997,-0.912078857421875,0.020294189453125,0.050628662109375,0.40631103515625,0.06103515625,0.30517578125,0.1220703125,0.1097412109375,0.003173828125,0.99755859375,-146.0,125.0,-22.0,101944.0,-5.145000457763672,0,0
1968.295022,-0.912078857421875,0.020294189453125,0.050628662109375,0.40631103515625,-0.1220703125,0.1220703125,0.0,0.111083984375,0.0045166015625,0.9984130859375,-146.0,125.0,-22.0,101944.0,-5.145000457763672,0,0
1968.316,-0.912078857421875,0.020263671875,0.050628662109375,0.40631103515625,0.1220703125,0.30517578125,0.18310546875,0.108154296875,0.0048828125,0.9970703125,-146.0,125.0,-22.0,101944.0,-5.145000457763672,0,0
1968.322999,-0.912078857421875,0.020294189453125,0.050628662109375,0.40631103515625,-0.1220703125,0.1220703125,-0.06103515625,0.111083984375,0.003662109375,0.997802734375,-146.0,125.0,-22.0,101944.0,-5.145000457763672,0,0
1968.33002,-0.912078857421875,0.020263671875,0.050628662109375,0.40631103515625,0.06103515625,0.1220703125,0.06103515625,0.1094970703125,0.005615234375,0.997802734375,-146.0,125.0,-22.0,101944.0,-5.145000457763672,0,0
1968.337003,-0.912078857421875,0.020263671875,0.050628662109375,0.40631103515625,-0.06103515625,0.30517578125,0.1220703125,0.1103515625,0.0050048828125,0.9984130859375,-146.0,125.0,-22.0,101944.0,-5.145000457763672,0,0
1968.344018,-0.912078857421875,0.020263671875,0.050628662109375,0.40631103515625,0.06103515625,0.3662109375,-0.1220703125,0.109130859375,0.0050048828125,0.998046875,-146.0,125.0,-22.0,101944.0,-5.145000457763672,0,0
1968.350997,-0.912078857421875,0.020263671875,0.050628662109375,0.40631103515625,0.0,0.244140625,-0.1220703125,0.1077880859375,0.0030517578125,0.996826171875,-146.0,125.0,-22.0,101944.0,-5.145000457763672,0,0
1968.357996,-0.912078857421875,0.020263671875,0.050628662109375,0.40631103515625,-0.06103515625,0.244140625,-0.18310546875,0.1080322265625,0.0040283203125,0.9971923828125,-146.0,125.0,-22.0,101944.0,-5.145000457763672,0,0
1968.365017,-0.912078857421875,0.020263671875,0.050628662109375,0.40631103515625,-0.244140625,0.18310546875,0.0,0.109375,0.003662109375,0.9970703125,-146.0,125.0,-22.0,101944.0,-5.145000457763672,0,0
1968.371049,-0.912078857421875,0.020263671875,0.050628662109375,0.40631103515625,-0.244140625,0.18310546875,0.0,0.109375,0.003662109375,0.9970703125,-146.0,125.0,-22.0,101944.0,-5.145000457763672,0,0
1968.377997,-0.912078857421875,0.020263671875,0.050628662109375,0.40631103515625,-0.06103515625,0.30517578125,0.18310546875,0.107666015625,0.0067138671875,0.996826171875,-146.0,124.0,-21.0,101944.0,-5.145000457763672,0,0
1968.385022,-0.912017822265625,0.020263671875,0.050628662109375,0.40643310546875,0.0,0.1220703125,0.06103515625,0.1083984375,0.004150390625,0.9967041015625,-146.0,124.0,-21.0,101944.0,-5.145000457763672,0,0
1968.405996,-0.912017822265625,0.020263671875,0.050628662109375,0.40643310546875,-0.244140625,0.244140625,-0.06103515625,0.11083984375,0.00439453125,0.9964599609375,-146.0,124.0,-21.0,101944.0,-5.145000457763672,0,0
1968.412995,-0.912017822265625,0.020233154296875,0.05059814453125,0.40643310546875,-0.1220703125,0.30517578125,-0.06103515625,0.109375,0.0045166015625,0.998046875,-146.0,124.0,-21.0,101944.0,-5.145000457763672,0,0
1968.420019,-0.91204833984375,0.020233154296875,0.05059814453125,0.40643310546875,0.06103515625,0.3662109375,0.0,0.1082763671875,0.004638671875,0.998046875,-146.0,124.0,-21.0,101944.0,-5.145000457763672,0,0
1968.427003,-0.912017822265625,0.020233154296875,0.05059814453125,0.40643310546875,0.1220703125,0.18310546875,-0.06103515625,0.1094970703125,0.004638671875,0.996826171875,-146.0,124.0,-21.0,101944.0,-5.145000457763672,0,0
1968.434018,-0.91204833984375,0.020233154296875,0.05059814453125,0.40643310546875,0.30517578125,0.48828125,0.06103515625,0.10888671875,0.00537109375,0.99658203125,-146.0,124.0,-21.0,101944.0,-5.145000457763672,0,0
1968.440997,-0.91204833984375,0.020233154296875,0.05059814453125,0.40643310546875,0.06103515625,0.3662109375,0.0,0.1094970703125,0.0040283203125,0.99853515625,-146.0,124.0,-21.0,101944.0,-5.145000457763672,0,0
1968.447996,-0.91204833984375,0.02020263671875,0.05059814453125,0.40643310546875,0.244140625,0.1220703125,-0.244140625,0.108154296875,0.0050048828125,0.997314453125,-146.0,124.0,-21.0,101944.0,-5.145000457763672,0,0
1968.455016,-0.91204833984375,0.020233154296875,0.05059814453125,0.40643310546875,0.06103515625,0.30517578125,0.06103515625,0.1124267578125,0.003173828125,0.997314453125,-146.0,124.0,-21.0,101944.0,-5.145000457763672,0,0
1968.462001,-0.91204833984375,0.020233154296875,0.05059814453125,0.40643310546875,-0.244140625,0.06103515625,-0.06103515625,0.1085205078125,0.0050048828125,0.99609375,-146.0,124.0,-21.0,101944.0,-5.145000457763672,0,0
1968.468033,-0.91204833984375,0.020233154296875,0.05059814453125,0.40643310546875,-0.244140625,0.06103515625,-0.06103515625,0.1085205078125,0.0050048828125,0.99609375,-146.0,124.0,-21.0,101944.0,-5.145000457763672,0,0
1968.475022,-0.91192626953125,0.020233154296875,0.05059814453125,0.40667724609375,-0.06103515625,0.18310546875,0.1220703125,0.109619140625,0.0048828125,0.997314453125,-145.0,123.0,-21.0,101944.0,-5.145000457763672,0,0
1968.482001,-0.91192626953125,0.020233154296875,0.05059814453125,0.40667724609375,-0.06103515625,0.1220703125,0.06103515625,0.109375,0.00537109375,0.999755859375,-145.0,123.0,-21.0,101944.0,-5.145000457763672,0,0
1968.489015,-0.91192626953125,0.020233154296875,0.05059814453125,0.40667724609375,0.06103515625,0.244140625,-0.1220703125,0.10986328125,0.00341796875,0.998291015625,-145.0,123.0,-21.0,101944.0,-5.145000457763672,0,0
1968.495996,-0.91192626953125,0.020233154296875,0.05059814453125,0.40667724609375,0.06103515625,0.30517578125,0.18310546875,0.1068115234375,0.0048828125,0.9993896484375,-145.0,123.0,-21.0,101944.0,-5.145000457763672,0,0
1968.502995,-0.91192626953125,0.020233154296875,0.05059814453125,0.40667724609375,0.0,0.18310546875,-0.18310546875,0.1090087890625,0.0030517578125,0.9974365234375,-145.0,123.0,-21.0,101944.0,-5.145000457763672,0,0
1968.510019,-0.91192626953125,0.020233154296875,0.05059814453125,0.40667724609375,0.18310546875,-0.06103515625,-0.06103515625,0.1109619140625,0.00390625,0.9976806640625,-145.0,123.0,-21.0,101944.0,-5.145000457763672,0,0
1968.517003,-0.91192626953125,0.020233154296875,0.05059814453125,0.40667724609375,-0.1220703125,0.30517578125,0.06103515625,0.1072998046875,0.004638671875,0.99951171875,-145.0,123.0,-21.0,101944.0,-5.145000457763672,0,0
1968.524018,-0.91192626953125,0.020233154296875,0.05059814453125,0.40667724609375,-0.244140625,0.18310546875,-0.1220703125,0.1085205078125,0.0050048828125,0.996337890625,-145.0,123.0,-21.0,101944.0,-5.144000053405762,0,0
1968.530997,-0.91192626953125,0.020233154296875,0.05059814453125,0.40667724609375,0.1220703125,0.06103515625,-0.244140625,0.1092529296875,0.0032958984375,0.9970703125,-145.0,123.0,-21.0,101944.0,-5.144000053405762,0,0
1968.537996,-0.91192626953125,0.020233154296875,0.05059814453125,0.40667724609375,-0.1220703125,0.244140625,0.18310546875,0.10986328125,0.0035400390625,0.99609375,-145.0,123.0,-21.0,101944.0,-5.144000053405762,0,0
1968.545016,-0.91192626953125,0.020233154296875,0.05059814453125,0.40667724609375,0.06103515625,0.30517578125,0.06103515625,0.111328125,0.00439453125,0.9967041015625,-145.0,123.0,-21.0,101944.0,-5.144000053405762,0,0
1968.552001,-0.91192626953125,0.020233154296875,0.05059814453125,0.40667724609375,-0.06103515625,0.42724609375,-0.06103515625,0.1092529296875,0.0037841796875,0.996337890625,-145.0,123.0,-21.0,101944.0,-5.144000053405762,0,0
1968.558033,-0.91192626953125,0.020233154296875,0.05059814453125,0.40667724609375,-0.06103515625,0.42724609375,-0.06103515625,0.1092529296875,0.0037841796875,0.996337890625,-145.0,123.0,-21.0,101944.0,-5.144000053405762,0,0
1968.579015,-0.91180419921875,0.020263671875,0.05059814453125,0.40692138671875,-0.18310546875,0.30517578125,0.48828125,0.1083984375,0.002197265625,0.9951171875,-144.0,122.0,-22.0,101944.0,-5.144000053405762,0,0
1968.586,-0.91180419921875,0.020263671875,0.05059814453125,0.40692138671875,0.1220703125,0.1220703125,0.06103515625,0.1092529296875,0.003662109375,0.9967041015625,-144.0,122.0,-22.0,101944.0,-5.144000053405762,0,0
1968.592999,-0.91180419921875,0.020263671875,0.05059814453125,0.40692138671875,0.1220703125,0.18310546875,-0.06103515625,0.110107421875,0.00439453125,0.9979248046875,-144.0,122.0,-22.0,101944.0,-5.144000053405762,0,0
1968.60002,-0.91180419921875,0.020263671875,0.05059814453125,0.40692138671875,0.0,0.06103515625,0.1220703125,0.1085205078125,0.005126953125,0.99658203125,-144.0,122.0,-22.0,101944.0,-5.144000053405762,0,0
1968.607003,-0.91180419921875,0.020263671875,0.05059814453125,0.40692138671875,-0.18310546875,0.244140625,0.30517578125,0.112060546875,0.0037841796875,0.996826171875,-144.0,122.0,-22.0,101944.0,-5.144000053405762,0,0
1968.614018,-0.91180419921875,0.020263671875,0.05059814453125,0.40692138671875,-0.06103515625,0.244140625,-0.06103515625,0.1072998046875,0.00634765625,0.9964599609375,-144.0,122.0,-22.0,101944.0,-5.144000053405762,0,0
1968.620997,-0.91180419921875,0.020263671875,0.05059814453125,0.40692138671875,0.1220703125,0.06103515625,0.0,0.1080322265625,0.0030517578125,0.99755859375,-144.0,122.0,-22.0,101944.0,-5.144000053405762,0,0
1968.627996,-0.91180419921875,0.020263671875,0.05059814453125,0.40692138671875,-0.18310546875,0.3662109375,0.1220703125,0.109619140625,0.0059814453125,0.998291015625,-144.0,122.0,-22.0,101944.0,-5.145000457763672,0,0
1968.635017,-0.91180419921875,0.020263671875,0.05059814453125,0.40692138671875,0.1220703125,0.3662109375,-0.1220703125,0.110107421875,0.0037841796875,0.9981689453125,-144.0,122.0,-22.0,101944.0,-5.145000457763672,0,0
1968.642001,-0.91180419921875,0.020263671875,0.05059814453125,0.40692138671875,-0.1220703125,0.244140625,0.0,0.1116943359375,0.0047607421875,0.9962158203125,-144.0,122.0,-22.0,101944.0,-5.145000457763672,0,0
1968.649019,-0.91180419921875,0.020263671875,0.05059814453125,0.40692138671875,-0.06103515625,0.30517578125,0.1220703125,0.1075439453125,0.005126953125,0.997314453125,-144.0,122.0,-22.0,101944.0,-5.145000457763672,0,0
1968.669015,-0.91180419921875,0.020233154296875,0.05059814453125,0.40692138671875,-0.1220703125,0.1220703125,-0.06103515625,0.10888671875,0.00341796875,0.9981689453125,-144.0,122.0,-22.0,101944.0,-5.145000457763672,0,0
1968.675995,-0.911712646484375,0.020263671875,0.05059814453125,0.40716552734375,-0.1220703125,0.18310546875,0.1220703125,0.108154296875,0.0028076171875,0.9986572265625,-145.0,123.0,-21.0,101944.0,-5.145000457763672,0,0
1968.682995,-0.911712646484375,0.020263671875,0.05059814453125,0.40716552734375,0.1220703125,0.244140625,0.244140625,0.1109619140625,0.0037841796875,0.9967041015625,-145.0,123.0,-21.0,101944.0,-5.145000457763672,0,0
1968.690019,-0.911712646484375,0.020263671875,0.050567626953125,0.40716552734375,0.244140625,0.48828125,0.06103515625,0.108154296875,0.004150390625,0.9971923828125,-145.0,123.0,-21.0,101944.0,-5.145000457763672,0,0
1968.697003,-0.911712646484375,0.020263671875,0.050567626953125,0.40716552734375,-0.1220703125,0.244140625,-0.1220703125,0.1080322265625,0.000244140625,0.9969482421875,-145.0,123.0,-21.0,101944.0,-5.145000457763672,0,0
1968.704019,-0.911712646484375,0.020263671875,0.050567626953125,0.40716552734375,0.06103515625,0.244140625,0.06103515625,0.1085205078125,0.00390625,0.99755859375,-145.0,123.0,-21.0,101944.0,-5.145000457763672,0,0
1968.710997,-0.911712646484375,0.020294189453125,0.050567626953125,0.40716552734375,-0.06103515625,0.18310546875,0.06103515625,0.1094970703125,0.0035400390625,0.9954833984375,-145.0,123.0,-21.0,101944.0,-5.145000457763672,0,0
1968.717996,-0.911712646484375,0.020263671875,0.05059814453125,0.40716552734375,0.06103515625,0.06103515625,-0.18310546875,0.1103515625,0.0064697265625,0.998046875,-145.0,123.0,-21.0,101944.0,-5.145000457763672,0,0
1968.725016,-0.911712646484375,0.020294189453125,0.05059814453125,0.40716552734375,0.0,0.30517578125,0.1220703125,0.1103515625,0.004150390625,0.997314453125,-145.0,123.0,-21.0,101944.0,-5.145000457763672,0,0
1968.732001,-0.911712646484375,0.020294189453125,0.05059814453125,0.40716552734375,-0.06103515625,0.1220703125,0.18310546875,0.1083984375,0.0057373046875,0.9974365234375,-145.0,123.0,-21.0,101944.0,-5.145000457763672,0,0
1968.739018,-0.911712646484375,0.020263671875,0.05059814453125,0.40716552734375,-0.30517578125,0.18310546875,-0.1220703125,0.1087646484375,0.0069580078125,0.996337890625,-145.0,123.0,-21.0,101944.0,-5.145000457763672,0,0
1968.745049,-0.911712646484375,0.020263671875,0.05059814453125,0.40716552734375,-0.30517578125,0.18310546875,-0.1220703125,0.1087646484375,0.0069580078125,0.996337890625,-145.0,123.0,-21.0,101944.0,-5.145000457763672,0,0
1968.752001,-0.911712646484375,0.020263671875,0.05059814453125,0.40716552734375,0.06103515625,0.18310546875,0.0,0.109375,0.003662109375,0.9974365234375,-145.0,123.0,-21.0,101944.0,-5.145000457763672,0,0
1968.759015,-0.911712646484375,0.020263671875,0.050567626953125,0.40716552734375,-0.1220703125,0.48828125,-0.06103515625,0.1099853515625,0.0032958984375,0.998779296875,-145.0,123.0,-21.0,101944.0,-5.145000457763672,0,0
1968.765995,-0.911712646484375,0.020263671875,0.05059814453125,0.40716552734375,0.0,0.18310546875,0.18310546875,0.10986328125,0.00390625,0.99609375,-145.0,123.0,-21.0,101944.0,-5.145000457763672,0,0
1968.772995,-0.911712646484375,0.020263671875,0.050567626953125,0.40716552734375,-0.1220703125,0.42724609375,-0.06103515625,0.1085205078125,0.0059814453125,0.99658203125,-145.0,123.0,-21.0,101944.0,-5.145000457763672,0,0
1968.780019,-0.911651611328125,0.020263671875,0.050567626953125,0.40728759765625,-0.18310546875,0.42724609375,0.0,0.1075439453125,0.005126953125,0.9962158203125,-144.0,123.0,-22.0,101944.0,-5.145000457763672,0,0
1968.787003,-0.911651611328125,0.020263671875,0.050567626953125,0.40728759765625,0.0,0.30517578125,0.0,0.1103515625,0.004638671875,0.9986572265625,-144.0,123.0,-22.0,101944.0,-5.145000457763672,0,0
1968.794018,-0.911651611328125,0.020263671875,0.050567626953125,0.40728759765625,0.0,0.18310546875,0.06103515625,0.1077880859375,0.0068359375,0.9991455078125,-144.0,123.0,-22.0,101944.0,-5.145000457763672,0,0
1968.800997,-0.911651611328125,0.020263671875,0.05059814453125,0.40728759765625,0.0,0.244140625,0.0,0.10986328125,0.005859375,0.9974365234375,-144.0,123.0,-22.0,101944.0,-5.145000457763672,0,0
1968.807996,-0.911651611328125,0.020263671875,0.050567626953125,0.40728759765625,-0.18310546875,0.18310546875,0.0,0.1090087890625,0.0045166015625,0.9979248046875,-144.0,123.0,-22.0,101944.0,-5.145000457763672,0,0
1968.815016,-0.911651611328125,0.020263671875,0.05059814453125,0.40728759765625,-0.06103515625,0.1220703125,-0.06103515625,0.109130859375,0.00537109375,0.9974365234375,-144.0,123.0,-22.0,101944.0,-5.145000457763672,0,0
1968.822001,-0.911651611328125,0.020263671875,0.050567626953125,0.40728759765625,0.0,0.30517578125,0.30517578125,0.1080322265625,0.0047607421875,0.9981689453125,-144.0,123.0,-22.0,101944.0,-5.145000457763672,0,0
1968.842023,-0.911651611328125,0.020233154296875,0.05059814453125,0.40728759765625,0.18310546875,0.244140625,0.06103515625,0.1104736328125,0.004150390625,0.998046875,-144.0,123.0,-22.0,101944.0,-5.145000457763672,0,0
1968.849015,-0.911651611328125,0.020233154296875,0.05059814453125,0.40728759765625,0.0,0.244140625,-0.244140625,0.110107421875,0.00439453125,0.9979248046875,-144.0,123.0,-22.0,101944.0,-5.145000457763672,0,0
1968.855995,-0.911651611328125,0.020233154296875,0.05059814453125,0.40728759765625,-0.244140625,0.244140625,0.1220703125,0.108642578125,0.0059814453125,0.99755859375,-144.0,123.0,-22.0,101944.0,-5.145000457763672,0,0
1968.862995,-0.911651611328125,0.020233154296875,0.050567626953125,0.40728759765625,-0.1220703125,0.30517578125,0.06103515625,0.10791015625,0.0037841796875,0.9969482421875,-144.0,123.0,-22.0,101944.0,-5.145000457763672,0,0
1968.87002,-0.911651611328125,0.020233154296875,0.050567626953125,0.40728759765625,0.18310546875,0.30517578125,-0.18310546875,0.10986328125,0.0023193359375,0.9971923828125,-144.0,123.0,-22.0,101944.0,-5.145000457763672,0,0
1968.877003,-0.911590576171875,0.020233154296875,0.050567626953125,0.40740966796875,-0.18310546875,0.0,0.1220703125,0.1064453125,0.0035400390625,0.99755859375,-144.0,123.0,-22.0,101944.0,-5.145000457763672,0,0
1968.884018,-0.911590576171875,0.020233154296875,0.050567626953125,0.40740966796875,0.0,0.3662109375,-0.18310546875,0.1103515625,0.0028076171875,0.997802734375,-144.0,123.0,-22.0,101944.0,-5.145000457763672,0,0
1968.890997,-0.911590576171875,0.020263671875,0.050567626953125,0.40740966796875,0.0,0.244140625,0.06103515625,0.1097412109375,0.00244140625,0.9964599609375,-144.0,123.0,-22.0,101944.0,-5.145000457763672,0,0
1968.897996,-0.911590576171875,0.020263671875,0.050567626953125,0.40740966796875,-0.244140625,0.3662109375,0.0,0.1077880859375,0.0045166015625,0.9976806640625,-144.0,123.0,-22.0,101944.0,-5.145000457763672,0,0
1968.905017,-0.911590576171875,0.020233154296875,0.050567626953125,0.40740966796875,-0.1220703125,0.30517578125,0.1220703125,0.10791015625,0.0040283203125,0.9967041015625,-144.0,123.0,-22.0,101944.0,-5.145000457763672,0,0
1968.912001,-0.911590576171875,0.020263671875,0.050567626953125,0.40740966796875,0.0,0.06103515625,0.06103515625,0.1094970703125,0.00390625,0.9971923828125,-144.0,123.0,-22.0,101944.0,-5.145000457763672,0,0
1968.932032,-0.911590576171875,0.020263671875,0.05059814453125,0.40740966796875,-0.244140625,0.3662109375,-0.1220703125,0.109619140625,0.0045166015625,0.9986572265625,-144.0,123.0,-22.0,101944.0,-5.145000457763672,0,0
1968.939015,-0.911590576171875,0.020233154296875,0.050567626953125,0.40740966796875,0.1220703125,0.30517578125,-0.1220703125,0.1087646484375,0.004638671875,0.9969482421875,-144.0,123.0,-22.0,101944.0,-5.145000457763672,0,0
1968.946,-0.911590576171875,0.020263671875,0.050567626953125,0.40740966796875,-0.1220703125,0.244140625,0.244140625,0.1082763671875,0.0015869140625,0.9981689453125,-144.0,123.0,-22.0,101944.0,-5.145000457763672,0,0
1968.952999,-0.911590576171875,0.020263671875,0.050567626953125,0.40740966796875,-0.18310546875,-0.06103515625,0.1220703125,0.1072998046875,0.0028076171875,0.9979248046875,-144.0,123.0,-22.0,101944.0,-5.145000457763672,0,0
1968.96002,-0.911590576171875,0.020263671875,0.050537109375,0.40740966796875,-0.06103515625,0.1220703125,0.0,0.107177734375,0.0032958984375,0.9991455078125,-144.0,123.0,-22.0,101944.0,-5.145000457763672,0,0
1968.967003,-0.911590576171875,0.020263671875,0.050537109375,0.40740966796875,0.06103515625,0.3662109375,-0.18310546875,0.1099853515625,0.0040283203125,0.99951171875,-144.0,123.0,-22.0,101944.0,-5.145000457763672,0,0
1968.974018,-0.911590576171875,0.020263671875,0.050537109375,0.40740966796875,0.3662109375,0.30517578125,-0.244140625,0.1094970703125,0.003173828125,0.99609375,-143.0,121.0,-23.0,101944.0,-5.145000457763672,0,0
1968.980997,-0.9114990234375,0.020263671875,0.050537109375,0.40765380859375,-0.1220703125,0.30517578125,0.244140625,0.1083984375,0.0064697265625,0.9967041015625,-143.0,121.0,-23.0,101944.0,-5.145000457763672,0,0
1968.987996,-0.9114990234375,0.020263671875,0.050537109375,0.40765380859375,-0.06103515625,0.1220703125,-0.1220703125,0.1097412109375,0.004150390625,0.9981689453125,-143.0,121.0,-23.0,101944.0,-5.145000457763672,0,0
1968.995016,-0.9114990234375,0.020263671875,0.050537109375,0.40765380859375,0.1220703125,0.48828125,-0.06103515625,0.10888671875,0.0042724609375,0.9981689453125,-143.0,121.0,-23.0,101944.0,-5.145000457763672,0,0
1969.002001,-0.9114990234375,0.020263671875,0.050537109375,0.40765380859375,0.0,0.244140625,-0.06103515625,0.109619140625,0.00537109375,0.9986572265625,-143.0,121.0,-23.0,101944.0,-5.145000457763672,0,0
1969.009018,-0.9114990234375,0.020263671875,0.050567626953125,0.40765380859375,-0.06103515625,0.3662109375,0.06103515625,0.1109619140625,0.00537109375,0.999267578125,-143.0,121.0,-23.0,101944.0,-5.145000457763672,0,0
1969.015995,-0.9114990234375,0.020263671875,0.050567626953125,0.40765380859375,-0.18310546875,0.48828125,-0.1220703125,0.109375,0.0069580078125,0.997314453125,-143.0,121.0,-23.0,101944.0,-5.145000457763672,0,0
1969.022994,-0.9114990234375,0.020263671875,0.050567626953125,0.40765380859375,-0.1220703125,0.18310546875,-0.1220703125,0.1099853515625,0.00439453125,0.99658203125,-143.0,121.0,-23.0,101944.0,-5.146000385284424,0,0
1969.029026,-0.9114990234375,0.020263671875,0.050567626953125,0.40765380859375,-0.1220703125,0.18310546875,-0.1220703125,0.1099853515625,0.00439453125,0.99658203125,-143.0,121.0,-23.0,101944.0,-5.146000385284424,0,0
1969.035995,-0.9114990234375,0.020263671875,0.050567626953125,0.40765380859375,0.42724609375,0.30517578125,0.06103515625,0.1104736328125,0.0045166015625,0.9981689453125,-143.0,121.0,-23.0,101944.0,-5.146000385284424,0,0
1969.042995,-0.9114990234375,0.020263671875,0.050567626953125,0.40765380859375,0.06103515625,0.1220703125,0.06103515625,0.1094970703125,0.0032958984375,0.998291015625,-143.0,121.0,-23.0,101944.0,-5.146000385284424,0,0
1969.050019,-0.9114990234375,0.020263671875,0.050567626953125,0.40765380859375,0.1220703125,0.1220703125,0.0,0.10791015625,0.004638671875,0.9957275390625,-143.0,121.0,-23.0,101944.0,-5.146000385284424,0,0
1969.057003,-0.9114990234375,0.020233154296875,0.050567626953125,0.40765380859375,-0.06103515625,0.1220703125,-0.06103515625,0.10791015625,0.0050048828125,0.9996337890625,-143.0,121.0,-23.0,101944.0,-5.146000385284424,0,0
1969.064018,-0.9114990234375,0.020263671875,0.050567626953125,0.40765380859375,-0.06103515625,0.42724609375,0.1220703125,0.109619140625,0.005126953125,0.9971923828125,-143.0,121.0,-23.0,101944.0,-5.146000385284424,0,0
1969.070997,-0.9114990234375,0.020233154296875,0.050567626953125,0.40765380859375,0.1220703125,0.3662109375,0.06103515625,0.108154296875,0.001708984375,0.9984130859375,-143.0,121.0,-22.0,101944.0,-5.146000385284424,0,0
1969.077996,-0.911376953125,0.020263671875,0.050537109375,0.40789794921875,-0.30517578125,0.1220703125,0.1220703125,0.1092529296875,0.0025634765625,0.9986572265625,-143.0,121.0,-22.0,101944.0,-5.146000385284424,0,0
1969.085016,-0.911376953125,0.020263671875,0.050537109375,0.40789794921875,0.0,0.244140625,-0.18310546875,0.109619140625,0.002685546875,0.9976806640625,-143.0,121.0,-22.0,101944.0,-5.146000385284424,0,0
1969.105995,-0.911376953125,0.020263671875,0.050567626953125,0.40789794921875,-0.06103515625,-0.1220703125,-0.18310546875,0.108642578125,0.00390625,0.9974365234375,-143.0,121.0,-22.0,101944.0,-5.146000385284424,0,0
1969.112994,-0.911376953125,0.020263671875,0.050567626953125,0.40789794921875,0.18310546875,0.18310546875,-0.1220703125,0.1104736328125,0.00390625,0.9964599609375,-143.0,121.0,-22.0,101944.0,-5.146000385284424,0,0
1969.119026,-0.911376953125,0.020263671875,0.050567626953125,0.40789794921875,0.18310546875,0.18310546875,-0.1220703125,0.1104736328125,0.00390625,0.9964599609375,-143.0,121.0,-22.0,101944.0,-5.146000385284424,0,0
1969.125996,-0.911376953125,0.020263671875,0.050567626953125,0.40789794921875,-0.06103515625,0.18310546875,0.06103515625,0.1090087890625,0.0050048828125,1.0009765625,-143.0,121.0,-22.0,101944.0,-5.146000385284424,0,0
1969.132995,-0.911376953125,0.020263671875,0.050567626953125,0.40789794921875,0.06103515625,0.3662109375,0.0,0.1102294921875,0.005126953125,0.9981689453125,-143.0,121.0,-22.0,101944.0,-5.146000385284424,0,0
1969.140019,-0.911376953125,0.020263671875,0.050567626953125,0.40789794921875,0.0,0.18310546875,-0.06103515625,0.110107421875,0.004638671875,0.9967041015625,-143.0,121.0,-22.0,101944.0,-5.146000385284424,0,0
1969.147003,-0.911376953125,0.020263671875,0.050567626953125,0.40789794921875,-0.244140625,0.1220703125,0.0,0.108642578125,0.0040283203125,1.0,-143.0,121.0,-22.0,101944.0,-5.146000385284424,0,0
1969.154018,-0.911376953125,0.020263671875,0.050567626953125,0.40789794921875,-0.06103515625,0.1220703125,-0.18310546875,0.1080322265625,0.0037841796875,0.9979248046875,-143.0,121.0,-22.0,101944.0,-5.146000385284424,0,0
1969.160997,-0.911376953125,0.020263671875,0.050567626953125,0.40789794921875,-0.06103515625,0.244140625,0.06103515625,0.109619140625,0.0030517578125,0.9974365234375,-143.0,121.0,-22.0,101944.0,-5.146000385284424,0,0
1969.167996,-0.911376953125,0.020263671875,0.050567626953125,0.40789794921875,-0.06103515625,0.1220703125,-0.244140625,0.1085205078125,0.0042724609375,0.997802734375,-143.0,121.0,-22.0,101944.0,-5.146000385284424,0,0
1969.189018,-0.91131591796875,0.020294189453125,0.050567626953125,0.40802001953125,-0.244140625,0.42724609375,0.1220703125,0.1102294921875,0.0023193359375,0.9981689453125,-143.0,122.0,-21.0,101944.0,-5.146000385284424,0,0
1969.195999,-0.91131591796875,0.020294189453125,0.050537109375,0.40802001953125,-0.06103515625,0.3662109375,0.06103515625,0.1072998046875,0.003173828125,0.9974365234375,-143.0,122.0,-21.0,101944.0,-5.146000385284424,0,0
1969.202999,-0.91131591796875,0.020294189453125,0.050537109375,0.40802001953125,-0.18310546875,0.3662109375,-0.1220703125,0.1090087890625,0.0042724609375,0.9996337890625,-143.0,122.0,-21.0,101944.0,-5.146000385284424,0,0
1969.21002,-0.91131591796875,0.020294189453125,0.050537109375,0.40802001953125,-0.06103515625,0.30517578125,0.18310546875,0.108154296875,0.0068359375,0.9974365234375,-143.0,122.0,-21.0,101944.0,-5.146000385284424,0,0
1969.216056,-0.91131591796875,0.020294189453125,0.050537109375,0.40802001953125,-0.06103515625,0.30517578125,0.18310546875,0.108154296875,0.0068359375,0.9974365234375,-143.0,122.0,-21.0,101944.0,-5.146000385284424,0,0
1969.222999,-0.91131591796875,0.020294189453125,0.050537109375,0.40802001953125,0.244140625,0.30517578125,-0.1220703125,0.1099853515625,0.003173828125,0.9971923828125,-143.0,122.0,-21.0,101944.0,-5.146000385284424,0,0
1969.23002,-0.91131591796875,0.020294189453125,0.050537109375,0.40802001953125,0.18310546875,0.06103515625,-0.1220703125,0.1102294921875,0.00341796875,0.9971923828125,-143.0,122.0,-21.0,101944.0,-5.146000385284424,0,0
1969.237003,-0.91131591796875,0.020294189453125,0.050537109375,0.40802001953125,0.1220703125,0.30517578125,-0.18310546875,0.108642578125,0.004150390625,0.9981689453125,-143.0,122.0,-21.0,101944.0,-5.146000385284424,0,0
1969.244018,-0.91131591796875,0.020294189453125,0.050537109375,0.40802001953125,0.0,0.244140625,-0.06103515625,0.1077880859375,0.004638671875,0.998046875,-143.0,122.0,-21.0,101944.0,-5.146000385284424,0,0
1969.250997,-0.91131591796875,0.020294189453125,0.050506591796875,0.40802001953125,-0.18310546875,0.3662109375,0.06103515625,0.107666015625,0.0032958984375,0.9964599609375,-143.0,122.0,-21.0,101944.0,-5.146000385284424,0,0
1969.257996,-0.91131591796875,0.020294189453125,0.050506591796875,0.40802001953125,-0.1220703125,0.30517578125,0.244140625,0.1085205078125,0.0035400390625,0.999755859375,-143.0,122.0,-21.0,101944.0,-5.146000385284424,0,0
1969.265017,-0.91131591796875,0.02032470703125,0.050506591796875,0.40802001953125,0.06103515625,0.18310546875,-0.1220703125,0.1116943359375,0.0015869140625,0.9976806640625,-143.0,122.0,-21.0,101944.0,-5.146000385284424,0,0
1969.272001,-0.91131591796875,0.02032470703125,0.050506591796875,0.40802001953125,0.06103515625,0.1220703125,0.1220703125,0.110595703125,0.0028076171875,0.9979248046875,-142.0,122.0,-23.0,101944.0,-5.146000385284424,0,0
1969.279018,-0.911285400390625,0.02032470703125,0.050506591796875,0.40814208984375,-0.30517578125,0.06103515625,-0.1220703125,0.111572265625,0.004150390625,0.9970703125,-142.0,122.0,-23.0,101944.0,-5.146000385284424,0,0
1969.285995,-0.911285400390625,0.02032470703125,0.050506591796875,0.40814208984375,0.06103515625,0.1220703125,-0.06103515625,0.1102294921875,0.0030517578125,0.9964599609375,-142.0,122.0,-23.0,101944.0,-5.146000385284424,0,0
1969.292994,-0.911285400390625,0.020355224609375,0.050537109375,0.40814208984375,0.0,0.18310546875,-0.30517578125,0.11083984375,0.00439453125,0.9969482421875,-142.0,122.0,-23.0,101944.0,-5.146000385284424,0,0
1969.300019,-0.911285400390625,0.020355224609375,0.050537109375,0.40814208984375,-0.244140625,0.42724609375,0.06103515625,0.10986328125,0.003173828125,0.996337890625,-142.0,122.0,-23.0,101944.0,-5.146000385284424,0,0
1969.306051,-0.911285400390625,0.020355224609375,0.050537109375,0.40814208984375,-0.244140625,0.42724609375,0.06103515625,0.10986328125,0.003173828125,0.996337890625,-142.0,122.0,-23.0,101944.0,-5.146000385284424,0,0
1969.312995,-0.911285400390625,0.020355224609375,0.050537109375,0.40814208984375,0.1220703125,0.18310546875,0.1220703125,0.10986328125,0.00244140625,0.9970703125,-142.0,122.0,-23.0,101944.0,-5.146000385284424,0,0
1969.320019,-0.911285400390625,0.020355224609375,0.050537109375,0.40814208984375,0.06103515625,0.3662109375,0.1220703125,0.1114501953125,0.0064697265625,0.9986572265625,-142.0,122.0,-23.0,101944.0,-5.146000385284424,0,0
1969.327003,-0.911285400390625,0.02032470703125,0.050537109375,0.40814208984375,-0.06103515625,0.30517578125,-0.06103515625,0.1082763671875,0.0081787109375,0.998046875,-142.0,122.0,-23.0,101944.0,-5.146000385284424,0,0
1969.334018,-0.911285400390625,0.02032470703125,0.050537109375,0.40814208984375,0.1220703125,0.0,0.0,0.109375,0.0045166015625,0.997314453125,-142.0,122.0,-23.0,101944.0,-5.146000385284424,0,0
1969.340997,-0.911285400390625,0.02032470703125,0.050537109375,0.40814208984375,0.0,0.30517578125,-0.06103515625,0.110107421875,0.0042724609375,0.9991455078125,-142.0,122.0,-23.0,101944.0,-5.146000385284424,0,0
1969.362001,-0.911285400390625,0.020355224609375,0.050567626953125,0.40814208984375,-0.1220703125,0.244140625,0.0,0.109130859375,0.002685546875,0.997802734375,-142.0,122.0,-23.0,101944.0,-5.146000385284424,0,0
1969.369018,-0.911285400390625,0.020355224609375,0.050567626953125,0.40814208984375,0.18310546875,0.244140625,0.244140625,0.1099853515625,0.0032958984375,0.9974365234375,-142.0,122.0,-23.0,101944.0,-5.146000385284424,0,0
1969.375995,-0.91131591796875,0.020355224609375,0.050567626953125,0.40802001953125,-0.06103515625,0.0,-0.18310546875,0.1114501953125,0.0013427734375,0.997314453125,-142.0,123.0,-23.0,101944.0,-5.147000312805176,0,0
1969.382994,-0.91131591796875,0.020355224609375,0.050567626953125,0.40802001953125,-0.06103515625,0.42724609375,-0.18310546875,0.108154296875,0.0042724609375,0.9979248046875,-142.0,123.0,-23.0,101944.0,-5.147000312805176,0,0
1969.390019,-0.91131591796875,0.020355224609375,0.050567626953125,0.40802001953125,-0.1220703125,0.244140625,-0.06103515625,0.1099853515625,0.0045166015625,0.9964599609375,-142.0,123.0,-23.0,101944.0,-5.147000312805176,0,0
1969.396998,-0.91131591796875,0.020355224609375,0.050537109375,0.40802001953125,-0.18310546875,0.1220703125,-0.18310546875,0.1068115234375,0.00390625,0.9986572265625,-142.0,123.0,-23.0,101944.0,-5.147000312805176,0,0
1969.40303,-0.91131591796875,0.020355224609375,0.050537109375,0.40802001953125,-0.18310546875,0.1220703125,-0.18310546875,0.1068115234375,0.00390625,0.9986572265625,-142.0,123.0,-23.0,101944.0,-5.147000312805176,0,0
1969.410019,-0.91131591796875,0.020355224609375,0.050537109375,0.40802001953125,-0.1220703125,0.42724609375,-0.244140625,0.109619140625,0.0045166015625,0.9969482421875,-142.0,123.0,-23.0,101944.0,-5.147000312805176,0,0
1969.417003,-0.91131591796875,0.020355224609375,0.050537109375,0.40802001953125,-0.1220703125,0.3662109375,0.1220703125,0.110595703125,0.004150390625,0.99658203125,-142.0,123.0,-23.0,101944.0,-5.147000312805176,0,0
1969.424019,-0.91131591796875,0.020355224609375,0.050567626953125,0.40802001953125,0.1220703125,0.3662109375,0.1220703125,0.108642578125,0.0054931640625,0.9991455078125,-142.0,123.0,-23.0,101944.0,-5.147000312805176,0,0
1969.430997,-0.91131591796875,0.020355224609375,0.050567626953125,0.40802001953125,0.06103515625,0.1220703125,-0.1220703125,0.110107421875,0.0059814453125,0.998779296875,-142.0,123.0,-23.0,101944.0,-5.147000312805176,0,0
1969.452001,-0.91131591796875,0.020355224609375,0.050567626953125,0.40802001953125,-0.18310546875,0.1220703125,0.1220703125,0.1103515625,0.003662109375,0.9974365234375,-142.0,123.0,-23.0,101944.0,-5.147000312805176,0,0
1969.459018,-0.91131591796875,0.02032470703125,0.050567626953125,0.40802001953125,0.06103515625,0.244140625,-0.06103515625,0.1083984375,0.00439453125,0.998291015625,-142.0,123.0,-23.0,101944.0,-5.147000312805176,0,0
1969.465995,-0.91131591796875,0.020355224609375,0.050567626953125,0.40802001953125,-0.06103515625,0.30517578125,0.1220703125,0.1097412109375,0.0032958984375,0.9974365234375,-142.0,123.0,-23.0,101944.0,-5.145000457763672,0,0
1969.472999,-0.91131591796875,0.020355224609375,0.050537109375,0.40802001953125,0.1220703125,0.48828125,0.0,0.1083984375,0.003173828125,0.99853515625,-142.0,124.0,-24.0,101944.0,-5.145000457763672,0,0
1969.48002,-0.911376953125,0.020355224609375,0.050567626953125,0.40789794921875,-0.1220703125,0.244140625,0.06103515625,0.10791015625,0.00439453125,0.996337890625,-142.0,124.0,-24.0,101944.0,-5.145000457763672,0,0
1969.486998,-0.911376953125,0.020355224609375,0.050567626953125,0.40789794921875,0.06103515625,0.18310546875,-0.1220703125,0.1090087890625,0.0030517578125,0.9990234375,-142.0,124.0,-24.0,101944.0,-5.145000457763672,0,0
1969.493031,-0.911376953125,0.020355224609375,0.050567626953125,0.40789794921875,0.06103515625,0.18310546875,-0.1220703125,0.1090087890625,0.0030517578125,0.9990234375,-142.0,124.0,-24.0,101944.0,-5.145000457763672,0,0
1969.50002,-0.911376953125,0.020355224609375,0.050567626953125,0.40789794921875,-0.18310546875,0.18310546875,0.06103515625,0.1082763671875,0.004638671875,0.996337890625,-142.0,124.0,-24.0,101944.0,-5.145000457763672,0,0
1969.507003,-0.911376953125,0.020355224609375,0.050567626953125,0.40789794921875,0.06103515625,0.3662109375,-0.06103515625,0.1083984375,0.003662109375,0.99755859375,-142.0,124.0,-24.0,101944.0,-5.145000457763672,0,0
1969.514018,-0.911376953125,0.020355224609375,0.050537109375,0.40789794921875,0.0,0.244140625,-0.06103515625,0.10791015625,0.00341796875,0.9947509765625,-142.0,124.0,-24.0,101944.0,-5.145000457763672,0,0
1969.520997,-0.911376953125,0.020355224609375,0.050537109375,0.40789794921875,0.0,0.48828125,0.0,0.107666015625,0.0037841796875,0.9952392578125,-142.0,124.0,-24.0,101944.0,-5.145000457763672,0,0
1969.542001,-0.911376953125,0.02032470703125,0.050537109375,0.40789794921875,-0.18310546875,0.244140625,0.18310546875,0.107666015625,0.004638671875,0.9981689453125,-142.0,124.0,-24.0,101944.0,-5.145000457763672,0,0
1969.549018,-0.911376953125,0.02032470703125,0.050537109375,0.40789794921875,0.0,0.18310546875,0.0,0.109375,0.004638671875,0.995849609375,-142.0,124.0,-24.0,101944.0,-5.145000457763672,0,0
1969.555999,-0.911376953125,0.02032470703125,0.050537109375,0.40789794921875,-0.06103515625,0.42724609375,0.18310546875,0.10693359375,0.00439453125,0.998291015625,-142.0,124.0,-24.0,101944.0,-5.145000457763672,0,0
1969.562999,-0.911376953125,0.02032470703125,0.050537109375,0.40789794921875,0.0,0.244140625,0.1220703125,0.1077880859375,0.0030517578125,0.999267578125,-142.0,124.0,-24.0,101944.0,-5.145000457763672,0,0
1969.570019,-0.911376953125,0.02032470703125,0.050537109375,0.40789794921875,0.0,0.42724609375,0.244140625,0.109619140625,0.0052490234375,0.998046875,-142.0,124.0,-24.0,101944.0,-5.145000457763672,0,0
1969.576998,-0.91143798828125,0.02032470703125,0.050537109375,0.40777587890625,0.06103515625,0.3662109375,0.1220703125,0.1092529296875,0.0030517578125,0.9964599609375,-142.0,124.0,-24.0,101944.0,-5.145000457763672,0,0
1969.584018,-0.91143798828125,0.02032470703125,0.050537109375,0.40777587890625,-0.1220703125,0.1220703125,-0.244140625,0.1094970703125,0.00146484375,0.998291015625,-142.0,124.0,-24.0,101944.0,-5.145000457763672,0,0
1969.59005,-0.91143798828125,0.02032470703125,0.050537109375,0.40777587890625,-0.1220703125,0.1220703125,-0.244140625,0.1094970703125,0.00146484375,0.998291015625,-142.0,124.0,-24.0,101944.0,-5.145000457763672,0,0
1969.597003,-0.91143798828125,0.02032470703125,0.050537109375,0.40777587890625,0.1220703125,0.18310546875,-0.1220703125,0.1102294921875,0.0040283203125,0.9989013671875,-142.0,124.0,-24.0,101944.0,-5.145000457763672,0,0
1969.604018,-0.91143798828125,0.02032470703125,0.050537109375,0.40777587890625,-0.06103515625,0.30517578125,0.0,0.108642578125,0.00341796875,0.99609375,-142.0,124.0,-24.0,101944.0,-5.145000457763672,0,0
1969.610997,-0.91143798828125,0.02032470703125,0.050537109375,0.40777587890625,-0.06103515625,0.244140625,0.06103515625,0.1092529296875,0.00537109375,0.9967041015625,-142.0,124.0,-24.0,101944.0,-5.145000457763672,0,0
1969.632001,-0.91143798828125,0.020294189453125,0.050537109375,0.40777587890625,0.1220703125,0.244140625,0.0,0.109130859375,0.004150390625,0.997314453125,-142.0,124.0,-24.0,101944.0,-5.145000457763672,0,0
1969.639019,-0.91143798828125,0.020294189453125,0.050537109375,0.40777587890625,0.0,0.244140625,0.1220703125,0.1085205078125,0.0047607421875,0.9964599609375,-142.0,124.0,-24.0,101944.0,-5.145000457763672,0,0
1969.645995,-0.91143798828125,0.02032470703125,0.050537109375,0.40777587890625,0.06103515625,0.30517578125,-0.06103515625,0.10986328125,0.0023193359375,0.99853515625,-142.0,124.0,-24.0,101944.0,-5.145000457763672,0,0
1969.652994,-0.91143798828125,0.02032470703125,0.050537109375,0.40777587890625,-0.06103515625,0.3662109375,0.0,0.1104736328125,0.0074462890625,0.997314453125,-142.0,124.0,-24.0,101944.0,-5.145000457763672,0,0
1969.660019,-0.91143798828125,0.020294189453125,0.050537109375,0.40777587890625,-0.06103515625,0.18310546875,-0.18310546875,0.1092529296875,0.00537109375,0.9976806640625,-142.0,124.0,-24.0,101944.0,-5.145000457763672,0,0
1969.666998,-0.91143798828125,0.02032470703125,0.050537109375,0.40777587890625,0.0,0.30517578125,0.1220703125,0.1082763671875,0.0040283203125,0.99853515625,-142.0,124.0,-24.0,101944.0,-5.146000385284424,0,0
1969.674018,-0.9114990234375,0.020294189453125,0.050537109375,0.40765380859375,-0.1220703125,0.18310546875,-0.18310546875,0.1090087890625,0.006103515625,0.9986572265625,-142.0,124.0,-26.0,101944.0,-5.146000385284424,0,0
1969.68005,-0.9114990234375,0.020294189453125,0.050537109375,0.40765380859375,-0.1220703125,0.18310546875,-0.18310546875,0.1090087890625,0.006103515625,0.9986572265625,-142.0,124.0,-26.0,101944.0,-5.146000385284424,0,0
1969.687003,-0.9114990234375,0.020294189453125,0.050537109375,0.40765380859375,0.1220703125,0.3662109375,-0.06103515625,0.1080322265625,0.0042724609375,0.9976806640625,-142.0,124.0,-26.0,101944.0,-5.146000385284424,0,0
1969.694018,-0.9114990234375,0.020294189453125,0.050537109375,0.40765380859375,0.1220703125,0.48828125,0.06103515625,0.1112060546875,0.00537109375,0.9996337890625,-142.0,124.0,-26.0,101944.0,-5.146000385284424,0,0
1969.715016,-0.9114990234375,0.020294189453125,0.050537109375,0.40765380859375,-0.1220703125,0.3662109375,0.18310546875,0.1097412109375,0.0047607421875,0.9974365234375,-142.0,124.0,-26.0,101944.0,-5.146000385284424,0,0
1969.722001,-0.9114990234375,0.020294189453125,0.050567626953125,0.40765380859375,-0.30517578125,0.3662109375,-0.1220703125,0.1099853515625,0.00341796875,0.99951171875,-142.0,124.0,-26.0,101944.0,-5.146000385284424,0,0
1969.729018,-0.9114990234375,0.020294189453125,0.050567626953125,0.40765380859375,0.0,0.54931640625,0.06103515625,0.1092529296875,0.002197265625,0.9986572265625,-142.0,124.0,-26.0,101944.0,-5.146000385284424,0,0
1969.735995,-0.9114990234375,0.020294189453125,0.050567626953125,0.40765380859375,-0.1220703125,0.244140625,-0.06103515625,0.1103515625,0.0048828125,0.99658203125,-142.0,124.0,-26.0,101944.0,-5.146000385284424,0,0
1969.742994,-0.9114990234375,0.020294189453125,0.050567626953125,0.40765380859375,0.1220703125,0.244140625,0.06103515625,0.1087646484375,0.004638671875,0.99755859375,-142.0,124.0,-26.0,101944.0,-5.146000385284424,0,0
1969.750019,-0.9114990234375,0.020294189453125,0.050567626953125,0.40765380859375,-0.1220703125,0.244140625,0.0,0.1080322265625,0.0042724609375,0.9969482421875,-142.0,124.0,-26.0,101944.0,-5.146000385284424,0,0
1969.756998,-0.9114990234375,0.020294189453125,0.050567626953125,0.40765380859375,0.06103515625,0.42724609375,-0.18310546875,0.109375,0.004638671875,0.998291015625,-142.0,124.0,-26.0,101944.0,-5.146000385284424,0,0
1969.764018,-0.9114990234375,0.020294189453125,0.050567626953125,0.40765380859375,-0.1220703125,0.30517578125,-0.18310546875,0.1087646484375,0.004638671875,0.9996337890625,-142.0,124.0,-26.0,101944.0,-5.146000385284424,0,0
1969.77005,-0.9114990234375,0.020294189453125,0.050567626953125,0.40765380859375,-0.1220703125,0.30517578125,-0.18310546875,0.1087646484375,0.004638671875,0.9996337890625,-142.0,124.0,-26.0,101944.0,-5.146000385284424,0,0
1969.777003,-0.91156005859375,0.020294189453125,0.050567626953125,0.40753173828125,0.06103515625,0.06103515625,0.30517578125,0.1092529296875,0.0040283203125,0.9989013671875,-142.0,123.0,-24.0,101944.0,-5.145000457763672,0,0
1969.784018,-0.91156005859375,0.020294189453125,0.050567626953125,0.40753173828125,0.06103515625,0.1220703125,0.0,0.1087646484375,0.0037841796875,0.997314453125,-142.0,123.0,-24.0,101944.0,-5.145000457763672,0,0
1969.805017,-0.91156005859375,0.020294189453125,0.050567626953125,0.40753173828125,-0.18310546875,0.30517578125,-0.06103515625,0.108642578125,0.004638671875,0.9979248046875,-142.0,123.0,-24.0,101944.0,-5.145000457763672,0,0
1969.812001,-0.91156005859375,0.020294189453125,0.050567626953125,0.40753173828125,0.06103515625,0.06103515625,0.1220703125,0.1083984375,0.0042724609375,0.998779296875,-142.0,123.0,-24.0,101944.0,-5.145000457763672,0,0
1969.819018,-0.91156005859375,0.020294189453125,0.050567626953125,0.40753173828125,-0.06103515625,0.30517578125,0.244140625,0.1097412109375,0.0062255859375,0.9979248046875,-142.0,123.0,-24.0,101944.0,-5.145000457763672,0,0
1969.825999,-0.911529541015625,0.020294189453125,0.05059814453125,0.40753173828125,0.30517578125,0.30517578125,0.06103515625,0.110107421875,0.0023193359375,0.997314453125,-142.0,123.0,-24.0,101944.0,-5.145000457763672,0,0
1969.832999,-0.911529541015625,0.020294189453125,0.05059814453125,0.40753173828125,0.0,0.244140625,-0.06103515625,0.1092529296875,0.005615234375,0.998291015625,-142.0,123.0,-24.0,101944.0,-5.145000457763672,0,0
1969.84002,-0.911529541015625,0.020294189453125,0.05059814453125,0.40753173828125,0.06103515625,0.42724609375,0.06103515625,0.110595703125,0.005126953125,0.999755859375,-142.0,123.0,-24.0,101944.0,-5.145000457763672,0,0
1969.846998,-0.911529541015625,0.020294189453125,0.05059814453125,0.40753173828125,-0.06103515625,0.244140625,-0.06103515625,0.1085205078125,0.003173828125,1.00048828125,-142.0,123.0,-24.0,101944.0,-5.145000457763672,0,0
1969.854018,-0.911529541015625,0.020294189453125,0.05059814453125,0.40753173828125,0.0,0.30517578125,0.0,0.109619140625,0.0052490234375,1.0006103515625,-142.0,123.0,-24.0,101944.0,-5.145000457763672,0,0
1969.860996,-0.91156005859375,0.020294189453125,0.050567626953125,0.40753173828125,-0.06103515625,0.244140625,0.30517578125,0.1077880859375,0.0045166015625,0.9969482421875,-142.0,123.0,-24.0,101944.0,-5.145000457763672,0,0
1969.867029,-0.91156005859375,0.020294189453125,0.050567626953125,0.40753173828125,-0.06103515625,0.244140625,0.30517578125,0.1077880859375,0.0045166015625,0.9969482421875,-142.0,123.0,-24.0,101944.0,-5.145000457763672,0,0
1969.874018,-0.91156005859375,0.020263671875,0.050567626953125,0.40753173828125,0.30517578125,0.244140625,0.1220703125,0.1064453125,0.0057373046875,0.99951171875,-142.0,123.0,-25.0,101944.0,-5.146000385284424,0,0
1969.880997,-0.911590576171875,0.020263671875,0.050567626953125,0.40740966796875,0.30517578125,0.06103515625,0.1220703125,0.11083984375,0.00390625,0.9979248046875,-142.0,123.0,-25.0,101944.0,-5.146000385284424,0,0
1969.887996,-0.911590576171875,0.020263671875,0.050567626953125,0.40740966796875,0.06103515625,0.18310546875,-0.18310546875,0.109619140625,0.0030517578125,0.9984130859375,-142.0,123.0,-25.0,101944.0,-5.146000385284424,0,0
1969.895016,-0.911590576171875,0.020263671875,0.050567626953125,0.40740966796875,0.18310546875,0.3662109375,0.06103515625,0.1103515625,0.0029296875,0.998046875,-142.0,123.0,-25.0,101944.0,-5.146000385284424,0,0
1969.902001,-0.911590576171875,0.020263671875,0.050567626953125,0.40740966796875,0.0,0.18310546875,-0.06103515625,0.108642578125,0.00537109375,0.995849609375,-142.0,123.0,-25.0,101944.0,-5.146000385284424,0,0
1969.909018,-0.911590576171875,0.020263671875,0.050567626953125,0.40740966796875,0.0,0.3662109375,0.06103515625,0.1090087890625,0.00244140625,0.9964599609375,-142.0,123.0,-25.0,101944.0,-5.146000385284424,0,0
1969.915995,-0.911590576171875,0.020263671875,0.050567626953125,0.40740966796875,0.0,0.244140625,0.18310546875,0.110107421875,0.00341796875,0.9986572265625,-142.0,123.0,-25.0,101944.0,-5.146000385284424,0,0
1969.922994,-0.911590576171875,0.020294189453125,0.050567626953125,0.40740966796875,0.1220703125,0.48828125,0.0,0.1083984375,0.00244140625,0.9984130859375,-142.0,123.0,-25.0,101944.0,-5.146000385284424,0,0
1969.930019,-0.911590576171875,0.020294189453125,0.05059814453125,0.40740966796875,-0.06103515625,0.18310546875,-0.18310546875,0.1104736328125,0.0050048828125,0.99609375,-142.0,123.0,-25.0,101944.0,-5.146000385284424,0,0
1969.936998,-0.911590576171875,0.020294189453125,0.050567626953125,0.40740966796875,0.06103515625,0.1220703125,-0.06103515625,0.1064453125,0.0040283203125,0.9981689453125,-142.0,123.0,-25.0,101944.0,-5.146000385284424,0,0
1969.944018,-0.911590576171875,0.020294189453125,0.050567626953125,0.40740966796875,0.0,0.0,-0.06103515625,0.1070556640625,0.004150390625,0.9984130859375,-142.0,123.0,-25.0,101944.0,-5.146000385284424,0,0
1969.950996,-0.911590576171875,0.020294189453125,0.050567626953125,0.40740966796875,0.1220703125,0.42724609375,0.3662109375,0.1083984375,0.003173828125,0.9964599609375,-142.0,123.0,-25.0,101944.0,-5.146000385284424,0,0
1969.957029,-0.911590576171875,0.020294189453125,0.050567626953125,0.40740966796875,0.1220703125,0.42724609375,0.3662109375,0.1083984375,0.003173828125,0.9964599609375,-142.0,123.0,-25.0,101944.0,-5.146000385284424,0,0
1969.977996,-0.911651611328125,0.020294189453125,0.050567626953125,0.40728759765625,-0.1220703125,0.244140625,-0.06103515625,0.1090087890625,0.002685546875,0.9984130859375,-143.0,124.0,-24.0,101944.0,-5.146000385284424,0,0
1969.985016,-0.911651611328125,0.020263671875,0.050567626953125,0.40728759765625,0.06103515625,0.1220703125,0.0,0.111083984375,0.0048828125,0.998046875,-143.0,124.0,-24.0,101944.0,-5.146000385284424,0,0
1969.992001,-0.911651611328125,0.020263671875,0.050567626953125,0.40728759765625,0.0,0.3662109375,-0.18310546875,0.105712890625,0.00341796875,0.99755859375,-143.0,124.0,-24.0,101944.0,-5.146000385284424,0,0
