Time stamp(sec),quaternion_0,quaternion_1,quaternion_2,quaternion_3,roll_angular_rate,pitch_angular_rate,yaw_angular_rate,acc_X,acc_Y,acc_Z,mag_X,mag_Y,mag_Z,pressure,altitude
2659.682001,-0.165557861328125,0.110565185546875,0.079742431640625,0.976715087890625,-14.5263671875,-22.705078125,24.658203125,0.34228515625,0.154296875,0.9393310546875,-96.0,-294.0,-59.0,101929.0,-5.020000457763672,0,0
2659.689015,-0.166473388671875,0.1121826171875,0.0792236328125,0.976409912109375,-18.310546875,-31.55517578125,30.8837890625,0.356201171875,0.1099853515625,0.942138671875,-96.0,-294.0,-59.0,101929.0,-5.020000457763672,0,0
2659.695996,-0.168304443359375,0.115264892578125,0.078399658203125,0.975799560546875,-15.44189453125,-33.935546875,31.005859375,0.330322265625,0.13720703125,0.96533203125,-96.0,-294.0,-59.0,101929.0,-5.020000457763672,0,0
2659.702995,-0.170135498046875,0.11785888671875,0.077301025390625,0.975250244140625,-17.333984375,-31.982421875,31.43310546875,0.2451171875,0.073974609375,1.01220703125,-96.0,-294.0,-59.0,101929.0,-5.020000457763672,0,0
2659.710019,-0.17095947265625,0.119049072265625,0.076812744140625,0.975006103515625,-15.7470703125,-33.14208984375,28.50341796875,0.2255859375,0.108642578125,1.0130615234375,-96.0,-294.0,-59.0,101929.0,-5.020000457763672,0,0
2659.717003,-0.172271728515625,0.121124267578125,0.075775146484375,0.974609375,-16.29638671875,-32.65380859375,23.4375,0.188232421875,0.1019287109375,1.0615234375,-96.0,-294.0,-59.0,101929.0,-5.020000457763672,0,0
2659.724018,-0.17327880859375,0.12310791015625,0.075042724609375,0.9742431640625,-15.56396484375,-32.89794921875,18.61572265625,0.2222900390625,0.115478515625,1.0223388671875,-96.0,-294.0,-59.0,101929.0,-5.020000457763672,0,0
2659.730997,-0.1737060546875,0.1243896484375,0.074676513671875,0.974029541015625,-15.7470703125,-38.14697265625,17.08984375,0.2274169921875,0.115966796875,0.981689453125,-101.0,-296.0,-61.0,101929.0,-5.020000457763672,0,0
2659.737996,-0.16888427734375,0.12713623046875,0.073760986328125,0.974609375,-9.6435546875,-35.46142578125,11.41357421875,0.2406005859375,0.1292724609375,1.0377197265625,-101.0,-296.0,-61.0,101929.0,-5.020000457763672,0,0
2659.745016,-0.168975830078125,0.129547119140625,0.073883056640625,0.9742431640625,-4.8828125,-39.61181640625,4.08935546875,0.208984375,0.1265869140625,0.9774169921875,-101.0,-296.0,-61.0,101929.0,-5.020000457763672,0,0
2659.751049,-0.168975830078125,0.129547119140625,0.073883056640625,0.9742431640625,-4.8828125,-39.61181640625,4.08935546875,0.208984375,0.1265869140625,0.9774169921875,-101.0,-296.0,-61.0,101929.0,-5.020000457763672,0,0
2659.757997,-0.168701171875,0.132080078125,0.074066162109375,0.97393798828125,0.6103515625,-31.43310546875,-0.732421875,0.20458984375,0.059814453125,1.0081787109375,-101.0,-296.0,-61.0,101929.0,-5.020000457763672,0,0
2659.765022,-0.16845703125,0.134124755859375,0.074462890625,0.973663330078125,2.86865234375,-33.75244140625,-3.0517578125,0.2840576171875,0.0631103515625,0.9197998046875,-101.0,-296.0,-61.0,101929.0,-5.020000457763672,0,0
2659.772001,-0.16790771484375,0.136993408203125,0.074920654296875,0.97332763671875,-0.8544921875,-39.12353515625,-6.89697265625,0.3206787109375,0.1055908203125,0.9259033203125,-101.0,-296.0,-61.0,101929.0,-5.020000457763672,0,0
2659.779015,-0.167633056640625,0.138427734375,0.074981689453125,0.973175048828125,-2.13623046875,-39.306640625,-5.37109375,0.31640625,0.05322265625,0.946044921875,-101.0,-296.0,-61.0,101929.0,-5.01800012588501,0,0
2659.785996,-0.166717529296875,0.143096923828125,0.075439453125,0.972625732421875,-1.46484375,-44.0673828125,-5.67626953125,0.300048828125,0.0770263671875,0.8851318359375,-101.0,-296.0,-61.0,101929.0,-5.01800012588501,0,0
2659.792995,-0.16650390625,0.144561767578125,0.07586669921875,0.972412109375,4.08935546875,-41.19873046875,-4.2724609375,0.333740234375,0.097412109375,0.90576171875,-101.0,-296.0,-61.0,101929.0,-5.01800012588501,0,0
2659.800019,-0.166259765625,0.1461181640625,0.076263427734375,0.972198486328125,5.4931640625,-42.54150390625,-4.82177734375,0.3350830078125,0.06591796875,0.8671875,-101.0,-296.0,-61.0,101929.0,-5.01800012588501,0,0
2659.807003,-0.165191650390625,0.151123046875,0.07666015625,0.971588134765625,-2.62451171875,-47.9736328125,-6.16455078125,0.2667236328125,0.0076904296875,0.899169921875,-101.0,-296.0,-61.0,101929.0,-5.01800012588501,0,0
2659.814018,-0.164703369140625,0.152557373046875,0.0770263671875,0.971405029296875,0.42724609375,-48.583984375,-10.009765625,0.2479248046875,0.111572265625,0.9132080078125,-101.0,-296.0,-61.0,101929.0,-5.01800012588501,0,0
2659.820997,-0.163543701171875,0.156280517578125,0.07781982421875,0.970947265625,1.77001953125,-47.42431640625,-9.09423828125,0.2470703125,0.035400390625,0.9412841796875,-101.0,-296.0,-61.0,101929.0,-5.01800012588501,0,0
2659.827996,-0.16314697265625,0.15728759765625,0.078460693359375,0.970794677734375,6.34765625,-42.54150390625,-9.94873046875,0.2437744140625,0.0615234375,0.9864501953125,-107.0,-295.0,-62.0,101929.0,-5.01800012588501,0,0
2659.835017,-0.164215087890625,0.157958984375,0.079498291015625,0.970428466796875,15.68603515625,-34.72900390625,-9.94873046875,0.27490234375,0.1343994140625,1.0374755859375,-107.0,-295.0,-62.0,101929.0,-5.01800012588501,0,0
2659.855022,-0.163299560546875,0.161895751953125,0.084228515625,0.969512939453125,28.13720703125,-22.4609375,-4.150390625,0.3717041015625,0.1431884765625,1.048583984375,-107.0,-295.0,-62.0,101929.0,-5.01800012588501,0,0
2659.862001,-0.16314697265625,0.164306640625,0.08740234375,0.9688720703125,25.634765625,-27.03857421875,-2.3193359375,0.37890625,0.1365966796875,1.0162353515625,-107.0,-295.0,-62.0,101929.0,-5.01800012588501,0,0
2659.869015,-0.16314697265625,0.164947509765625,0.088470458984375,0.968658447265625,28.62548828125,-23.193359375,-3.0517578125,0.39453125,0.11767578125,1.0279541015625,-107.0,-295.0,-62.0,101929.0,-5.01800012588501,0,0
2659.876,-0.16314697265625,0.165802001953125,0.089599609375,0.968414306640625,26.7333984375,-24.71923828125,-2.74658203125,0.416015625,0.1295166015625,0.944580078125,-107.0,-295.0,-62.0,101929.0,-5.021000385284424,0,0
2659.882999,-0.162384033203125,0.16925048828125,0.09307861328125,0.967620849609375,25.2685546875,-33.50830078125,-9.33837890625,0.4249267578125,0.202392578125,0.9554443359375,-107.0,-295.0,-62.0,101929.0,-5.021000385284424,0,0
2659.89002,-0.162109375,0.17041015625,0.09405517578125,0.967376708984375,21.54541015625,-33.0810546875,-9.1552734375,0.4288330078125,0.1195068359375,0.9290771484375,-107.0,-295.0,-62.0,101929.0,-5.021000385284424,0,0
2659.897003,-0.16131591796875,0.172943115234375,0.096343994140625,0.966827392578125,22.15576171875,-38.51318359375,-12.20703125,0.417724609375,0.193115234375,0.9317626953125,-107.0,-295.0,-62.0,101929.0,-5.021000385284424,0,0
2659.904018,-0.160491943359375,0.175323486328125,0.098358154296875,0.966339111328125,20.08056640625,-40.22216796875,-12.02392578125,0.369384765625,0.1552734375,0.9852294921875,-107.0,-295.0,-62.0,101929.0,-5.021000385284424,0,0
2659.910997,-0.15985107421875,0.177154541015625,0.100250244140625,0.965911865234375,20.08056640625,-38.2080078125,-10.498046875,0.352783203125,0.1549072265625,1.0128173828125,-107.0,-295.0,-62.0,101929.0,-5.021000385284424,0,0
2659.917996,-0.15966796875,0.17791748046875,0.10125732421875,0.9656982421875,22.64404296875,-32.8369140625,-5.126953125,0.358154296875,0.176025390625,1.0384521484375,-107.0,-295.0,-62.0,101929.0,-5.021000385284424,0,0
2659.925016,-0.15936279296875,0.179168701171875,0.102996826171875,0.96533203125,18.00537109375,-23.4375,-4.69970703125,0.3995361328125,0.170654296875,1.0020751953125,-107.0,-295.0,-62.0,101929.0,-5.021000385284424,0,0
2659.945022,-0.16107177734375,0.180755615234375,0.107177734375,0.96429443359375,22.0947265625,-9.82666015625,1.28173828125,0.4140625,0.1500244140625,0.931640625,-112.0,-295.0,-65.0,101929.0,-5.021000385284424,0,0
2659.952001,-0.161468505859375,0.1812744140625,0.108551025390625,0.963958740234375,18.85986328125,-13.12255859375,6.591796875,0.4112548828125,0.1153564453125,0.9124755859375,-112.0,-295.0,-65.0,101929.0,-5.021000385284424,0,0
2659.959015,-0.16180419921875,0.18133544921875,0.108856201171875,0.9638671875,19.04296875,-6.40869140625,4.94384765625,0.3577880859375,0.0465087890625,0.9739990234375,-112.0,-295.0,-65.0,101929.0,-5.021000385284424,0,0
2659.965995,-0.162261962890625,0.1812744140625,0.110504150390625,0.963623046875,20.01953125,-3.60107421875,-0.79345703125,0.342041015625,0.096923828125,0.927734375,-112.0,-295.0,-65.0,101929.0,-5.021000385284424,0,0
2659.972995,-0.162384033203125,0.181304931640625,0.111114501953125,0.963531494140625,22.39990234375,-5.859375,-0.8544921875,0.3656005859375,0.0980224609375,0.92529296875,-112.0,-295.0,-65.0,101929.0,-5.021000385284424,0,0
2659.980019,-0.16259765625,0.181671142578125,0.11151123046875,0.96337890625,17.63916015625,-10.31494140625,2.44140625,0.3790283203125,0.0621337890625,0.8564453125,-112.0,-295.0,-65.0,101929.0,-5.020000457763672,0,0
2659.987003,-0.162567138671875,0.18304443359375,0.1129150390625,0.96295166015625,9.033203125,-20.3857421875,0.79345703125,0.372802734375,0.055908203125,0.83837890625,-112.0,-295.0,-65.0,101929.0,-5.020000457763672,0,0
2659.994018,-0.16265869140625,0.18310546875,0.11322021484375,0.962890625,12.451171875,-7.2021484375,0.48828125,0.35498046875,0.1177978515625,0.9593505859375,-112.0,-295.0,-65.0,101929.0,-5.020000457763672,0,0
2660.000997,-0.162994384765625,0.1832275390625,0.114532470703125,0.962646484375,12.14599609375,-8.4228515625,1.64794921875,0.346435546875,0.1192626953125,0.8895263671875,-112.0,-295.0,-65.0,101929.0,-5.020000457763672,0,0
2660.007996,-0.16302490234375,0.183319091796875,0.11492919921875,0.96258544921875,8.60595703125,-8.23974609375,1.64794921875,0.35302734375,0.195556640625,0.933349609375,-112.0,-295.0,-65.0,101929.0,-5.020000457763672,0,0
2660.015016,-0.1632080078125,0.18304443359375,0.115386962890625,0.962554931640625,17.88330078125,-2.0751953125,2.0751953125,0.3328857421875,0.141845703125,1.0057373046875,-112.0,-295.0,-65.0,101929.0,-5.020000457763672,0,0
2660.022001,-0.164337158203125,0.1829833984375,0.11614990234375,0.9622802734375,12.51220703125,-0.67138671875,12.14599609375,0.3953857421875,0.0914306640625,0.915771484375,-112.0,-295.0,-65.0,101929.0,-5.020000457763672,0,0
2660.028033,-0.164337158203125,0.1829833984375,0.11614990234375,0.9622802734375,12.51220703125,-0.67138671875,12.14599609375,0.3953857421875,0.0914306640625,0.915771484375,-112.0,-295.0,-65.0,101929.0,-5.020000457763672,0,0
2660.035022,-0.164215087890625,0.18341064453125,0.11700439453125,0.96209716796875,16.29638671875,-3.72314453125,13.5498046875,0.395751953125,0.1275634765625,0.8414306640625,-119.0,-297.0,-65.0,101929.0,-5.020000457763672,0,0
2660.042001,-0.166107177734375,0.183807373046875,0.117767333984375,0.96160888671875,13.916015625,-5.92041015625,15.5029296875,0.373779296875,0.1063232421875,0.822998046875,-119.0,-297.0,-65.0,101929.0,-5.020000457763672,0,0
2660.049015,-0.167022705078125,0.183746337890625,0.117889404296875,0.961456298828125,15.7470703125,1.40380859375,21.97265625,0.33740234375,0.064697265625,0.8466796875,-119.0,-297.0,-65.0,101929.0,-5.020000457763672,0,0
2660.055996,-0.169097900390625,0.183746337890625,0.117889404296875,0.961090087890625,16.4794921875,4.638671875,25.2685546875,0.34765625,0.052978515625,0.8387451171875,-119.0,-297.0,-65.0,101929.0,-5.020000457763672,0,0
2660.062995,-0.171417236328125,0.184234619140625,0.11798095703125,0.9605712890625,10.25390625,-1.40380859375,32.40966796875,0.399658203125,0.0880126953125,0.8062744140625,-119.0,-297.0,-65.0,101929.0,-5.020000457763672,0,0
2660.070019,-0.17266845703125,0.1845703125,0.117950439453125,0.960296630859375,8.6669921875,-2.38037109375,34.85107421875,0.4052734375,0.0989990234375,0.8023681640625,-119.0,-297.0,-65.0,101929.0,-5.020000457763672,0,0
2660.077003,-0.175262451171875,0.185577392578125,0.11761474609375,0.959686279296875,5.31005859375,-2.5634765625,36.62109375,0.4151611328125,0.0989990234375,0.817626953125,-119.0,-297.0,-65.0,101929.0,-5.023000240325928,0,0
2660.084018,-0.17779541015625,0.186920166015625,0.11749267578125,0.958953857421875,2.9296875,-13.24462890625,39.4287109375,0.408935546875,0.154296875,0.865478515625,-119.0,-297.0,-65.0,101929.0,-5.023000240325928,0,0
2660.090997,-0.180389404296875,0.188018798828125,0.117279052734375,0.958282470703125,4.5166015625,-9.6435546875,38.75732421875,0.4097900390625,0.1689453125,0.9085693359375,-119.0,-297.0,-65.0,101929.0,-5.023000240325928,0,0
2660.097996,-0.181640625,0.18865966796875,0.11724853515625,0.957916259765625,1.220703125,-11.16943359375,39.24560546875,0.44287109375,0.185546875,0.8760986328125,-119.0,-297.0,-65.0,101929.0,-5.023000240325928,0,0
2660.119018,-0.18719482421875,0.19219970703125,0.117279052734375,0.956146240234375,-0.42724609375,-17.578125,33.26416015625,0.433349609375,0.2073974609375,0.938720703125,-119.0,-297.0,-65.0,101929.0,-5.023000240325928,0,0
2660.125053,-0.18719482421875,0.19219970703125,0.117279052734375,0.956146240234375,-0.42724609375,-17.578125,33.26416015625,0.433349609375,0.2073974609375,0.938720703125,-119.0,-297.0,-65.0,101929.0,-5.023000240325928,0,0
2660.132001,-0.18988037109375,0.193359375,0.117401123046875,0.95538330078125,2.197265625,-8.97216796875,26.85546875,0.4169921875,0.2017822265625,1.0147705078125,-126.0,-299.0,-65.0,101929.0,-5.023000240325928,0,0
2660.139015,-0.189971923828125,0.194183349609375,0.11676025390625,0.95526123046875,-4.57763671875,-7.87353515625,23.98681640625,0.4345703125,0.2119140625,0.9610595703125,-126.0,-299.0,-65.0,101929.0,-5.023000240325928,0,0
2660.146,-0.191070556640625,0.194580078125,0.116668701171875,0.954986572265625,-5.0048828125,-4.5166015625,18.98193359375,0.4383544921875,0.2598876953125,0.9674072265625,-126.0,-299.0,-65.0,101929.0,-5.023000240325928,0,0
2660.152999,-0.19183349609375,0.19500732421875,0.116668701171875,0.954742431640625,-6.16455078125,-2.99072265625,14.0380859375,0.46728515625,0.263916015625,0.942138671875,-126.0,-299.0,-65.0,101929.0,-5.023000240325928,0,0
2660.16002,-0.19207763671875,0.195404052734375,0.11663818359375,0.954620361328125,-9.521484375,-5.67626953125,11.3525390625,0.4805908203125,0.2559814453125,0.8900146484375,-126.0,-299.0,-65.0,101929.0,-5.023000240325928,0,0
2660.167003,-0.192291259765625,0.196624755859375,0.1165771484375,0.954315185546875,-7.8125,-5.92041015625,4.0283203125,0.4794921875,0.2193603515625,0.91259765625,-126.0,-299.0,-65.0,101929.0,-5.023000240325928,0,0
2660.174019,-0.192230224609375,0.19696044921875,0.11651611328125,0.95428466796875,-9.21630859375,-4.94384765625,2.13623046875,0.4766845703125,0.2110595703125,0.9000244140625,-126.0,-299.0,-65.0,101929.0,-5.023000240325928,0,0
2660.180997,-0.192138671875,0.197174072265625,0.11639404296875,0.954254150390625,-9.09423828125,-1.953125,-0.06103515625,0.4808349609375,0.2083740234375,0.9281005859375,-126.0,-299.0,-65.0,101929.0,-5.021000385284424,0,0
2660.202001,-0.190185546875,0.198822021484375,0.11480712890625,0.954498291015625,-11.962890625,0.30517578125,-8.30078125,0.43896484375,0.1881103515625,0.84765625,-126.0,-299.0,-65.0,101929.0,-5.021000385284424,0,0
2660.209018,-0.189910888671875,0.1988525390625,0.11444091796875,0.95458984375,-11.16943359375,2.38037109375,-6.28662109375,0.4267578125,0.131103515625,0.869384765625,-126.0,-299.0,-65.0,101929.0,-5.021000385284424,0,0
2660.215053,-0.189910888671875,0.1988525390625,0.11444091796875,0.95458984375,-11.16943359375,2.38037109375,-6.28662109375,0.4267578125,0.131103515625,0.869384765625,-126.0,-299.0,-65.0,101929.0,-5.021000385284424,0,0
2660.222001,-0.1888427734375,0.1982421875,0.11199951171875,0.955230712890625,-17.08984375,8.9111328125,-5.18798828125,0.379150390625,0.077880859375,0.9659423828125,-126.0,-299.0,-65.0,101929.0,-5.021000385284424,0,0
2660.229015,-0.1885986328125,0.197845458984375,0.11126708984375,0.9554443359375,-17.08984375,8.9111328125,-5.18798828125,0.379150390625,0.077880859375,0.9659423828125,-134.0,-301.0,-63.0,101929.0,-5.021000385284424,0,0
2660.235996,-0.189422607421875,0.197418212890625,0.11077880859375,0.955413818359375,-17.08984375,8.48388671875,-4.94384765625,0.369384765625,0.10791015625,0.903076171875,-134.0,-301.0,-63.0,101929.0,-5.021000385284424,0,0
2660.242995,-0.18878173828125,0.195770263671875,0.10894775390625,0.956085205078125,-12.39013671875,10.92529296875,-6.40869140625,0.3603515625,0.134521484375,0.9351806640625,-134.0,-301.0,-63.0,101929.0,-5.021000385284424,0,0
2660.250019,-0.1885986328125,0.195220947265625,0.10833740234375,0.956298828125,-12.39013671875,14.58740234375,-5.2490234375,0.34228515625,0.088623046875,0.865478515625,-134.0,-301.0,-63.0,101929.0,-5.021000385284424,0,0
2660.257003,-0.188201904296875,0.194091796875,0.107452392578125,0.95672607421875,-8.9111328125,12.3291015625,-6.65283203125,0.3316650390625,0.109130859375,0.856201171875,-134.0,-301.0,-63.0,101929.0,-5.021000385284424,0,0
2660.264018,-0.187957763671875,0.19293212890625,0.10650634765625,0.957122802734375,-7.8125,14.2822265625,-4.8828125,0.3214111328125,0.0621337890625,0.849609375,-134.0,-301.0,-63.0,101929.0,-5.021000385284424,0,0
2660.270997,-0.188140869140625,0.1920166015625,0.105560302734375,0.957366943359375,-1.708984375,16.4794921875,1.28173828125,0.3636474609375,0.0029296875,0.890625,-134.0,-301.0,-63.0,101929.0,-5.021000385284424,0,0
2660.277996,-0.18829345703125,0.191802978515625,0.1051025390625,0.957427978515625,-6.7138671875,13.73291015625,-0.244140625,0.384521484375,0.087158203125,0.8280029296875,-134.0,-301.0,-63.0,101929.0,-5.01800012588501,0,0
2660.285016,-0.1885986328125,0.191162109375,0.1044921875,0.957550048828125,-3.2958984375,10.55908203125,4.33349609375,0.3685302734375,0.0814208984375,0.896240234375,-134.0,-301.0,-63.0,101929.0,-5.01800012588501,0,0
2660.292001,-0.18927001953125,0.190093994140625,0.1036376953125,0.957733154296875,-3.173828125,13.00048828125,6.40869140625,0.360595703125,0.067626953125,0.9189453125,-134.0,-301.0,-63.0,101929.0,-5.01800012588501,0,0
2660.299018,-0.189666748046875,0.18939208984375,0.103179931640625,0.957855224609375,-2.5634765625,18.1884765625,9.521484375,0.35498046875,0.0704345703125,0.9456787109375,-134.0,-301.0,-63.0,101929.0,-5.01800012588501,0,0
2660.305995,-0.19091796875,0.187225341796875,0.1015625,0.95819091796875,-5.67626953125,21.1181640625,10.986328125,0.3626708984375,0.0838623046875,0.955322265625,-134.0,-301.0,-63.0,101929.0,-5.01800012588501,0,0
2660.312023,-0.19091796875,0.187225341796875,0.1015625,0.95819091796875,-5.67626953125,21.1181640625,10.986328125,0.3626708984375,0.0838623046875,0.955322265625,-134.0,-301.0,-63.0,101929.0,-5.01800012588501,0,0
2660.319015,-0.191619873046875,0.185699462890625,0.1005859375,0.95843505859375,-9.58251953125,21.6064453125,11.77978515625,0.3800048828125,0.1187744140625,0.952392578125,-134.0,-301.0,-63.0,101929.0,-5.01800012588501,0,0
2660.325995,-0.1923828125,0.18438720703125,0.10015869140625,0.958587646484375,-4.21142578125,21.240234375,11.53564453125,0.4185791015625,0.1710205078125,0.91455078125,-143.0,-302.0,-63.0,101929.0,-5.01800012588501,0,0
2660.332995,-0.19232177734375,0.183502197265625,0.100189208984375,0.958770751953125,-2.38037109375,19.34814453125,7.568359375,0.4376220703125,0.210693359375,0.884033203125,-143.0,-302.0,-63.0,101929.0,-5.01800012588501,0,0
2660.340019,-0.192596435546875,0.1829833984375,0.100311279296875,0.95880126953125,2.5634765625,18.1884765625,6.89697265625,0.4366455078125,0.1876220703125,0.9268798828125,-143.0,-302.0,-63.0,101929.0,-5.01800012588501,0,0
2660.347003,-0.19354248046875,0.18206787109375,0.10028076171875,0.95880126953125,1.708984375,14.404296875,8.1787109375,0.462158203125,0.16845703125,0.92529296875,-143.0,-302.0,-63.0,101929.0,-5.01800012588501,0,0
2660.354018,-0.193756103515625,0.181915283203125,0.1004638671875,0.958770751953125,1.708984375,11.04736328125,5.67626953125,0.4669189453125,0.18896484375,0.9013671875,-143.0,-302.0,-63.0,101929.0,-5.01800012588501,0,0
2660.360997,-0.194305419921875,0.181488037109375,0.100799560546875,0.958709716796875,2.86865234375,8.72802734375,5.615234375,0.4549560546875,0.1947021484375,0.9228515625,-143.0,-302.0,-63.0,101929.0,-5.01800012588501,0,0
2660.382001,-0.193817138671875,0.18017578125,0.10137939453125,0.958984375,-3.84521484375,6.28662109375,-2.3193359375,0.4239501953125,0.1676025390625,0.936279296875,-143.0,-302.0,-63.0,101929.0,-5.019000053405762,0,0
2660.389018,-0.193572998046875,0.17974853515625,0.10162353515625,0.959075927734375,0.9765625,11.3525390625,-7.14111328125,0.41259765625,0.2169189453125,0.9666748046875,-143.0,-302.0,-63.0,101929.0,-5.019000053405762,0,0
2660.395995,-0.19287109375,0.17913818359375,0.10223388671875,0.95928955078125,0.91552734375,9.94873046875,-9.21630859375,0.4224853515625,0.2020263671875,0.92724609375,-143.0,-302.0,-63.0,101929.0,-5.019000053405762,0,0
2660.402023,-0.19287109375,0.17913818359375,0.10223388671875,0.95928955078125,0.91552734375,9.94873046875,-9.21630859375,0.4224853515625,0.2020263671875,0.92724609375,-143.0,-302.0,-63.0,101929.0,-5.019000053405762,0,0
2660.409015,-0.1915283203125,0.177978515625,0.102874755859375,0.959686279296875,3.41796875,13.916015625,-15.68603515625,0.398193359375,0.156494140625,0.9400634765625,-143.0,-302.0,-63.0,101929.0,-5.019000053405762,0,0
2660.416,-0.19049072265625,0.17718505859375,0.103057861328125,0.96002197265625,0.18310546875,10.8642578125,-16.05224609375,0.4049072265625,0.129150390625,0.8917236328125,-143.0,-302.0,-63.0,101929.0,-5.019000053405762,0,0
2660.422999,-0.18939208984375,0.176239013671875,0.10333251953125,0.96038818359375,0.732421875,11.1083984375,-18.24951171875,0.3831787109375,0.1241455078125,0.87255859375,-143.0,-302.0,-63.0,101929.0,-5.019000053405762,0,0
2660.43002,-0.18878173828125,0.17596435546875,0.103424072265625,0.960540771484375,0.732421875,8.30078125,-18.49365234375,0.379150390625,0.1256103515625,0.858154296875,-150.0,-302.0,-64.0,101929.0,-5.019000053405762,0,0
2660.437003,-0.19012451171875,0.17535400390625,0.1038818359375,0.960357666015625,5.7373046875,8.97216796875,-15.5029296875,0.34912109375,0.1007080078125,0.895263671875,-150.0,-302.0,-64.0,101929.0,-5.019000053405762,0,0
2660.444018,-0.189239501953125,0.175567626953125,0.103759765625,0.96051025390625,-1.77001953125,-3.0517578125,-11.3525390625,0.35693359375,0.05615234375,0.79541015625,-150.0,-302.0,-64.0,101929.0,-5.019000053405762,0,0
2660.465017,-0.1883544921875,0.174041748046875,0.103057861328125,0.961029052734375,0.30517578125,2.5634765625,-4.150390625,0.2579345703125,0.031982421875,0.9237060546875,-150.0,-302.0,-64.0,101929.0,-5.019000053405762,0,0
2660.472001,-0.18829345703125,0.173065185546875,0.10284423828125,0.96124267578125,3.90625,6.65283203125,-3.35693359375,0.2818603515625,0.0567626953125,0.9456787109375,-150.0,-302.0,-64.0,101929.0,-5.019000053405762,0,0
2660.479018,-0.18853759765625,0.172698974609375,0.10260009765625,0.961273193359375,5.06591796875,7.01904296875,3.60107421875,0.3011474609375,0.014892578125,0.908447265625,-150.0,-302.0,-64.0,101929.0,-5.019000053405762,0,0
2660.485999,-0.188812255859375,0.172119140625,0.102630615234375,0.961334228515625,6.53076171875,5.0048828125,1.953125,0.3248291015625,0.0797119140625,0.866943359375,-150.0,-302.0,-64.0,101929.0,-5.019000053405762,0,0
2660.492999,-0.18902587890625,0.17156982421875,0.102783203125,0.96136474609375,7.01904296875,4.82177734375,2.44140625,0.3013916015625,0.1226806640625,0.9259033203125,-150.0,-302.0,-64.0,101929.0,-5.019000053405762,0,0
2660.499032,-0.18902587890625,0.17156982421875,0.102783203125,0.96136474609375,7.01904296875,4.82177734375,2.44140625,0.3013916015625,0.1226806640625,0.9259033203125,-150.0,-302.0,-64.0,101929.0,-5.019000053405762,0,0
2660.506,-0.189910888671875,0.17010498046875,0.102813720703125,0.961456298828125,6.28662109375,8.7890625,4.82177734375,0.3333740234375,0.091552734375,0.9400634765625,-150.0,-302.0,-64.0,101929.0,-5.019000053405762,0,0
2660.512995,-0.190093994140625,0.169677734375,0.102874755859375,0.96148681640625,5.859375,8.544921875,3.72314453125,0.3292236328125,0.1312255859375,0.9447021484375,-150.0,-302.0,-64.0,101929.0,-5.019000053405762,0,0
2660.520019,-0.190338134765625,0.169189453125,0.1029052734375,0.961517333984375,5.06591796875,10.43701171875,4.69970703125,0.3336181640625,0.1295166015625,0.9520263671875,-150.0,-302.0,-64.0,101929.0,-5.019000053405762,0,0
2660.527003,-0.1907958984375,0.168365478515625,0.102996826171875,0.9615478515625,2.86865234375,9.765625,5.37109375,0.3631591796875,0.13720703125,0.943359375,-156.0,-303.0,-64.0,101929.0,-5.019000053405762,0,0
2660.534018,-0.1893310546875,0.1678466796875,0.102874755859375,0.961944580078125,0.8544921875,7.99560546875,3.173828125,0.362060546875,0.1810302734375,0.95068359375,-156.0,-303.0,-64.0,101929.0,-5.019000053405762,0,0
2660.540997,-0.189361572265625,0.167327880859375,0.10302734375,0.9620361328125,1.953125,11.29150390625,0.8544921875,0.3587646484375,0.2083740234375,1.0,-156.0,-303.0,-64.0,101929.0,-5.019000053405762,0,0
2660.547996,-0.189666748046875,0.16583251953125,0.103485107421875,0.962188720703125,5.0048828125,16.05224609375,1.28173828125,0.38720703125,0.18359375,0.959228515625,-156.0,-303.0,-64.0,101929.0,-5.019000053405762,0,0
2660.555016,-0.189605712890625,0.165496826171875,0.103759765625,0.96221923828125,4.45556640625,10.986328125,-2.50244140625,0.394775390625,0.2015380859375,0.923583984375,-156.0,-303.0,-64.0,101929.0,-5.019000053405762,0,0
2660.562001,-0.189453125,0.16473388671875,0.1043701171875,0.962310791015625,2.86865234375,11.41357421875,-1.15966796875,0.4320068359375,0.1734619140625,0.9547119140625,-156.0,-303.0,-64.0,101929.0,-5.019000053405762,0,0
2660.569018,-0.189300537109375,0.16455078125,0.104736328125,0.96234130859375,4.2724609375,8.85009765625,-5.37109375,0.4293212890625,0.2108154296875,0.92236328125,-156.0,-303.0,-64.0,101929.0,-5.019000053405762,0,0
2660.575995,-0.1890869140625,0.164398193359375,0.1051025390625,0.96234130859375,4.45556640625,7.6904296875,-6.4697265625,0.43115234375,0.2091064453125,0.930908203125,-156.0,-303.0,-64.0,101929.0,-5.020000457763672,0,0
2660.582994,-0.1883544921875,0.163909912109375,0.105804443359375,0.962493896484375,2.197265625,5.79833984375,-8.9111328125,0.392333984375,0.1898193359375,0.942626953125,-156.0,-303.0,-64.0,101929.0,-5.020000457763672,0,0
2660.589026,-0.1883544921875,0.163909912109375,0.105804443359375,0.962493896484375,2.197265625,5.79833984375,-8.9111328125,0.392333984375,0.1898193359375,0.942626953125,-156.0,-303.0,-64.0,101929.0,-5.020000457763672,0,0
2660.595995,-0.187469482421875,0.1632080078125,0.105865478515625,0.962799072265625,-0.79345703125,6.2255859375,-9.1552734375,0.3741455078125,0.1663818359375,0.96826171875,-156.0,-303.0,-64.0,101929.0,-5.020000457763672,0,0
2660.602995,-0.18682861328125,0.16253662109375,0.10589599609375,0.963043212890625,-0.48828125,7.99560546875,-10.07080078125,0.3485107421875,0.1737060546875,0.9635009765625,-156.0,-303.0,-64.0,101929.0,-5.020000457763672,0,0
2660.610019,-0.186492919921875,0.162139892578125,0.10595703125,0.963134765625,-0.06103515625,8.60595703125,-10.25390625,0.354736328125,0.172119140625,0.9674072265625,-156.0,-303.0,-64.0,101929.0,-5.020000457763672,0,0
2660.617003,-0.185882568359375,0.161468505859375,0.105987548828125,0.96337890625,-0.3662109375,8.97216796875,-9.82666015625,0.366455078125,0.155029296875,0.9560546875,-156.0,-303.0,-64.0,101929.0,-5.020000457763672,0,0
2660.637996,-0.186370849609375,0.15960693359375,0.106353759765625,0.96356201171875,1.28173828125,10.986328125,-10.07080078125,0.362548828125,0.131591796875,0.9224853515625,-161.0,-304.0,-63.0,101929.0,-5.020000457763672,0,0
2660.645016,-0.185821533203125,0.1590576171875,0.106201171875,0.963775634765625,-0.91552734375,9.27734375,-9.521484375,0.358642578125,0.1251220703125,0.9173583984375,-161.0,-304.0,-63.0,101929.0,-5.020000457763672,0,0
2660.652001,-0.185272216796875,0.158599853515625,0.106048583984375,0.963958740234375,-1.220703125,9.27734375,-9.46044921875,0.3614501953125,0.120849609375,0.9090576171875,-161.0,-304.0,-63.0,101929.0,-5.020000457763672,0,0
2660.659018,-0.184967041015625,0.158447265625,0.105987548828125,0.96405029296875,-0.06103515625,6.77490234375,-9.82666015625,0.3563232421875,0.1109619140625,0.8828125,-161.0,-304.0,-63.0,101929.0,-5.020000457763672,0,0
2660.665995,-0.184112548828125,0.15789794921875,0.105804443359375,0.964324951171875,0.9765625,5.06591796875,-10.1318359375,0.33203125,0.0999755859375,0.876708984375,-161.0,-304.0,-63.0,101929.0,-5.020000457763672,0,0
2660.672994,-0.183807373046875,0.1575927734375,0.105712890625,0.964447021484375,1.77001953125,6.103515625,-10.009765625,0.2960205078125,0.0849609375,0.8870849609375,-161.0,-304.0,-63.0,101929.0,-5.020000457763672,0,0
2660.680019,-0.183563232421875,0.1572265625,0.105560302734375,0.964569091796875,1.8310546875,7.6904296875,-9.3994140625,0.2811279296875,0.0712890625,0.888916015625,-161.0,-304.0,-63.0,101929.0,-5.01800012588501,0,0
2660.686051,-0.183563232421875,0.1572265625,0.105560302734375,0.964569091796875,1.8310546875,7.6904296875,-9.3994140625,0.2811279296875,0.0712890625,0.888916015625,-161.0,-304.0,-63.0,101929.0,-5.01800012588501,0,0
2660.692995,-0.18267822265625,0.155303955078125,0.104705810546875,0.96514892578125,0.91552734375,10.55908203125,-8.23974609375,0.2574462890625,0.0657958984375,0.88720703125,-161.0,-304.0,-63.0,101929.0,-5.01800012588501,0,0
2660.700019,-0.182525634765625,0.154754638671875,0.104461669921875,0.965301513671875,0.732421875,12.20703125,-7.568359375,0.2615966796875,0.067626953125,0.89404296875,-161.0,-304.0,-63.0,101929.0,-5.01800012588501,0,0
2660.707003,-0.18212890625,0.1529541015625,0.103668212890625,0.965728759765625,-0.48828125,14.404296875,-6.103515625,0.2791748046875,0.077880859375,0.89697265625,-161.0,-304.0,-63.0,101929.0,-5.01800012588501,0,0
2660.727996,-0.1824951171875,0.15093994140625,0.102508544921875,0.966094970703125,-1.5869140625,15.19775390625,4.638671875,0.352294921875,0.0753173828125,0.9190673828125,-166.0,-307.0,-63.0,101929.0,-5.01800012588501,0,0
2660.735017,-0.182708740234375,0.150299072265625,0.102294921875,0.9661865234375,0.54931640625,13.3056640625,5.31005859375,0.3634033203125,0.1429443359375,0.911376953125,-166.0,-307.0,-63.0,101929.0,-5.01800012588501,0,0
2660.742001,-0.18292236328125,0.149993896484375,0.102264404296875,0.9661865234375,0.67138671875,12.3291015625,5.31005859375,0.3533935546875,0.147216796875,0.916259765625,-166.0,-307.0,-63.0,101929.0,-5.01800012588501,0,0
2660.749019,-0.183837890625,0.149139404296875,0.102569580078125,0.96612548828125,5.859375,12.3291015625,9.21630859375,0.394287109375,0.1878662109375,0.9627685546875,-166.0,-307.0,-63.0,101929.0,-5.01800012588501,0,0
2660.755999,-0.184234619140625,0.148956298828125,0.102813720703125,0.966064453125,5.859375,10.25390625,9.58251953125,0.3919677734375,0.1796875,0.916015625,-166.0,-307.0,-63.0,101929.0,-5.01800012588501,0,0
2660.762999,-0.184967041015625,0.14910888671875,0.103424072265625,0.9658203125,2.5634765625,3.0517578125,6.34765625,0.3929443359375,0.187255859375,0.9130859375,-166.0,-307.0,-63.0,101929.0,-5.01800012588501,0,0
2660.77002,-0.18524169921875,0.149169921875,0.103485107421875,0.96575927734375,1.77001953125,3.41796875,7.8125,0.386962890625,0.161865234375,0.957275390625,-166.0,-307.0,-63.0,101929.0,-5.01800012588501,0,0
2660.776056,-0.18524169921875,0.149169921875,0.103485107421875,0.96575927734375,1.77001953125,3.41796875,7.8125,0.386962890625,0.161865234375,0.957275390625,-166.0,-307.0,-63.0,101929.0,-5.01800012588501,0,0
2660.782999,-0.186065673828125,0.1494140625,0.10406494140625,0.965484619140625,-2.0751953125,-0.244140625,8.11767578125,0.385498046875,0.18798828125,0.9395751953125,-166.0,-307.0,-63.0,101929.0,-5.019000053405762,0,0
2660.79002,-0.186279296875,0.1495361328125,0.104156494140625,0.965423583984375,0.42724609375,1.77001953125,6.2255859375,0.3902587890625,0.17626953125,0.9388427734375,-166.0,-307.0,-63.0,101929.0,-5.019000053405762,0,0
2660.797003,-0.186492919921875,0.14996337890625,0.104522705078125,0.96527099609375,-1.46484375,-1.15966796875,5.67626953125,0.399169921875,0.188232421875,0.921142578125,-166.0,-307.0,-63.0,101929.0,-5.019000053405762,0,0
2660.804018,-0.186309814453125,0.149932861328125,0.10504150390625,0.96527099609375,2.38037109375,-0.6103515625,-2.13623046875,0.32421875,0.23583984375,1.0272216796875,-166.0,-307.0,-63.0,101929.0,-5.019000053405762,0,0
2660.810997,-0.186279296875,0.149444580078125,0.1053466796875,0.965301513671875,7.14111328125,6.89697265625,-2.0751953125,0.3201904296875,0.2138671875,1.0697021484375,-166.0,-307.0,-63.0,101929.0,-5.019000053405762,0,0
2660.817996,-0.18634033203125,0.14886474609375,0.105499267578125,0.965362548828125,4.33349609375,7.26318359375,-0.8544921875,0.3636474609375,0.1392822265625,0.963623046875,-166.0,-307.0,-63.0,101929.0,-5.019000053405762,0,0
2660.825016,-0.186187744140625,0.14892578125,0.10565185546875,0.965362548828125,-0.8544921875,1.03759765625,-2.44140625,0.369140625,0.17333984375,0.949951171875,-166.0,-307.0,-63.0,101929.0,-5.019000053405762,0,0
2660.832001,-0.18609619140625,0.14910888671875,0.105682373046875,0.965362548828125,-2.9296875,-1.708984375,-2.3193359375,0.3729248046875,0.175048828125,0.9197998046875,-166.0,-308.0,-61.0,101929.0,-5.019000053405762,0,0
2660.839018,-0.18536376953125,0.149444580078125,0.1058349609375,0.965423583984375,-0.244140625,-1.03759765625,-2.13623046875,0.3564453125,0.177978515625,0.9237060546875,-166.0,-308.0,-61.0,101929.0,-5.019000053405762,0,0
2660.845995,-0.18511962890625,0.1500244140625,0.105621337890625,0.965423583984375,-5.67626953125,-6.7138671875,-2.9296875,0.3463134765625,0.128173828125,0.8863525390625,-166.0,-308.0,-61.0,101929.0,-5.019000053405762,0,0
2660.852994,-0.18487548828125,0.150543212890625,0.105224609375,0.965423583984375,-6.4697265625,-5.37109375,-1.64794921875,0.3309326171875,0.1085205078125,0.921630859375,-166.0,-308.0,-61.0,101929.0,-5.019000053405762,0,0
2660.860019,-0.18475341796875,0.1507568359375,0.105010986328125,0.965423583984375,-6.28662109375,-5.43212890625,-2.3193359375,0.3250732421875,0.1292724609375,0.9144287109375,-166.0,-308.0,-61.0,101929.0,-5.019000053405762,0,0
2660.866998,-0.184234619140625,0.1514892578125,0.1044921875,0.965484619140625,-7.26318359375,-8.1787109375,-3.96728515625,0.3126220703125,0.1278076171875,0.890380859375,-166.0,-308.0,-61.0,101929.0,-5.019000053405762,0,0
2660.87303,-0.184234619140625,0.1514892578125,0.1044921875,0.965484619140625,-7.26318359375,-8.1787109375,-3.96728515625,0.3126220703125,0.1278076171875,0.890380859375,-166.0,-308.0,-61.0,101929.0,-5.019000053405762,0,0
2660.880019,-0.1839599609375,0.1514892578125,0.104156494140625,0.965576171875,-2.13623046875,-2.74658203125,-3.72314453125,0.2938232421875,0.10888671875,0.9368896484375,-166.0,-308.0,-61.0,101929.0,-5.01800012588501,0,0
2660.900997,-0.18365478515625,0.1507568359375,0.10272216796875,0.96588134765625,0.06103515625,2.01416015625,-1.77001953125,0.2791748046875,0.080322265625,0.8839111328125,-166.0,-308.0,-61.0,101929.0,-5.01800012588501,0,0
2660.907996,-0.183685302734375,0.150482177734375,0.102569580078125,0.9659423828125,-0.1220703125,5.126953125,0.54931640625,0.2664794921875,0.0980224609375,0.871826171875,-166.0,-308.0,-61.0,101929.0,-5.01800012588501,0,0
2660.915016,-0.18377685546875,0.150299072265625,0.102386474609375,0.965972900390625,-1.0986328125,4.5166015625,1.77001953125,0.2701416015625,0.0987548828125,0.8653564453125,-166.0,-308.0,-61.0,101929.0,-5.01800012588501,0,0
2660.922001,-0.18408203125,0.150115966796875,0.101776123046875,0.96600341796875,-3.35693359375,2.86865234375,3.173828125,0.28466796875,0.0806884765625,0.882568359375,-166.0,-308.0,-61.0,101929.0,-5.01800012588501,0,0
2660.929018,-0.18414306640625,0.150146484375,0.10162353515625,0.96600341796875,-2.62451171875,-0.48828125,2.38037109375,0.2923583984375,0.119873046875,0.8758544921875,-166.0,-310.0,-59.0,101929.0,-5.01800012588501,0,0
2660.935995,-0.184722900390625,0.150054931640625,0.101470947265625,0.9659423828125,-3.84521484375,0.67138671875,4.21142578125,0.2987060546875,0.1287841796875,0.9537353515625,-166.0,-310.0,-59.0,101929.0,-5.01800012588501,0,0
2660.942994,-0.185089111328125,0.149383544921875,0.100921630859375,0.966033935546875,-4.150390625,2.25830078125,4.33349609375,0.2935791015625,0.1376953125,0.97802734375,-166.0,-310.0,-59.0,101929.0,-5.01800012588501,0,0
2660.950019,-0.185211181640625,0.149078369140625,0.100799560546875,0.966064453125,-2.25830078125,6.04248046875,3.662109375,0.3046875,0.172119140625,1.016357421875,-166.0,-310.0,-59.0,101929.0,-5.01800012588501,0,0
2660.956998,-0.185516357421875,0.14849853515625,0.1007080078125,0.966094970703125,-1.40380859375,7.080078125,4.150390625,0.315673828125,0.1683349609375,1.00341796875,-166.0,-310.0,-59.0,101929.0,-5.01800012588501,0,0
2660.96303,-0.185516357421875,0.14849853515625,0.1007080078125,0.966094970703125,-1.40380859375,7.080078125,4.150390625,0.315673828125,0.1683349609375,1.00341796875,-166.0,-310.0,-59.0,101929.0,-5.01800012588501,0,0
2660.970019,-0.1859130859375,0.147857666015625,0.100738525390625,0.96612548828125,0.42724609375,7.14111328125,3.7841796875,0.3524169921875,0.18115234375,1.004150390625,-166.0,-310.0,-59.0,101929.0,-5.01800012588501,0,0
2660.990997,-0.186492919921875,0.147064208984375,0.10137939453125,0.966064453125,1.15966796875,5.2490234375,1.40380859375,0.39013671875,0.214111328125,0.9879150390625,-166.0,-310.0,-59.0,101929.0,-5.01800012588501,0,0
2660.997996,-0.186553955078125,0.14703369140625,0.101715087890625,0.96600341796875,0.67138671875,3.662109375,0.9765625,0.390380859375,0.203125,0.9765625,-166.0,-310.0,-59.0,101929.0,-5.01800012588501,0,0
2661.005016,-0.1865234375,0.1470947265625,0.102142333984375,0.965972900390625,1.46484375,1.708984375,-0.67138671875,0.379638671875,0.1962890625,0.9510498046875,-166.0,-310.0,-59.0,101929.0,-5.01800012588501,0,0
2661.012001,-0.186370849609375,0.147216796875,0.1025390625,0.9659423828125,1.46484375,0.6103515625,-1.708984375,0.36767578125,0.1829833984375,0.9544677734375,-166.0,-310.0,-59.0,101929.0,-5.01800012588501,0,0
2661.019018,-0.186279296875,0.147308349609375,0.1026611328125,0.9659423828125,0.42724609375,-1.64794921875,-2.74658203125,0.3519287109375,0.166259765625,0.9410400390625,-166.0,-310.0,-59.0,101929.0,-5.01800012588501,0,0
2661.025999,-0.18603515625,0.1474609375,0.102783203125,0.9659423828125,-1.0986328125,-1.52587890625,-3.2958984375,0.3385009765625,0.15283203125,0.94580078125,-166.0,-310.0,-59.0,101929.0,-5.021000385284424,0,0
2661.032999,-0.18475341796875,0.147552490234375,0.1025390625,0.9661865234375,-1.708984375,-1.5869140625,-2.99072265625,0.3228759765625,0.132568359375,0.9365234375,-166.0,-308.0,-58.0,101929.0,-5.021000385284424,0,0
2661.04002,-0.18463134765625,0.147491455078125,0.102447509765625,0.96624755859375,-1.52587890625,0.42724609375,-3.173828125,0.303955078125,0.12841796875,0.9371337890625,-166.0,-308.0,-58.0,101929.0,-5.021000385284424,0,0
2661.046998,-0.184417724609375,0.147705078125,0.102020263671875,0.96630859375,-3.0517578125,-2.01416015625,-1.708984375,0.3082275390625,0.1190185546875,0.92822265625,-166.0,-308.0,-58.0,101929.0,-5.021000385284424,0,0
2661.054018,-0.184356689453125,0.147674560546875,0.101898193359375,0.96630859375,-2.13623046875,-0.1220703125,-1.220703125,0.308837890625,0.1275634765625,0.9322509765625,-166.0,-308.0,-58.0,101929.0,-5.021000385284424,0,0
2661.060051,-0.184356689453125,0.147674560546875,0.101898193359375,0.96630859375,-2.13623046875,-0.1220703125,-1.220703125,0.308837890625,0.1275634765625,0.9322509765625,-166.0,-308.0,-58.0,101929.0,-5.021000385284424,0,0
2661.067003,-0.184295654296875,0.14752197265625,0.101318359375,0.9664306640625,-1.28173828125,2.9296875,-0.732421875,0.320068359375,0.1123046875,0.9173583984375,-166.0,-308.0,-58.0,101929.0,-5.021000385284424,0,0
2661.074018,-0.184326171875,0.1474609375,0.1011962890625,0.9664306640625,-0.732421875,3.35693359375,-0.732421875,0.3248291015625,0.1026611328125,0.899658203125,-166.0,-308.0,-58.0,101929.0,-5.021000385284424,0,0
2661.080997,-0.184326171875,0.147369384765625,0.10107421875,0.966461181640625,0.1220703125,4.5166015625,-1.0986328125,0.3197021484375,0.0999755859375,0.9052734375,-166.0,-308.0,-58.0,101929.0,-5.021000385284424,0,0
2661.087996,-0.184326171875,0.1468505859375,0.1007080078125,0.966583251953125,1.64794921875,6.4697265625,-1.5869140625,0.3089599609375,0.095458984375,0.9083251953125,-166.0,-308.0,-58.0,101929.0,-5.021000385284424,0,0
2661.095017,-0.184326171875,0.146636962890625,0.100555419921875,0.96661376953125,0.6103515625,6.2255859375,-1.0986328125,0.303955078125,0.0916748046875,0.89794921875,-166.0,-308.0,-58.0,101929.0,-5.021000385284424,0,0
2661.102001,-0.184417724609375,0.145721435546875,0.100128173828125,0.966796875,0.67138671875,6.65283203125,-1.220703125,0.2899169921875,0.09521484375,0.9017333984375,-166.0,-308.0,-58.0,101929.0,-5.021000385284424,0,0
2661.109019,-0.184478759765625,0.145294189453125,0.100006103515625,0.96685791015625,2.3193359375,8.544921875,0.42724609375,0.255615234375,0.0838623046875,0.89990234375,-166.0,-308.0,-58.0,101929.0,-5.021000385284424,0,0
2661.115995,-0.1845703125,0.144866943359375,0.099853515625,0.9669189453125,2.0751953125,9.09423828125,0.732421875,0.248779296875,0.0885009765625,0.9031982421875,-166.0,-308.0,-58.0,101929.0,-5.021000385284424,0,0
2661.122994,-0.18505859375,0.143341064453125,0.099273681640625,0.96710205078125,2.25830078125,11.5966796875,4.08935546875,0.24951171875,0.0858154296875,0.9110107421875,-166.0,-308.0,-58.0,101929.0,-5.021000385284424,0,0
2661.130019,-0.18524169921875,0.142822265625,0.099151611328125,0.9671630859375,2.44140625,12.63427734375,3.41796875,0.257568359375,0.1025390625,0.9197998046875,-164.0,-308.0,-58.0,101929.0,-5.022000312805176,0,0
2661.136998,-0.186309814453125,0.142333984375,0.099273681640625,0.967010498046875,6.16455078125,10.25390625,1.8310546875,0.2947998046875,0.0946044921875,0.92822265625,-164.0,-308.0,-58.0,101929.0,-5.022000312805176,0,0
2661.144018,-0.18695068359375,0.139739990234375,0.099029541015625,0.96728515625,5.2490234375,24.7802734375,5.92041015625,0.2554931640625,0.136474609375,1.0078125,-164.0,-308.0,-58.0,101929.0,-5.022000312805176,0,0
2661.164018,-0.188323974609375,0.134918212890625,0.099609375,0.9676513671875,10.07080078125,31.18896484375,6.8359375,0.2940673828125,0.12158203125,1.0018310546875,-164.0,-308.0,-58.0,101929.0,-5.022000312805176,0,0
2661.170997,-0.18865966796875,0.1337890625,0.09979248046875,0.967742919921875,8.85009765625,31.982421875,5.92041015625,0.3118896484375,0.1876220703125,0.9742431640625,-164.0,-308.0,-58.0,101929.0,-5.022000312805176,0,0
2661.177996,-0.18939208984375,0.1312255859375,0.10003662109375,0.967926025390625,9.27734375,35.70556640625,5.43212890625,0.3055419921875,0.1878662109375,0.9951171875,-164.0,-308.0,-58.0,101929.0,-5.022000312805176,0,0
2661.185016,-0.190338134765625,0.1285400390625,0.09991455078125,0.968109130859375,9.1552734375,43.5791015625,9.94873046875,0.3121337890625,0.1727294921875,1.01025390625,-164.0,-308.0,-58.0,101929.0,-5.022000312805176,0,0
2661.192001,-0.191497802734375,0.126190185546875,0.09918212890625,0.96826171875,2.86865234375,42.17529296875,10.55908203125,0.3453369140625,0.15625,0.968505859375,-164.0,-308.0,-58.0,101929.0,-5.022000312805176,0,0
2661.199018,-0.1920166015625,0.125,0.099090576171875,0.96832275390625,-1.46484375,43.8232421875,11.65771484375,0.3929443359375,0.2283935546875,0.9818115234375,-164.0,-308.0,-58.0,101929.0,-5.022000312805176,0,0
2661.205995,-0.19317626953125,0.122406005859375,0.0989990234375,0.96844482421875,5.55419921875,46.7529296875,11.5966796875,0.3675537109375,0.229736328125,1.016845703125,-164.0,-308.0,-58.0,101929.0,-5.022000312805176,0,0
2661.212994,-0.19439697265625,0.1204833984375,0.09881591796875,0.96844482421875,7.50732421875,38.4521484375,13.12255859375,0.40380859375,0.189697265625,0.9654541015625,-164.0,-308.0,-58.0,101929.0,-5.022000312805176,0,0
2661.220019,-0.19500732421875,0.11956787109375,0.098541259765625,0.968475341796875,3.11279296875,38.4521484375,13.18359375,0.3919677734375,0.104736328125,0.9727783203125,-164.0,-308.0,-58.0,101929.0,-5.022000312805176,0,0
2661.226998,-0.1962890625,0.1192626953125,0.0972900390625,0.9683837890625,-16.845703125,17.2119140625,16.9677734375,0.4031982421875,0.09765625,0.8212890625,-161.0,-307.0,-59.0,101929.0,-5.020000457763672,0,0
2661.234018,-0.198486328125,0.118194580078125,0.096893310546875,0.96807861328125,-7.50732421875,20.3857421875,15.5029296875,0.366943359375,0.2037353515625,0.9747314453125,-161.0,-307.0,-59.0,101929.0,-5.020000457763672,0,0
2661.254018,-0.201873779296875,0.11407470703125,0.097015380859375,0.967864990234375,4.94384765625,25.146484375,17.02880859375,0.2843017578125,0.1329345703125,0.9630126953125,-161.0,-307.0,-59.0,101929.0,-5.020000457763672,0,0
2661.260997,-0.20257568359375,0.113311767578125,0.09674072265625,0.96783447265625,3.2958984375,25.81787109375,17.08984375,0.2913818359375,0.099609375,1.00341796875,-161.0,-307.0,-59.0,101929.0,-5.020000457763672,0,0
2661.267996,-0.204742431640625,0.111114501953125,0.096038818359375,0.96771240234375,4.82177734375,26.55029296875,18.37158203125,0.24658203125,0.129638671875,0.9730224609375,-161.0,-307.0,-59.0,101929.0,-5.020000457763672,0,0
2661.275016,-0.2054443359375,0.1104736328125,0.095794677734375,0.9676513671875,1.03759765625,23.681640625,18.37158203125,0.2728271484375,0.1201171875,0.9228515625,-161.0,-307.0,-59.0,101929.0,-5.020000457763672,0,0
2661.282001,-0.207366943359375,0.10919189453125,0.095306396484375,0.967437744140625,0.30517578125,22.15576171875,18.310546875,0.28466796875,0.1285400390625,0.919677734375,-161.0,-307.0,-59.0,101929.0,-5.020000457763672,0,0
2661.289018,-0.20794677734375,0.1090087890625,0.0950927734375,0.967376708984375,-2.62451171875,11.90185546875,15.5029296875,0.290283203125,0.12646484375,0.9034423828125,-161.0,-307.0,-59.0,101929.0,-5.020000457763672,0,0
2661.295995,-0.20843505859375,0.108795166015625,0.0950927734375,0.96728515625,1.15966796875,10.43701171875,13.916015625,0.2772216796875,0.1536865234375,0.9146728515625,-161.0,-307.0,-59.0,101929.0,-5.020000457763672,0,0
2661.302994,-0.2098388671875,0.108734130859375,0.094757080078125,0.967010498046875,-0.79345703125,1.77001953125,12.63427734375,0.2569580078125,0.1192626953125,0.943359375,-161.0,-307.0,-59.0,101929.0,-5.020000457763672,0,0
2661.31002,-0.21026611328125,0.108795166015625,0.0946044921875,0.9669189453125,-0.9765625,0.06103515625,12.6953125,0.2530517578125,0.105712890625,0.9500732421875,-161.0,-307.0,-59.0,101929.0,-5.020000457763672,0,0
2661.316998,-0.211181640625,0.10906982421875,0.09423828125,0.96673583984375,-0.42724609375,-1.0986328125,12.87841796875,0.2452392578125,0.0986328125,0.9466552734375,-161.0,-307.0,-59.0,101929.0,-5.020000457763672,0,0
2661.324018,-0.212066650390625,0.109375,0.093994140625,0.966522216796875,0.42724609375,-1.220703125,13.73291015625,0.2486572265625,0.11376953125,0.94140625,-161.0,-307.0,-59.0,101929.0,-5.020000457763672,0,0
2661.330996,-0.2125244140625,0.109619140625,0.093780517578125,0.9664306640625,-3.90625,-3.41796875,13.916015625,0.2469482421875,0.093505859375,0.8878173828125,-158.0,-308.0,-58.0,101929.0,-5.021000385284424,0,0
2661.337029,-0.2125244140625,0.109619140625,0.093780517578125,0.9664306640625,-3.90625,-3.41796875,13.916015625,0.2469482421875,0.093505859375,0.8878173828125,-158.0,-308.0,-58.0,101929.0,-5.021000385284424,0,0
2661.344018,-0.213287353515625,0.111083984375,0.0927734375,0.9661865234375,-1.89208984375,-6.65283203125,17.7001953125,0.22119140625,0.0872802734375,0.9033203125,-158.0,-308.0,-58.0,101929.0,-5.021000385284424,0,0
2661.350997,-0.213897705078125,0.111480712890625,0.092529296875,0.966033935546875,-3.0517578125,-7.8125,18.1884765625,0.2398681640625,0.0806884765625,0.8922119140625,-158.0,-308.0,-58.0,101929.0,-5.021000385284424,0,0
2661.357996,-0.215179443359375,0.11248779296875,0.09222412109375,0.965667724609375,-0.732421875,-12.02392578125,19.95849609375,0.241455078125,0.080078125,0.885009765625,-158.0,-308.0,-58.0,101929.0,-5.021000385284424,0,0
2661.365017,-0.216552734375,0.113555908203125,0.09173583984375,0.96527099609375,-2.197265625,-13.916015625,22.0947265625,0.2318115234375,0.0643310546875,0.9246826171875,-158.0,-308.0,-58.0,101929.0,-5.021000385284424,0,0
2661.372001,-0.218048095703125,0.11474609375,0.09136962890625,0.96484375,-3.2958984375,-16.11328125,22.52197265625,0.220703125,0.0870361328125,0.916748046875,-158.0,-308.0,-58.0,101929.0,-5.021000385284424,0,0
2661.379018,-0.21881103515625,0.1156005859375,0.091064453125,0.964599609375,-6.89697265625,-20.81298828125,25.20751953125,0.2415771484375,0.0755615234375,0.9083251953125,-158.0,-308.0,-58.0,101929.0,-5.021000385284424,0,0
2661.385999,-0.220489501953125,0.117462158203125,0.09063720703125,0.964019775390625,-4.638671875,-24.2919921875,27.7099609375,0.2432861328125,0.1005859375,0.934814453125,-158.0,-308.0,-58.0,101929.0,-5.021000385284424,0,0
2661.392999,-0.22235107421875,0.11932373046875,0.09033203125,0.96337890625,-3.84521484375,-25.390625,31.3720703125,0.2430419921875,0.074462890625,0.980224609375,-158.0,-308.0,-58.0,101929.0,-5.021000385284424,0,0
2661.40002,-0.223388671875,0.1202392578125,0.090118408203125,0.963043212890625,-3.90625,-24.5361328125,33.3251953125,0.258056640625,0.077880859375,0.9912109375,-158.0,-308.0,-58.0,101929.0,-5.021000385284424,0,0
2661.406998,-0.22686767578125,0.123291015625,0.089874267578125,0.961883544921875,-1.40380859375,-25.32958984375,36.865234375,0.277587890625,0.0953369140625,0.9599609375,-158.0,-308.0,-58.0,101929.0,-5.021000385284424,0,0
2661.427029,-0.2294921875,0.125640869140625,0.089752197265625,0.960968017578125,-3.173828125,-27.2216796875,43.3349609375,0.3343505859375,0.0914306640625,0.995849609375,-158.0,-308.0,-58.0,101929.0,-5.021000385284424,0,0
2661.434019,-0.236114501953125,0.130767822265625,0.088958740234375,0.958740234375,-8.4228515625,-29.35791015625,48.9501953125,0.3238525390625,0.112548828125,1.0067138671875,-155.0,-308.0,-58.0,101929.0,-5.021000385284424,0,0
2661.440997,-0.237762451171875,0.131988525390625,0.08892822265625,0.958160400390625,-3.41796875,-29.11376953125,52.18505859375,0.3302001953125,0.1282958984375,0.982421875,-155.0,-308.0,-58.0,101929.0,-5.021000385284424,0,0
2661.447996,-0.24261474609375,0.136077880859375,0.089385986328125,0.956329345703125,2.74658203125,-35.888671875,51.8798828125,0.32958984375,0.1785888671875,0.931396484375,-155.0,-308.0,-58.0,101929.0,-5.021000385284424,0,0
2661.455016,-0.2442626953125,0.137298583984375,0.089569091796875,0.955718994140625,-0.18310546875,-32.89794921875,53.40576171875,0.3236083984375,0.1663818359375,1.0048828125,-155.0,-308.0,-58.0,101929.0,-5.021000385284424,0,0
2661.462001,-0.24945068359375,0.14093017578125,0.08905029296875,0.95391845703125,-4.45556640625,-33.87451171875,55.2978515625,0.2845458984375,0.08935546875,1.0093994140625,-155.0,-308.0,-58.0,101929.0,-5.021000385284424,0,0
2661.469018,-0.251190185546875,0.1419677734375,0.089019775390625,0.95330810546875,-2.99072265625,-34.66796875,56.0302734375,0.24951171875,0.146484375,1.0408935546875,-155.0,-308.0,-58.0,101929.0,-5.021000385284424,0,0
2661.475995,-0.252899169921875,0.142913818359375,0.0888671875,0.952728271484375,-4.57763671875,-31.06689453125,55.84716796875,0.251708984375,0.1336669921875,1.0792236328125,-155.0,-308.0,-58.0,101929.0,-5.021000385284424,0,0
2661.482994,-0.25830078125,0.14569091796875,0.087982177734375,0.950927734375,-6.9580078125,-27.099609375,57.67822265625,0.2657470703125,0.114013671875,1.078369140625,-155.0,-308.0,-58.0,101929.0,-5.021000385284424,0,0
2661.490019,-0.259979248046875,0.146942138671875,0.087982177734375,0.950286865234375,-7.75146484375,-34.97314453125,56.5185546875,0.298828125,0.183349609375,0.964599609375,-155.0,-308.0,-58.0,101929.0,-5.021000385284424,0,0
2661.496998,-0.2635498046875,0.148712158203125,0.08709716796875,0.9490966796875,-13.0615234375,-30.21240234375,59.9365234375,0.2896728515625,0.042236328125,1.08837890625,-155.0,-308.0,-58.0,101929.0,-5.021000385284424,0,0
2661.517996,-0.27203369140625,0.152801513671875,0.08465576171875,0.9462890625,-11.65771484375,-21.78955078125,52.30712890625,0.2933349609375,0.15869140625,0.996826171875,-155.0,-308.0,-58.0,101929.0,-5.021000385284424,0,0
2661.524028,-0.27203369140625,0.152801513671875,0.08465576171875,0.9462890625,-11.65771484375,-21.78955078125,52.30712890625,0.2933349609375,0.15869140625,0.996826171875,-155.0,-308.0,-58.0,101929.0,-5.021000385284424,0,0
2661.530997,-0.276336669921875,0.155303955078125,0.083831787109375,0.9447021484375,-7.6904296875,-25.7568359375,44.73876953125,0.265869140625,0.1033935546875,0.9384765625,-154.0,-308.0,-58.0,101929.0,-5.022000312805176,0,0
2661.537996,-0.27996826171875,0.15643310546875,0.083465576171875,0.9434814453125,-7.32421875,-26.06201171875,43.02978515625,0.2435302734375,0.068603515625,0.9564208984375,-154.0,-308.0,-58.0,101929.0,-5.022000312805176,0,0
2661.545016,-0.282257080078125,0.157257080078125,0.083831787109375,0.942626953125,2.8076171875,-23.4375,32.04345703125,0.2064208984375,0.1549072265625,0.83544921875,-154.0,-308.0,-58.0,101929.0,-5.022000312805176,0,0
2661.552001,-0.28436279296875,0.1578369140625,0.083099365234375,0.94195556640625,-2.99072265625,-20.01953125,36.07177734375,0.211181640625,-0.026611328125,0.954345703125,-154.0,-308.0,-58.0,101929.0,-5.022000312805176,0,0
2661.559018,-0.28533935546875,0.15789794921875,0.082611083984375,0.941680908203125,-5.9814453125,-6.16455078125,30.8837890625,0.2333984375,0.0380859375,0.96484375,-154.0,-308.0,-58.0,101929.0,-5.022000312805176,0,0
2661.565995,-0.2869873046875,0.158111572265625,0.082061767578125,0.941192626953125,-6.65283203125,-7.080078125,25.5126953125,0.2401123046875,0.08642578125,0.9063720703125,-154.0,-308.0,-58.0,101929.0,-5.022000312805176,0,0
2661.572994,-0.288360595703125,0.158050537109375,0.081695556640625,0.940826416015625,-4.7607421875,-2.8076171875,20.99609375,0.259033203125,0.1058349609375,0.9425048828125,-154.0,-308.0,-58.0,101929.0,-5.022000312805176,0,0
2661.580019,-0.2890625,0.157989501953125,0.081634521484375,0.94061279296875,1.3427734375,-1.52587890625,21.91162109375,0.2786865234375,0.07763671875,0.9300537109375,-154.0,-308.0,-58.0,101929.0,-5.022000312805176,0,0
2661.586998,-0.290283203125,0.158111572265625,0.08111572265625,0.940277099609375,-3.96728515625,-4.638671875,19.287109375,0.285888671875,-0.00830078125,0.9866943359375,-154.0,-308.0,-58.0,101929.0,-5.022000312805176,0,0
2661.594018,-0.290740966796875,0.157928466796875,0.08062744140625,0.940216064453125,-7.26318359375,3.173828125,13.73291015625,0.29296875,0.0333251953125,1.023193359375,-154.0,-308.0,-58.0,101929.0,-5.022000312805176,0,0
2661.600996,-0.29095458984375,0.157684326171875,0.080413818359375,0.940185546875,-6.40869140625,4.69970703125,8.60595703125,0.310546875,0.11328125,0.9876708984375,-154.0,-308.0,-58.0,101929.0,-5.022000312805176,0,0
2661.607996,-0.29119873046875,0.1572265625,0.0802001953125,0.940216064453125,-3.7841796875,2.74658203125,2.86865234375,0.335205078125,0.1224365234375,0.9344482421875,-154.0,-308.0,-58.0,101929.0,-5.022000312805176,0,0
2661.614029,-0.29119873046875,0.1572265625,0.0802001953125,0.940216064453125,-3.7841796875,2.74658203125,2.86865234375,0.335205078125,0.1224365234375,0.9344482421875,-154.0,-308.0,-58.0,101929.0,-5.022000312805176,0,0
2661.620997,-0.29107666015625,0.156585693359375,0.079986572265625,0.94036865234375,-2.62451171875,10.19287109375,-2.8076171875,0.3653564453125,0.06689453125,0.9764404296875,-154.0,-308.0,-58.0,101929.0,-5.022000312805176,0,0
2661.627996,-0.290802001953125,0.155975341796875,0.079833984375,0.940582275390625,-1.220703125,13.916015625,-5.31005859375,0.4169921875,0.086181640625,0.9832763671875,-154.0,-307.0,-59.0,101929.0,-5.021000385284424,0,0
2661.635017,-0.28985595703125,0.155303955078125,0.079864501953125,0.94097900390625,0.9765625,17.02880859375,-7.32421875,0.450927734375,0.1102294921875,0.9549560546875,-154.0,-307.0,-59.0,101929.0,-5.021000385284424,0,0
2661.642001,-0.28961181640625,0.154998779296875,0.08001708984375,0.94110107421875,2.01416015625,16.2353515625,-7.6904296875,0.45556640625,0.1075439453125,0.9429931640625,-154.0,-307.0,-59.0,101929.0,-5.021000385284424,0,0
2661.649019,-0.288848876953125,0.154266357421875,0.08074951171875,0.941375732421875,3.84521484375,13.24462890625,-9.09423828125,0.4598388671875,0.1002197265625,0.9451904296875,-154.0,-307.0,-59.0,101929.0,-5.021000385284424,0,0
2661.655999,-0.28857421875,0.154052734375,0.080963134765625,0.941497802734375,3.11279296875,13.36669921875,-9.09423828125,0.460693359375,0.1015625,0.9541015625,-154.0,-307.0,-59.0,101929.0,-5.021000385284424,0,0
2661.662999,-0.287689208984375,0.15313720703125,0.082000732421875,0.941802978515625,4.45556640625,13.7939453125,-9.58251953125,0.45068359375,0.11328125,0.969482421875,-154.0,-307.0,-59.0,101929.0,-5.021000385284424,0,0
2661.67002,-0.287353515625,0.15277099609375,0.0823974609375,0.94195556640625,7.50732421875,12.6953125,-12.02392578125,0.4267578125,0.1285400390625,0.955810546875,-154.0,-307.0,-59.0,101929.0,-5.021000385284424,0,0
2661.690996,-0.285064697265625,0.150970458984375,0.084442138671875,0.9427490234375,8.23974609375,12.3291015625,-17.88330078125,0.37646484375,0.0936279296875,0.927490234375,-154.0,-307.0,-59.0,101929.0,-5.021000385284424,0,0
2661.697996,-0.283966064453125,0.15008544921875,0.0850830078125,0.94317626953125,9.27734375,12.939453125,-19.04296875,0.3707275390625,0.0928955078125,0.9208984375,-154.0,-307.0,-59.0,101929.0,-5.021000385284424,0,0
2661.705021,-0.282745361328125,0.14923095703125,0.0855712890625,0.943634033203125,8.544921875,13.12255859375,-21.42333984375,0.3642578125,0.052978515625,0.91650390625,-154.0,-307.0,-59.0,101929.0,-5.021000385284424,0,0
2661.711053,-0.282745361328125,0.14923095703125,0.0855712890625,0.943634033203125,8.544921875,13.12255859375,-21.42333984375,0.3642578125,0.052978515625,0.91650390625,-154.0,-307.0,-59.0,101929.0,-5.021000385284424,0,0
2661.717996,-0.280914306640625,0.147796630859375,0.086029052734375,0.9443359375,6.9580078125,13.48876953125,-21.3623046875,0.3443603515625,0.0350341796875,0.90380859375,-154.0,-307.0,-59.0,101929.0,-5.021000385284424,0,0
2661.725016,-0.27978515625,0.14666748046875,0.0863037109375,0.94482421875,9.033203125,14.46533203125,-20.32470703125,0.314697265625,0.0228271484375,0.909423828125,-154.0,-307.0,-59.0,101929.0,-5.021000385284424,0,0
2661.732001,-0.279266357421875,0.14605712890625,0.086456298828125,0.945068359375,10.498046875,14.404296875,-19.1650390625,0.3040771484375,0.0189208984375,0.9051513671875,-157.0,-306.0,-59.0,101929.0,-5.023000240325928,0,0
2661.739018,-0.27911376953125,0.14471435546875,0.086822509765625,0.945281982421875,11.65771484375,13.916015625,-18.12744140625,0.2890625,0.0184326171875,0.905029296875,-157.0,-306.0,-59.0,101929.0,-5.023000240325928,0,0
2661.745995,-0.27838134765625,0.143341064453125,0.087158203125,0.9456787109375,14.16015625,13.12255859375,-14.7705078125,0.254638671875,0.0225830078125,0.91796875,-157.0,-306.0,-59.0,101929.0,-5.023000240325928,0,0
2661.752994,-0.277740478515625,0.14190673828125,0.087738037109375,0.946044921875,15.31982421875,12.8173828125,-14.0380859375,0.247802734375,0.0362548828125,0.9102783203125,-157.0,-306.0,-59.0,101929.0,-5.023000240325928,0,0
2661.774018,-0.276580810546875,0.138031005859375,0.088897705078125,0.94683837890625,14.6484375,12.14599609375,-10.19287109375,0.22314453125,0.0478515625,0.9058837890625,-157.0,-306.0,-59.0,101929.0,-5.023000240325928,0,0
2661.780996,-0.276397705078125,0.137298583984375,0.089111328125,0.94696044921875,13.7939453125,12.3291015625,-9.46044921875,0.22607421875,0.0458984375,0.91796875,-157.0,-306.0,-59.0,101929.0,-5.023000240325928,0,0
2661.787996,-0.27593994140625,0.13531494140625,0.089813232421875,0.94732666015625,13.427734375,12.87841796875,-8.056640625,0.2464599609375,0.058837890625,0.9239501953125,-157.0,-306.0,-59.0,101929.0,-5.023000240325928,0,0
2661.795021,-0.27581787109375,0.134796142578125,0.09002685546875,0.947418212890625,11.23046875,9.521484375,-6.65283203125,0.2601318359375,0.0789794921875,0.9290771484375,-157.0,-306.0,-59.0,101929.0,-5.023000240325928,0,0
2661.801049,-0.27581787109375,0.134796142578125,0.09002685546875,0.947418212890625,11.23046875,9.521484375,-6.65283203125,0.2601318359375,0.0789794921875,0.9290771484375,-157.0,-306.0,-59.0,101929.0,-5.023000240325928,0,0
2661.807996,-0.2755126953125,0.132843017578125,0.09136962890625,0.947662353515625,12.51220703125,7.01904296875,-4.33349609375,0.2724609375,0.1036376953125,0.983642578125,-157.0,-306.0,-59.0,101929.0,-5.023000240325928,0,0
2661.815016,-0.27545166015625,0.13238525390625,0.091766357421875,0.94769287109375,13.24462890625,6.9580078125,-3.41796875,0.2965087890625,0.12158203125,1.002197265625,-157.0,-306.0,-59.0,101929.0,-5.023000240325928,0,0
2661.822001,-0.27545166015625,0.13201904296875,0.09222412109375,0.94769287109375,13.36669921875,6.2255859375,-2.62451171875,0.30908203125,0.1328125,0.9998779296875,-157.0,-306.0,-59.0,101929.0,-5.023000240325928,0,0
2661.829018,-0.275421142578125,0.131378173828125,0.09320068359375,0.947723388671875,12.87841796875,6.04248046875,-2.38037109375,0.346435546875,0.1466064453125,1.0125732421875,-161.0,-306.0,-60.0,101929.0,-5.022000312805176,0,0
2661.835995,-0.276123046875,0.130859375,0.094390869140625,0.94744873046875,12.939453125,5.18798828125,-2.0751953125,0.3702392578125,0.1591796875,1.0159912109375,-161.0,-306.0,-60.0,101929.0,-5.022000312805176,0,0
2661.842994,-0.276123046875,0.13067626953125,0.094970703125,0.947418212890625,13.36669921875,4.69970703125,-2.13623046875,0.376708984375,0.16259765625,1.0220947265625,-161.0,-306.0,-60.0,101929.0,-5.022000312805176,0,0
2661.850019,-0.27606201171875,0.13043212890625,0.09661865234375,0.94732666015625,12.0849609375,2.44140625,-1.953125,0.390869140625,0.15771484375,1.0098876953125,-161.0,-306.0,-60.0,101929.0,-5.022000312805176,0,0
2661.856998,-0.2760009765625,0.130401611328125,0.09722900390625,0.947265625,12.39013671875,1.89208984375,-2.50244140625,0.3895263671875,0.1710205078125,0.99365234375,-161.0,-306.0,-60.0,101929.0,-5.022000312805176,0,0
2661.864018,-0.27581787109375,0.13079833984375,0.098968505859375,0.94708251953125,11.5966796875,-0.18310546875,-2.38037109375,0.390625,0.1614990234375,0.9765625,-161.0,-306.0,-60.0,101929.0,-5.022000312805176,0,0
2661.870996,-0.2757568359375,0.1309814453125,0.0994873046875,0.947021484375,10.68115234375,-4.0283203125,-3.11279296875,0.37060546875,0.14404296875,0.9683837890625,-161.0,-306.0,-60.0,101929.0,-5.022000312805176,0,0
2661.877996,-0.275665283203125,0.131103515625,0.0999755859375,0.946990966796875,9.70458984375,-3.96728515625,-3.47900390625,0.3580322265625,0.14111328125,0.9630126953125,-161.0,-306.0,-60.0,101929.0,-5.022000312805176,0,0
2661.885021,-0.27532958984375,0.131439208984375,0.101104736328125,0.946929931640625,8.056640625,-3.662109375,-4.150390625,0.319580078125,0.1251220703125,0.9617919921875,-161.0,-306.0,-60.0,101929.0,-5.022000312805176,0,0
2661.892001,-0.27520751953125,0.1314697265625,0.101470947265625,0.9468994140625,7.99560546875,-2.74658203125,-4.45556640625,0.318359375,0.1275634765625,0.94970703125,-161.0,-306.0,-60.0,101929.0,-5.022000312805176,0,0
2661.898032,-0.27520751953125,0.1314697265625,0.101470947265625,0.9468994140625,7.99560546875,-2.74658203125,-4.45556640625,0.318359375,0.1275634765625,0.94970703125,-161.0,-306.0,-60.0,101929.0,-5.022000312805176,0,0
2661.905016,-0.274627685546875,0.13128662109375,0.102386474609375,0.946990966796875,5.2490234375,-0.732421875,-5.4931640625,0.292724609375,0.1134033203125,0.9437255859375,-161.0,-306.0,-60.0,101929.0,-5.022000312805176,0,0
2661.912001,-0.27447509765625,0.131195068359375,0.1025390625,0.947052001953125,5.06591796875,0.30517578125,-5.67626953125,0.290283203125,0.1109619140625,0.9471435546875,-161.0,-306.0,-60.0,101929.0,-5.022000312805176,0,0
2661.919019,-0.274169921875,0.130889892578125,0.102752685546875,0.9471435546875,4.7607421875,1.89208984375,-5.67626953125,0.295166015625,0.1107177734375,0.95361328125,-161.0,-306.0,-60.0,101929.0,-5.022000312805176,0,0
2661.925999,-0.27386474609375,0.1307373046875,0.102996826171875,0.947235107421875,4.638671875,3.2958984375,-5.615234375,0.3048095703125,0.1031494140625,0.9407958984375,-161.0,-306.0,-60.0,101929.0,-5.019000053405762,0,0
2661.932999,-0.272186279296875,0.130859375,0.102874755859375,0.947723388671875,4.45556640625,1.77001953125,-5.43212890625,0.3104248046875,0.0958251953125,0.9246826171875,4.00505898815816e-36,-3.5794164726149114e+34,-4.030066013408039e+34,4.827447833585998e-33,6.1399791256349946e-21,27195,45544
2661.946998,-0.27178955078125,0.130401611328125,0.103271484375,0.947845458984375,6.77490234375,1.708984375,-3.90625,0.287109375,0.0830078125,0.926513671875,-165.0,-306.0,-61.0,101929.0,-5.019000053405762,0,0
2661.954018,-0.271636962890625,0.1302490234375,0.103485107421875,0.947906494140625,5.9814453125,0.6103515625,-3.84521484375,0.2850341796875,0.074462890625,0.9168701171875,-165.0,-306.0,-61.0,101929.0,-5.019000053405762,0,0
2661.960996,-0.27154541015625,0.13018798828125,0.10357666015625,0.947906494140625,6.2255859375,-0.9765625,-3.662109375,0.2685546875,0.0811767578125,0.9112548828125,-165.0,-306.0,-61.0,101929.0,-5.019000053405762,0,0
2661.967996,-0.271392822265625,0.129974365234375,0.103759765625,0.947967529296875,6.53076171875,-1.0986328125,-3.90625,0.248779296875,0.074951171875,0.9124755859375,-165.0,-306.0,-61.0,101929.0,-5.019000053405762,0,0
2661.975021,-0.271209716796875,0.12969970703125,0.103851318359375,0.94805908203125,6.28662109375,-0.732421875,-4.08935546875,0.2376708984375,0.072021484375,0.906494140625,-165.0,-306.0,-61.0,101929.0,-5.019000053405762,0,0
2661.982001,-0.271087646484375,0.1295166015625,0.103851318359375,0.9481201171875,4.8828125,0.0,-4.2724609375,0.224609375,0.072021484375,0.8961181640625,-165.0,-306.0,-61.0,101929.0,-5.019000053405762,0,0
2661.988037,-0.271087646484375,0.1295166015625,0.103851318359375,0.9481201171875,4.8828125,0.0,-4.2724609375,0.224609375,0.072021484375,0.8961181640625,-165.0,-306.0,-61.0,101929.0,-5.019000053405762,0,0
2661.995017,-0.2706298828125,0.128509521484375,0.103546142578125,0.94842529296875,1.3427734375,3.11279296875,-4.5166015625,0.2239990234375,0.091552734375,0.924072265625,-165.0,-306.0,-61.0,101929.0,-5.019000053405762,0,0
2662.002001,-0.270477294921875,0.12823486328125,0.1033935546875,0.948516845703125,0.18310546875,3.662109375,-4.69970703125,0.224853515625,0.090087890625,0.9307861328125,-165.0,-306.0,-61.0,101929.0,-5.019000053405762,0,0
2662.009019,-0.270111083984375,0.127044677734375,0.103240966796875,0.94879150390625,0.79345703125,6.16455078125,-4.5166015625,0.2381591796875,0.1185302734375,0.965576171875,-165.0,-306.0,-61.0,101929.0,-5.019000053405762,0,0
2662.015995,-0.27001953125,0.126678466796875,0.103240966796875,0.9488525390625,1.3427734375,7.2021484375,-4.150390625,0.2642822265625,0.1396484375,0.9678955078125,-165.0,-306.0,-61.0,101929.0,-5.019000053405762,0,0
2662.036998,-0.2646484375,0.125762939453125,0.102935791015625,0.950531005859375,3.173828125,7.62939453125,-3.11279296875,0.34033203125,0.16845703125,0.9771728515625,-169.0,-307.0,-60.0,101929.0,-5.022000312805176,0,0
2662.044018,-0.26458740234375,0.1256103515625,0.103057861328125,0.9505615234375,1.5869140625,6.7138671875,-2.86865234375,0.3516845703125,0.1658935546875,0.9786376953125,-169.0,-307.0,-60.0,101929.0,-5.022000312805176,0,0
2662.050996,-0.264251708984375,0.125335693359375,0.103759765625,0.95062255859375,3.60107421875,5.06591796875,-4.45556640625,0.36865234375,0.183837890625,0.9783935546875,-169.0,-307.0,-60.0,101929.0,-5.022000312805176,0,0
2662.057996,-0.26409912109375,0.125335693359375,0.10406494140625,0.95062255859375,4.21142578125,3.23486328125,-5.126953125,0.3734130859375,0.1837158203125,0.9676513671875,-169.0,-307.0,-60.0,101929.0,-5.022000312805176,0,0
2662.065021,-0.263458251953125,0.125457763671875,0.104949951171875,0.95068359375,4.21142578125,2.0751953125,-6.16455078125,0.3717041015625,0.179443359375,0.9698486328125,-169.0,-307.0,-60.0,101929.0,-5.022000312805176,0,0
2662.072001,-0.26318359375,0.125518798828125,0.105194091796875,0.950714111328125,2.74658203125,0.79345703125,-8.11767578125,0.3614501953125,0.1632080078125,0.954833984375,-169.0,-307.0,-60.0,101929.0,-5.022000312805176,0,0
2662.079015,-0.262908935546875,0.1256103515625,0.10540771484375,0.950775146484375,2.197265625,0.244140625,-9.033203125,0.356201171875,0.161865234375,0.951904296875,-169.0,-307.0,-60.0,101929.0,-5.022000312805176,0,0
2662.085047,-0.262908935546875,0.1256103515625,0.10540771484375,0.950775146484375,2.197265625,0.244140625,-9.033203125,0.356201171875,0.161865234375,0.951904296875,-169.0,-307.0,-60.0,101929.0,-5.022000312805176,0,0
2662.092001,-0.261566162109375,0.125732421875,0.10601806640625,0.9510498046875,0.54931640625,2.13623046875,-11.1083984375,0.3406982421875,0.1536865234375,0.961669921875,-169.0,-307.0,-60.0,101929.0,-5.022000312805176,0,0
2662.099018,-0.260833740234375,0.125579833984375,0.106231689453125,0.95123291015625,0.30517578125,2.5634765625,-11.8408203125,0.328857421875,0.156982421875,0.9644775390625,-169.0,-307.0,-60.0,101929.0,-5.022000312805176,0,0
2662.105995,-0.260101318359375,0.125274658203125,0.1063232421875,0.95147705078125,0.732421875,4.8828125,-10.92529296875,0.3099365234375,0.135498046875,0.976318359375,-169.0,-307.0,-60.0,101929.0,-5.022000312805176,0,0
2662.112994,-0.259796142578125,0.12506103515625,0.106353759765625,0.95159912109375,0.8544921875,5.615234375,-10.7421875,0.309326171875,0.138427734375,0.9669189453125,-169.0,-307.0,-60.0,101929.0,-5.022000312805176,0,0
2662.120019,-0.259124755859375,0.124725341796875,0.106414794921875,0.951812744140625,0.6103515625,4.8828125,-10.6201171875,0.307373046875,0.1341552734375,0.947998046875,-169.0,-307.0,-60.0,101929.0,-5.022000312805176,0,0
2662.126998,-0.25848388671875,0.124176025390625,0.106475830078125,0.9520263671875,2.197265625,6.7138671875,-10.498046875,0.28466796875,0.1334228515625,0.9693603515625,-169.0,-307.0,-60.0,101929.0,-5.019000053405762,0,0
2662.134018,-0.255218505859375,0.124237060546875,0.106109619140625,0.95294189453125,2.5634765625,6.34765625,-9.94873046875,0.280517578125,0.12744140625,0.9556884765625,-173.0,-308.0,-59.0,101929.0,-5.019000053405762,0,0
2662.140996,-0.254608154296875,0.123626708984375,0.106109619140625,0.95318603515625,0.8544921875,5.67626953125,-10.31494140625,0.2802734375,0.129150390625,0.956298828125,-173.0,-308.0,-59.0,101929.0,-5.019000053405762,0,0
2662.147996,-0.2540283203125,0.122955322265625,0.1060791015625,0.953460693359375,1.64794921875,8.30078125,-10.1318359375,0.284912109375,0.13037109375,0.95947265625,-173.0,-308.0,-59.0,101929.0,-5.019000053405762,0,0
2662.155021,-0.25341796875,0.12237548828125,0.106170654296875,0.95367431640625,2.0751953125,7.99560546875,-10.07080078125,0.2890625,0.132080078125,0.948486328125,-173.0,-308.0,-59.0,101929.0,-5.019000053405762,0,0
2662.162001,-0.25311279296875,0.12213134765625,0.1063232421875,0.953765869140625,4.33349609375,5.92041015625,-10.92529296875,0.2872314453125,0.1328125,0.931396484375,-173.0,-308.0,-59.0,101929.0,-5.019000053405762,0,0
2662.169015,-0.252197265625,0.121429443359375,0.106658935546875,0.95404052734375,5.126953125,3.84521484375,-10.55908203125,0.2642822265625,0.1219482421875,0.9193115234375,-173.0,-308.0,-59.0,101929.0,-5.019000053405762,0,0
2662.175047,-0.252197265625,0.121429443359375,0.106658935546875,0.95404052734375,5.126953125,3.84521484375,-10.55908203125,0.2642822265625,0.1219482421875,0.9193115234375,-173.0,-308.0,-59.0,101929.0,-5.019000053405762,0,0
2662.182001,-0.251708984375,0.1209716796875,0.10675048828125,0.954254150390625,5.43212890625,3.2958984375,-9.09423828125,0.2379150390625,0.0870361328125,0.919921875,-173.0,-308.0,-59.0,101929.0,-5.019000053405762,0,0
2662.189018,-0.251068115234375,0.120269775390625,0.106689453125,0.954498291015625,4.5166015625,2.13623046875,-7.6904296875,0.220703125,0.080322265625,0.8956298828125,-173.0,-308.0,-59.0,101929.0,-5.019000053405762,0,0
2662.21002,-0.250457763671875,0.118377685546875,0.10614013671875,0.9549560546875,2.9296875,6.28662109375,-4.0283203125,0.19482421875,0.0986328125,0.9371337890625,-173.0,-308.0,-59.0,101929.0,-5.019000053405762,0,0
2662.216998,-0.25042724609375,0.117950439453125,0.10601806640625,0.955047607421875,1.77001953125,8.30078125,-2.197265625,0.21484375,0.1087646484375,0.9488525390625,-173.0,-308.0,-59.0,101929.0,-5.019000053405762,0,0
2662.224018,-0.25042724609375,0.11749267578125,0.1058349609375,0.955108642578125,1.03759765625,10.07080078125,-1.28173828125,0.2301025390625,0.1070556640625,0.9617919921875,-173.0,-308.0,-59.0,101929.0,-5.021000385284424,0,0
2662.230996,-0.24896240234375,0.116455078125,0.105316162109375,0.9556884765625,1.03759765625,10.07080078125,0.1220703125,0.2503662109375,0.1190185546875,0.94384765625,-174.0,-309.0,-57.0,101929.0,-5.021000385284424,0,0
2662.237996,-0.2490234375,0.1160888671875,0.105316162109375,0.9556884765625,2.3193359375,9.3994140625,1.03759765625,0.2669677734375,0.145263671875,0.957275390625,-174.0,-309.0,-57.0,101929.0,-5.021000385284424,0,0
2662.245021,-0.249298095703125,0.115478515625,0.105499267578125,0.9556884765625,1.8310546875,7.87353515625,1.708984375,0.276611328125,0.159423828125,0.950439453125,-174.0,-309.0,-57.0,101929.0,-5.021000385284424,0,0
2662.252001,-0.2493896484375,0.1153564453125,0.1055908203125,0.955657958984375,1.8310546875,4.638671875,2.62451171875,0.3031005859375,0.1685791015625,0.99658203125,-174.0,-309.0,-57.0,101929.0,-5.021000385284424,0,0
2662.259015,-0.249603271484375,0.115264892578125,0.105865478515625,0.955596923828125,2.9296875,4.45556640625,2.50244140625,0.316162109375,0.175048828125,0.99462890625,-174.0,-309.0,-57.0,101929.0,-5.021000385284424,0,0
2662.265999,-0.249755859375,0.115386962890625,0.1063232421875,0.95550537109375,2.8076171875,1.52587890625,1.77001953125,0.345703125,0.1885986328125,0.96630859375,-174.0,-309.0,-57.0,101929.0,-5.021000385284424,0,0
2662.272032,-0.249755859375,0.115386962890625,0.1063232421875,0.95550537109375,2.8076171875,1.52587890625,1.77001953125,0.345703125,0.1885986328125,0.96630859375,-174.0,-309.0,-57.0,101929.0,-5.021000385284424,0,0
2662.279019,-0.249847412109375,0.11566162109375,0.106903076171875,0.95538330078125,3.7841796875,0.3662109375,0.8544921875,0.356201171875,0.18212890625,0.9627685546875,-174.0,-309.0,-57.0,101929.0,-5.021000385284424,0,0
2662.30002,-0.24981689453125,0.116455078125,0.108123779296875,0.95513916015625,1.8310546875,0.18310546875,-0.732421875,0.3365478515625,0.17822265625,0.9737548828125,-174.0,-309.0,-57.0,101929.0,-5.021000385284424,0,0
2662.306998,-0.24969482421875,0.116668701171875,0.10845947265625,0.955108642578125,0.9765625,-0.18310546875,-2.197265625,0.3311767578125,0.180908203125,0.972412109375,-174.0,-309.0,-57.0,101929.0,-5.021000385284424,0,0
2662.314018,-0.24951171875,0.116851806640625,0.108795166015625,0.955108642578125,1.3427734375,-0.18310546875,-2.197265625,0.33203125,0.18017578125,0.96337890625,-174.0,-309.0,-57.0,101929.0,-5.021000385284424,0,0
2662.320996,-0.249420166015625,0.116912841796875,0.10888671875,0.955108642578125,1.03759765625,0.06103515625,-3.41796875,0.316650390625,0.1641845703125,0.9598388671875,-174.0,-309.0,-57.0,101929.0,-5.021000385284424,0,0
2662.327996,-0.249176025390625,0.117034912109375,0.109039306640625,0.95513916015625,0.6103515625,-0.18310546875,-3.84521484375,0.3052978515625,0.16015625,0.95166015625,-177.0,-310.0,-57.0,101929.0,-5.021000385284424,0,0
2662.335021,-0.247467041015625,0.117279052734375,0.10888671875,0.95556640625,0.06103515625,-0.244140625,-3.84521484375,0.298828125,0.1466064453125,0.946044921875,-177.0,-310.0,-57.0,101929.0,-5.021000385284424,0,0
2662.342001,-0.247039794921875,0.11724853515625,0.108734130859375,0.9556884765625,-1.03759765625,1.52587890625,-4.45556640625,0.2752685546875,0.13623046875,0.9576416015625,-177.0,-310.0,-57.0,101929.0,-5.021000385284424,0,0
2662.349015,-0.24688720703125,0.11712646484375,0.108673095703125,0.95574951171875,-1.220703125,2.3193359375,-5.0048828125,0.2677001953125,0.1409912109375,0.95947265625,-177.0,-310.0,-57.0,101929.0,-5.021000385284424,0,0
2662.355994,-0.246551513671875,0.1168212890625,0.1083984375,0.955902099609375,-1.40380859375,3.41796875,-5.31005859375,0.2672119140625,0.1341552734375,0.9619140625,-177.0,-310.0,-57.0,101929.0,-5.021000385284424,0,0
2662.362026,-0.246551513671875,0.1168212890625,0.1083984375,0.955902099609375,-1.40380859375,3.41796875,-5.31005859375,0.2672119140625,0.1341552734375,0.9619140625,-177.0,-310.0,-57.0,101929.0,-5.021000385284424,0,0
2662.369019,-0.245941162109375,0.11602783203125,0.108154296875,0.956207275390625,-1.52587890625,6.04248046875,-7.14111328125,0.2535400390625,0.1492919921875,0.9552001953125,-177.0,-310.0,-57.0,101929.0,-5.021000385284424,0,0
2662.375995,-0.2454833984375,0.115478515625,0.108001708984375,0.956390380859375,-1.708984375,5.2490234375,-6.9580078125,0.247314453125,0.15234375,0.95458984375,-177.0,-310.0,-57.0,101929.0,-5.020000457763672,0,0
2662.382994,-0.244964599609375,0.11505126953125,0.10791015625,0.95660400390625,-1.28173828125,1.46484375,-7.38525390625,0.22216796875,0.15185546875,0.9571533203125,-177.0,-310.0,-57.0,101929.0,-5.020000457763672,0,0
2662.417996,-0.242828369140625,0.1131591796875,0.106658935546875,0.957489013671875,-2.44140625,3.84521484375,-8.7890625,0.172607421875,0.0994873046875,0.9354248046875,-177.0,-310.0,-57.0,101929.0,-5.020000457763672,0,0
2662.425021,-0.2423095703125,0.11236572265625,0.1060791015625,0.957794189453125,-4.2724609375,6.103515625,-8.60595703125,0.1805419921875,0.11376953125,0.953369140625,-178.0,-310.0,-56.0,101929.0,-5.020000457763672,0,0
2662.432001,-0.241485595703125,0.11151123046875,0.10546875,0.958160400390625,-4.08935546875,7.080078125,-8.4228515625,0.1885986328125,0.130126953125,0.96240234375,-178.0,-310.0,-56.0,101929.0,-5.020000457763672,0,0
2662.439015,-0.2412109375,0.11102294921875,0.105255126953125,0.95831298828125,-3.41796875,9.70458984375,-8.72802734375,0.209228515625,0.148193359375,0.986328125,-178.0,-310.0,-56.0,101929.0,-5.020000457763672,0,0
2662.445994,-0.240447998046875,0.109649658203125,0.104583740234375,0.958740234375,-3.90625,9.8876953125,-7.99560546875,0.224853515625,0.158447265625,0.99169921875,-178.0,-310.0,-56.0,101929.0,-5.020000457763672,0,0
2662.452998,-0.24017333984375,0.1092529296875,0.10443115234375,0.9588623046875,-4.5166015625,9.3994140625,-7.6904296875,0.24462890625,0.177490234375,1.00048828125,-178.0,-310.0,-56.0,101929.0,-5.020000457763672,0,0
2662.472994,-0.2391357421875,0.108123779296875,0.104278564453125,0.95928955078125,-1.15966796875,5.4931640625,-6.2255859375,0.30126953125,0.17333984375,0.9896240234375,-178.0,-310.0,-56.0,101929.0,-5.020000457763672,0,0
2662.480019,-0.238922119140625,0.1080322265625,0.104217529296875,0.9593505859375,-1.89208984375,5.55419921875,-5.92041015625,0.30078125,0.1676025390625,1.00146484375,-178.0,-310.0,-56.0,101929.0,-5.021000385284424,0,0
2662.486998,-0.238525390625,0.10772705078125,0.104278564453125,0.95947265625,-0.6103515625,5.79833984375,-4.39453125,0.31640625,0.17626953125,0.97802734375,-178.0,-310.0,-56.0,101929.0,-5.021000385284424,0,0
2662.494018,-0.2384033203125,0.107635498046875,0.104339599609375,0.959503173828125,-0.06103515625,5.79833984375,-4.08935546875,0.31689453125,0.1705322265625,0.9775390625,-178.0,-310.0,-56.0,101929.0,-5.021000385284424,0,0
2662.500996,-0.2381591796875,0.107452392578125,0.104400634765625,0.959564208984375,0.18310546875,5.9814453125,-3.84521484375,0.318115234375,0.175537109375,0.9749755859375,-178.0,-310.0,-56.0,101929.0,-5.021000385284424,0,0
2662.507996,-0.238128662109375,0.107421875,0.1043701171875,0.9595947265625,-1.0986328125,6.28662109375,-1.708984375,0.3179931640625,0.1571044921875,0.975830078125,-178.0,-310.0,-56.0,101929.0,-5.021000385284424,0,0
2662.515021,-0.23809814453125,0.107391357421875,0.104400634765625,0.9595947265625,-0.54931640625,5.4931640625,-1.3427734375,0.321044921875,0.16455078125,0.9697265625,-178.0,-310.0,-56.0,101929.0,-5.021000385284424,0,0
2662.522001,-0.23809814453125,0.10748291015625,0.104583740234375,0.959564208984375,0.9765625,3.5400390625,0.244140625,0.324951171875,0.1641845703125,0.9603271484375,-178.0,-310.0,-56.0,101929.0,-5.021000385284424,0,0
2662.529015,-0.238128662109375,0.107574462890625,0.104705810546875,0.95953369140625,1.15966796875,2.62451171875,0.18310546875,0.3258056640625,0.1632080078125,0.9559326171875,-178.0,-310.0,-56.0,101929.0,-5.021000385284424,0,0
2662.535999,-0.23931884765625,0.107574462890625,0.1048583984375,0.959228515625,0.79345703125,1.708984375,0.8544921875,0.3255615234375,0.1483154296875,0.9544677734375,-178.0,-310.0,-56.0,101929.0,-5.021000385284424,0,0
2662.542998,-0.239501953125,0.10809326171875,0.105010986328125,0.9591064453125,1.15966796875,-0.732421875,1.46484375,0.296875,0.147216796875,0.953125,-178.0,-310.0,-56.0,101929.0,-5.021000385284424,0,0
2662.562999,-0.239837646484375,0.108551025390625,0.1051025390625,0.958953857421875,0.8544921875,0.8544921875,1.40380859375,0.27490234375,0.1138916015625,0.91943359375,-178.0,-310.0,-56.0,101929.0,-5.021000385284424,0,0
2662.57002,-0.2398681640625,0.10858154296875,0.1051025390625,0.958953857421875,0.9765625,1.0986328125,1.15966796875,0.267578125,0.125244140625,0.9166259765625,-178.0,-310.0,-56.0,101929.0,-5.021000385284424,0,0
2662.576998,-0.239898681640625,0.10858154296875,0.105072021484375,0.958953857421875,0.91552734375,1.0986328125,0.54931640625,0.259521484375,0.13134765625,0.920654296875,-178.0,-310.0,-56.0,101929.0,-5.021000385284424,0,0
2662.584018,-0.239898681640625,0.1085205078125,0.10504150390625,0.958953857421875,0.18310546875,1.3427734375,-0.54931640625,0.2509765625,0.1370849609375,0.927734375,-178.0,-310.0,-56.0,101929.0,-5.021000385284424,0,0
2662.590996,-0.2398681640625,0.108428955078125,0.105010986328125,0.958984375,0.30517578125,1.28173828125,-1.03759765625,0.2510986328125,0.13623046875,0.9293212890625,-178.0,-310.0,-56.0,101929.0,-5.021000385284424,0,0
2662.597996,-0.23980712890625,0.108367919921875,0.105010986328125,0.959014892578125,1.0986328125,1.0986328125,-2.01416015625,0.2431640625,0.1341552734375,0.9317626953125,-178.0,-310.0,-56.0,101929.0,-5.021000385284424,0,0
2662.605021,-0.2396240234375,0.108154296875,0.105010986328125,0.959075927734375,1.40380859375,1.0986328125,-2.9296875,0.229736328125,0.130859375,0.923095703125,-178.0,-310.0,-56.0,101929.0,-5.021000385284424,0,0
2662.612001,-0.2393798828125,0.10784912109375,0.104949951171875,0.95916748046875,2.01416015625,1.708984375,-4.69970703125,0.20947265625,0.1224365234375,0.9239501953125,-178.0,-310.0,-56.0,101929.0,-5.021000385284424,0,0
2662.619015,-0.239227294921875,0.107635498046875,0.104949951171875,0.959228515625,2.74658203125,1.953125,-5.31005859375,0.2012939453125,0.1201171875,0.92041015625,-178.0,-310.0,-56.0,101929.0,-5.021000385284424,0,0
2662.625994,-0.238861083984375,0.10711669921875,0.104888916015625,0.959381103515625,2.197265625,2.74658203125,-6.77490234375,0.18994140625,0.1090087890625,0.9205322265625,-176.0,-311.0,-53.0,101929.0,-5.021000385284424,0,0
2662.632998,-0.238677978515625,0.106536865234375,0.104705810546875,0.95953369140625,1.8310546875,2.99072265625,-6.77490234375,0.1861572265625,0.107177734375,0.920654296875,-176.0,-311.0,-53.0,101929.0,-5.021000385284424,0,0
2662.640018,-0.238433837890625,0.106170654296875,0.1046142578125,0.959625244140625,1.52587890625,4.45556640625,-7.8125,0.176513671875,0.1055908203125,0.9344482421875,-176.0,-311.0,-53.0,101929.0,-5.021000385284424,0,0
2662.646046,-0.238433837890625,0.106170654296875,0.1046142578125,0.959625244140625,1.52587890625,4.45556640625,-7.8125,0.176513671875,0.1055908203125,0.9344482421875,-176.0,-311.0,-53.0,101929.0,-5.021000385284424,0,0
2662.652994,-0.237518310546875,0.10455322265625,0.103851318359375,0.960113525390625,-2.01416015625,8.4228515625,-7.4462890625,0.1995849609375,0.12109375,0.9544677734375,-176.0,-311.0,-53.0,101929.0,-5.021000385284424,0,0
2662.660019,-0.2373046875,0.104156494140625,0.103607177734375,0.960235595703125,-2.50244140625,8.97216796875,-7.32421875,0.20361328125,0.125732421875,0.95166015625,-176.0,-311.0,-53.0,101929.0,-5.021000385284424,0,0
2662.666998,-0.236663818359375,0.102996826171875,0.102874755859375,0.960601806640625,-4.2724609375,9.21630859375,-6.34765625,0.2218017578125,0.14404296875,0.971923828125,-176.0,-311.0,-53.0,101929.0,-5.021000385284424,0,0
2662.674018,-0.23651123046875,0.1026611328125,0.1026611328125,0.960693359375,-3.7841796875,9.3994140625,-5.859375,0.2294921875,0.1448974609375,0.9759521484375,-176.0,-311.0,-53.0,101929.0,-5.021000385284424,0,0
2662.680996,-0.236083984375,0.1016845703125,0.1021728515625,0.960968017578125,-3.47900390625,8.97216796875,-5.31005859375,0.23486328125,0.1522216796875,0.9783935546875,-176.0,-311.0,-53.0,101929.0,-5.020000457763672,0,0
2662.687996,-0.235992431640625,0.101409912109375,0.10198974609375,0.961029052734375,-3.5400390625,9.765625,-3.35693359375,0.2628173828125,0.160400390625,1.0135498046875,-176.0,-311.0,-53.0,101929.0,-5.020000457763672,0,0
2662.695021,-0.235931396484375,0.10113525390625,0.10186767578125,0.961090087890625,-3.60107421875,10.43701171875,-2.62451171875,0.2823486328125,0.17822265625,1.0111083984375,-176.0,-311.0,-53.0,101929.0,-5.020000457763672,0,0
2662.702001,-0.2357177734375,0.10064697265625,0.101898193359375,0.961181640625,-2.38037109375,9.33837890625,-2.25830078125,0.32763671875,0.2271728515625,1.0166015625,-176.0,-311.0,-53.0,101929.0,-5.020000457763672,0,0
2662.709015,-0.23565673828125,0.10052490234375,0.102020263671875,0.961212158203125,-1.8310546875,8.36181640625,-2.197265625,0.3326416015625,0.2313232421875,1.0159912109375,-176.0,-311.0,-53.0,101929.0,-5.020000457763672,0,0
2662.715994,-0.235504150390625,0.100433349609375,0.102264404296875,0.961212158203125,-3.2958984375,7.568359375,-1.708984375,0.332275390625,0.2293701171875,1.0091552734375,-176.0,-311.0,-53.0,101929.0,-5.020000457763672,0,0
2662.736046,-0.2353515625,0.100616455078125,0.102569580078125,0.961212158203125,-1.40380859375,3.11279296875,-1.8310546875,0.3328857421875,0.2049560546875,0.989501953125,-173.0,-312.0,-53.0,101929.0,-5.020000457763672,0,0
2662.742994,-0.2362060546875,0.10113525390625,0.1031494140625,0.96087646484375,-2.99072265625,-0.9765625,-3.35693359375,0.3154296875,0.197021484375,0.9761962890625,-173.0,-312.0,-53.0,101929.0,-5.020000457763672,0,0
2662.750019,-0.236114501953125,0.10137939453125,0.103118896484375,0.96087646484375,-3.0517578125,-1.5869140625,-2.86865234375,0.3033447265625,0.163330078125,0.9810791015625,-173.0,-312.0,-53.0,101929.0,-5.020000457763672,0,0
2662.756998,-0.23583984375,0.1016845703125,0.102996826171875,0.9609375,-4.08935546875,-1.220703125,-3.35693359375,0.2772216796875,0.149658203125,0.993896484375,-173.0,-312.0,-53.0,101929.0,-5.020000457763672,0,0
2662.764018,-0.235565185546875,0.101806640625,0.1026611328125,0.961029052734375,-5.37109375,0.18310546875,-3.2958984375,0.25634765625,0.1470947265625,0.9853515625,-173.0,-312.0,-53.0,101929.0,-5.020000457763672,0,0
2662.770996,-0.23529052734375,0.101837158203125,0.102294921875,0.96112060546875,-5.43212890625,0.8544921875,-3.72314453125,0.2525634765625,0.149169921875,0.982666015625,-173.0,-312.0,-53.0,101929.0,-5.020000457763672,0,0
2662.777996,-0.23516845703125,0.101806640625,0.10211181640625,0.961181640625,-5.18798828125,2.01416015625,-3.72314453125,0.2493896484375,0.147216796875,0.9744873046875,-173.0,-312.0,-53.0,101929.0,-5.020000457763672,0,0
2662.785021,-0.234893798828125,0.101776123046875,0.10174560546875,0.961273193359375,-5.18798828125,1.64794921875,-4.0283203125,0.2432861328125,0.1339111328125,0.9453125,-173.0,-312.0,-53.0,101929.0,-5.020000457763672,0,0
2662.792001,-0.234619140625,0.1015625,0.10137939453125,0.96142578125,-3.5400390625,4.0283203125,-4.0283203125,0.2333984375,0.1220703125,0.95068359375,-173.0,-312.0,-53.0,101929.0,-5.020000457763672,0,0
2662.799015,-0.234466552734375,0.1014404296875,0.101226806640625,0.96148681640625,-3.2958984375,3.84521484375,-4.69970703125,0.235595703125,0.1298828125,0.939453125,-173.0,-312.0,-53.0,101929.0,-5.020000457763672,0,0
2662.805995,-0.234039306640625,0.101226806640625,0.1007080078125,0.961669921875,-3.662109375,2.74658203125,-4.39453125,0.236083984375,0.125,0.935302734375,-173.0,-312.0,-53.0,101929.0,-5.020000457763672,0,0
2662.827002,-0.23345947265625,0.100830078125,0.100067138671875,0.9619140625,-2.8076171875,1.89208984375,-4.69970703125,0.2108154296875,0.115966796875,0.9285888671875,-169.0,-313.0,-52.0,101929.0,-5.020000457763672,0,0
2662.833035,-0.23345947265625,0.100830078125,0.100067138671875,0.9619140625,-2.8076171875,1.89208984375,-4.69970703125,0.2108154296875,0.115966796875,0.9285888671875,-169.0,-313.0,-52.0,101929.0,-5.020000457763672,0,0
2662.84002,-0.232879638671875,0.100372314453125,0.099578857421875,0.962158203125,-0.48828125,2.01416015625,-5.126953125,0.1807861328125,0.098876953125,0.9207763671875,-169.0,-313.0,-52.0,101929.0,-5.020000457763672,0,0
2662.846998,-0.23236083984375,0.09979248046875,0.0989990234375,0.96240234375,-2.197265625,1.15966796875,-5.0048828125,0.161376953125,0.106689453125,0.915771484375,-169.0,-313.0,-52.0,101929.0,-5.020000457763672,0,0
2662.854018,-0.232177734375,0.099639892578125,0.09881591796875,0.962493896484375,-2.99072265625,-0.8544921875,-5.43212890625,0.1502685546875,0.11572265625,0.9239501953125,-169.0,-313.0,-52.0,101929.0,-5.020000457763672,0,0
2662.860996,-0.231658935546875,0.098876953125,0.0980224609375,0.9627685546875,-4.08935546875,0.06103515625,-5.06591796875,0.1441650390625,0.1092529296875,0.952392578125,-169.0,-313.0,-52.0,101929.0,-5.020000457763672,0,0
2662.867996,-0.231536865234375,0.098663330078125,0.0977783203125,0.96282958984375,-4.33349609375,1.46484375,-3.7841796875,0.1627197265625,0.1221923828125,0.96142578125,-169.0,-313.0,-52.0,101929.0,-5.020000457763672,0,0
2662.895999,-0.231048583984375,0.0972900390625,0.0970458984375,0.963165283203125,-1.28173828125,2.86865234375,-0.30517578125,0.216796875,0.1590576171875,1.0059814453125,-169.0,-313.0,-52.0,101929.0,-5.021000385284424,0,0
2662.902998,-0.231109619140625,0.097137451171875,0.0970458984375,0.963165283203125,-0.91552734375,1.8310546875,1.46484375,0.2479248046875,0.17626953125,1.0233154296875,-169.0,-313.0,-52.0,101929.0,-5.021000385284424,0,0
2662.910019,-0.231170654296875,0.09710693359375,0.097137451171875,0.963134765625,0.42724609375,1.5869140625,1.953125,0.26025390625,0.18310546875,1.0244140625,-169.0,-313.0,-52.0,101929.0,-5.021000385284424,0,0
2662.917002,-0.231292724609375,0.09710693359375,0.09747314453125,0.96307373046875,2.50244140625,0.67138671875,2.0751953125,0.272216796875,0.196044921875,1.0294189453125,-169.0,-313.0,-52.0,101929.0,-5.021000385284424,0,0
2662.92303,-0.231292724609375,0.09710693359375,0.09747314453125,0.96307373046875,2.50244140625,0.67138671875,2.0751953125,0.272216796875,0.196044921875,1.0294189453125,-169.0,-313.0,-52.0,101929.0,-5.021000385284424,0,0
2662.930019,-0.231597900390625,0.09722900390625,0.09808349609375,0.96295166015625,2.50244140625,0.244140625,2.99072265625,0.285888671875,0.1856689453125,1.0230712890625,-167.0,-315.0,-51.0,101929.0,-5.021000385284424,0,0
2662.936998,-0.232635498046875,0.097381591796875,0.0985107421875,0.962615966796875,2.38037109375,0.244140625,3.5400390625,0.288330078125,0.176025390625,1.0169677734375,-167.0,-315.0,-51.0,101929.0,-5.021000385284424,0,0
2662.944018,-0.232879638671875,0.097686767578125,0.098968505859375,0.962493896484375,2.74658203125,-0.67138671875,3.35693359375,0.2989501953125,0.16943359375,0.9825439453125,-167.0,-315.0,-51.0,101929.0,-5.021000385284424,0,0
2662.950996,-0.23309326171875,0.09808349609375,0.09930419921875,0.962371826171875,2.25830078125,-1.03759765625,3.23486328125,0.2979736328125,0.1700439453125,0.972412109375,-167.0,-315.0,-51.0,101929.0,-5.021000385284424,0,0
2662.957996,-0.233154296875,0.0982666015625,0.099456787109375,0.962310791015625,1.64794921875,-1.5869140625,2.197265625,0.29248046875,0.16650390625,0.9710693359375,-167.0,-315.0,-51.0,101929.0,-5.021000385284424,0,0
2662.965021,-0.233367919921875,0.098663330078125,0.0997314453125,0.962188720703125,2.38037109375,-1.953125,2.01416015625,0.28564453125,0.166748046875,0.961181640625,-167.0,-315.0,-51.0,101929.0,-5.021000385284424,0,0
2662.972001,-0.233489990234375,0.09893798828125,0.10003662109375,0.96209716796875,2.685546875,-0.54931640625,1.40380859375,0.2852783203125,0.1533203125,0.952392578125,-167.0,-315.0,-51.0,101929.0,-5.021000385284424,0,0
2662.979015,-0.23358154296875,0.09912109375,0.100128173828125,0.962066650390625,2.685546875,-1.5869140625,1.64794921875,0.2764892578125,0.1375732421875,0.939453125,-167.0,-315.0,-51.0,101929.0,-5.023000240325928,0,0
2663.000018,-0.233734130859375,0.099578857421875,0.100341796875,0.961944580078125,1.52587890625,-0.06103515625,-0.244140625,0.25,0.114990234375,0.919189453125,-167.0,-315.0,-51.0,101929.0,-5.023000240325928,0,0
2663.007002,-0.2337646484375,0.0994873046875,0.10009765625,0.96197509765625,-0.18310546875,3.72314453125,-0.8544921875,0.244384765625,0.10791015625,0.934326171875,-167.0,-315.0,-51.0,101929.0,-5.023000240325928,0,0
2663.01303,-0.2337646484375,0.0994873046875,0.10009765625,0.96197509765625,-0.18310546875,3.72314453125,-0.8544921875,0.244384765625,0.10791015625,0.934326171875,-167.0,-315.0,-51.0,101929.0,-5.023000240325928,0,0
2663.020019,-0.233734130859375,0.09930419921875,0.099761962890625,0.9620361328125,-1.708984375,4.0283203125,-1.5869140625,0.2286376953125,0.1136474609375,0.927734375,-167.0,-315.0,-51.0,101929.0,-5.023000240325928,0,0
2663.026998,-0.233612060546875,0.098968505859375,0.099639892578125,0.962127685546875,-0.54931640625,3.84521484375,-2.5634765625,0.21875,0.1470947265625,0.9527587890625,-164.0,-314.0,-52.0,101929.0,-5.023000240325928,0,0
2663.034018,-0.2318115234375,0.0987548828125,0.099517822265625,0.96258544921875,1.40380859375,3.72314453125,-3.7841796875,0.2193603515625,0.146728515625,0.9521484375,-164.0,-314.0,-52.0,101929.0,-5.023000240325928,0,0
2663.040996,-0.231689453125,0.09857177734375,0.099578857421875,0.962615966796875,2.685546875,3.47900390625,-4.7607421875,0.2183837890625,0.1466064453125,0.9456787109375,-164.0,-314.0,-52.0,101929.0,-5.023000240325928,0,0
2663.047996,-0.23114013671875,0.09796142578125,0.099609375,0.962799072265625,2.8076171875,2.685546875,-6.7138671875,0.1905517578125,0.111328125,0.921875,-164.0,-314.0,-52.0,101929.0,-5.023000240325928,0,0
2663.055021,-0.230926513671875,0.097747802734375,0.099609375,0.962890625,3.47900390625,2.0751953125,-7.6904296875,0.1778564453125,0.110107421875,0.9146728515625,-164.0,-314.0,-52.0,101929.0,-5.023000240325928,0,0
2663.062001,-0.230224609375,0.097015380859375,0.099273681640625,0.963165283203125,2.44140625,2.197265625,-7.9345703125,0.169677734375,0.0953369140625,0.9102783203125,-164.0,-314.0,-52.0,101929.0,-5.023000240325928,0,0
2663.082998,-0.229095458984375,0.095489501953125,0.0980224609375,0.963714599609375,-4.7607421875,5.67626953125,-5.79833984375,0.163818359375,0.12060546875,0.9647216796875,-164.0,-314.0,-52.0,101929.0,-5.021000385284424,0,0
2663.090018,-0.22894287109375,0.09515380859375,0.09771728515625,0.96380615234375,-5.31005859375,6.34765625,-5.0048828125,0.16943359375,0.1337890625,0.974365234375,-164.0,-314.0,-52.0,101929.0,-5.021000385284424,0,0
2663.097002,-0.228668212890625,0.094451904296875,0.09716796875,0.964019775390625,-6.34765625,7.26318359375,-3.662109375,0.1832275390625,0.1435546875,0.98486328125,-164.0,-314.0,-52.0,101929.0,-5.021000385284424,0,0
2663.104018,-0.228485107421875,0.09381103515625,0.09661865234375,0.96417236328125,-6.04248046875,7.568359375,-2.13623046875,0.1944580078125,0.1512451171875,0.9891357421875,-164.0,-314.0,-52.0,101929.0,-5.021000385284424,0,0
2663.110049,-0.228485107421875,0.09381103515625,0.09661865234375,0.96417236328125,-6.04248046875,7.568359375,-2.13623046875,0.1944580078125,0.1512451171875,0.9891357421875,-164.0,-314.0,-52.0,101929.0,-5.021000385284424,0,0
2663.116998,-0.2283935546875,0.093170166015625,0.096221923828125,0.96429443359375,-4.33349609375,5.79833984375,-0.8544921875,0.21728515625,0.1680908203125,0.9912109375,-164.0,-314.0,-52.0,101929.0,-5.021000385284424,0,0
2663.124018,-0.228363037109375,0.093017578125,0.096038818359375,0.964324951171875,-4.21142578125,5.2490234375,0.18310546875,0.2691650390625,0.19091796875,1.0201416015625,-164.0,-314.0,-52.0,101929.0,-5.021000385284424,0,0
2663.130996,-0.2283935546875,0.093017578125,0.09600830078125,0.964324951171875,-4.08935546875,4.638671875,0.3662109375,0.2847900390625,0.193115234375,1.0218505859375,-162.0,-312.0,-52.0,101929.0,-5.021000385284424,0,0
2663.137996,-0.2296142578125,0.093048095703125,0.096160888671875,0.964019775390625,-4.69970703125,3.23486328125,0.54931640625,0.2919921875,0.1998291015625,1.013916015625,-162.0,-312.0,-52.0,101929.0,-5.021000385284424,0,0
2663.145021,-0.2296142578125,0.09332275390625,0.09619140625,0.9639892578125,-4.5166015625,0.91552734375,0.48828125,0.2999267578125,0.203369140625,1.0316162109375,-162.0,-312.0,-52.0,101929.0,-5.021000385284424,0,0
2663.152001,-0.2296142578125,0.09375,0.096282958984375,0.96392822265625,-4.7607421875,-0.42724609375,0.9765625,0.301025390625,0.2039794921875,1.0274658203125,-162.0,-312.0,-52.0,101929.0,-5.021000385284424,0,0
2663.159015,-0.229644775390625,0.093994140625,0.09625244140625,0.96392822265625,-5.2490234375,-1.708984375,1.220703125,0.2977294921875,0.193603515625,1.02734375,-162.0,-312.0,-52.0,101929.0,-5.021000385284424,0,0
2663.165999,-0.229644775390625,0.094512939453125,0.096343994140625,0.963836669921875,-3.60107421875,-1.708984375,0.42724609375,0.2823486328125,0.1993408203125,1.02001953125,-162.0,-312.0,-52.0,101929.0,-5.021000385284424,0,0
2663.172998,-0.2296142578125,0.0947265625,0.0963134765625,0.963836669921875,-4.57763671875,-2.38037109375,0.3662109375,0.2689208984375,0.1815185546875,1.0042724609375,-162.0,-312.0,-52.0,101929.0,-5.021000385284424,0,0
2663.180023,-0.2296142578125,0.094879150390625,0.0963134765625,0.963836669921875,-3.41796875,-2.01416015625,0.48828125,0.2667236328125,0.1751708984375,1.009521484375,-162.0,-312.0,-52.0,101929.0,-5.022000312805176,0,0
2663.187002,-0.229644775390625,0.095306396484375,0.096038818359375,0.96380615234375,-3.173828125,-0.54931640625,0.91552734375,0.2584228515625,0.1636962890625,1.0035400390625,-162.0,-312.0,-52.0,101929.0,-5.022000312805176,0,0
2663.194018,-0.2296142578125,0.09539794921875,0.095947265625,0.96380615234375,-4.2724609375,-0.48828125,0.0,0.25,0.161865234375,0.9744873046875,-162.0,-312.0,-52.0,101929.0,-5.022000312805176,0,0
2663.200049,-0.2296142578125,0.09539794921875,0.095947265625,0.96380615234375,-4.2724609375,-0.48828125,0.0,0.25,0.161865234375,0.9744873046875,-162.0,-312.0,-52.0,101929.0,-5.022000312805176,0,0
2663.206998,-0.229583740234375,0.095794677734375,0.095306396484375,0.963836669921875,-5.126953125,-0.732421875,0.42724609375,0.2423095703125,0.127685546875,0.9464111328125,-162.0,-312.0,-52.0,101929.0,-5.022000312805176,0,0
2663.214018,-0.229583740234375,0.0958251953125,0.0950927734375,0.9638671875,-5.126953125,1.46484375,-0.244140625,0.23583984375,0.123046875,0.9615478515625,-162.0,-312.0,-52.0,101929.0,-5.022000312805176,0,0
2663.220996,-0.22943115234375,0.095794677734375,0.094390869140625,0.963958740234375,-5.79833984375,2.44140625,-0.732421875,0.2296142578125,0.12109375,0.9486083984375,-162.0,-312.0,-52.0,101929.0,-5.022000312805176,0,0
2663.227996,-0.229339599609375,0.095733642578125,0.094207763671875,0.964019775390625,-5.18798828125,2.197265625,-2.0751953125,0.2215576171875,0.1319580078125,0.9412841796875,-161.0,-313.0,-52.0,101929.0,-5.022000312805176,0,0
2663.235021,-0.229461669921875,0.09564208984375,0.09405517578125,0.964019775390625,-5.0048828125,1.89208984375,-2.86865234375,0.2100830078125,0.13671875,0.9473876953125,-161.0,-313.0,-52.0,101929.0,-5.022000312805176,0,0
2663.255994,-0.22845458984375,0.094757080078125,0.092987060546875,0.964447021484375,-3.173828125,4.08935546875,-5.7373046875,0.2073974609375,0.109130859375,0.9412841796875,-161.0,-313.0,-52.0,101929.0,-5.022000312805176,0,0
2663.262998,-0.22796630859375,0.09442138671875,0.09271240234375,0.964630126953125,-1.52587890625,2.62451171875,-7.8125,0.1790771484375,0.099609375,0.9373779296875,-161.0,-313.0,-52.0,101929.0,-5.022000312805176,0,0
2663.270018,-0.22772216796875,0.094207763671875,0.092529296875,0.9647216796875,-0.67138671875,3.23486328125,-7.8125,0.175048828125,0.090576171875,0.933837890625,-161.0,-313.0,-52.0,101929.0,-5.022000312805176,0,0
2663.277002,-0.227203369140625,0.093841552734375,0.092193603515625,0.96490478515625,-0.3662109375,2.86865234375,-7.9345703125,0.173828125,0.0830078125,0.92138671875,-161.0,-313.0,-52.0,101929.0,-5.021000385284424,0,0
2663.284018,-0.226715087890625,0.093414306640625,0.091766357421875,0.965087890625,-1.46484375,3.2958984375,-8.11767578125,0.1680908203125,0.09130859375,0.92041015625,-161.0,-313.0,-52.0,101929.0,-5.021000385284424,0,0
2663.290996,-0.226226806640625,0.093017578125,0.091400146484375,0.96527099609375,-1.52587890625,2.9296875,-7.62939453125,0.16650390625,0.0946044921875,0.919189453125,-161.0,-313.0,-52.0,101929.0,-5.021000385284424,0,0
2663.297028,-0.226226806640625,0.093017578125,0.091400146484375,0.96527099609375,-1.52587890625,2.9296875,-7.62939453125,0.16650390625,0.0946044921875,0.919189453125,-161.0,-313.0,-52.0,101929.0,-5.021000385284424,0,0
2663.304018,-0.225677490234375,0.0924072265625,0.0908203125,0.96551513671875,-3.173828125,3.84521484375,-4.69970703125,0.1827392578125,0.10595703125,0.951416015625,-161.0,-313.0,-52.0,101929.0,-5.021000385284424,0,0
2663.310996,-0.225433349609375,0.09197998046875,0.090545654296875,0.96563720703125,-3.23486328125,4.638671875,-4.150390625,0.18798828125,0.1160888671875,0.9620361328125,-161.0,-313.0,-52.0,101929.0,-5.021000385284424,0,0
2663.317996,-0.225372314453125,0.091827392578125,0.0904541015625,0.9656982421875,-1.5869140625,3.5400390625,-2.13623046875,0.2008056640625,0.12890625,0.9625244140625,-161.0,-313.0,-52.0,101929.0,-5.021000385284424,0,0
2663.325021,-0.225311279296875,0.09161376953125,0.090301513671875,0.965728759765625,-1.28173828125,3.47900390625,-0.42724609375,0.216552734375,0.1302490234375,0.9788818359375,-161.0,-313.0,-52.0,101929.0,-5.021000385284424,0,0
2663.345994,-0.2259521484375,0.09149169921875,0.09051513671875,0.965576171875,1.15966796875,0.732421875,3.7841796875,0.2657470703125,0.168212890625,0.9903564453125,-159.0,-312.0,-52.0,101929.0,-5.021000385284424,0,0
2663.352998,-0.226226806640625,0.091766357421875,0.090850830078125,0.9654541015625,1.40380859375,-0.18310546875,4.69970703125,0.2835693359375,0.1622314453125,1.0013427734375,-159.0,-312.0,-52.0,101929.0,-5.021000385284424,0,0
2663.360018,-0.22637939453125,0.09197998046875,0.091033935546875,0.96539306640625,1.46484375,-0.9765625,4.69970703125,0.2906494140625,0.1707763671875,0.9993896484375,-159.0,-312.0,-52.0,101929.0,-5.021000385284424,0,0
2663.367002,-0.22686767578125,0.0927734375,0.0916748046875,0.965118408203125,2.13623046875,-3.0517578125,4.8828125,0.29541015625,0.174560546875,0.9979248046875,-159.0,-312.0,-52.0,101929.0,-5.021000385284424,0,0
2663.374018,-0.227020263671875,0.093048095703125,0.091888427734375,0.965057373046875,2.13623046875,-4.21142578125,4.638671875,0.2872314453125,0.173583984375,1.001708984375,-159.0,-312.0,-52.0,101929.0,-5.021000385284424,0,0
2663.380996,-0.227142333984375,0.09332275390625,0.09210205078125,0.9649658203125,1.5869140625,-4.150390625,4.69970703125,0.283447265625,0.1756591796875,1.002685546875,-159.0,-312.0,-52.0,101929.0,-5.022000312805176,0,0
2663.387028,-0.227142333984375,0.09332275390625,0.09210205078125,0.9649658203125,1.5869140625,-4.150390625,4.69970703125,0.283447265625,0.1756591796875,1.002685546875,-159.0,-312.0,-52.0,101929.0,-5.022000312805176,0,0
2663.394018,-0.22760009765625,0.09442138671875,0.093017578125,0.96466064453125,4.0283203125,-4.94384765625,2.685546875,0.2679443359375,0.1688232421875,0.9788818359375,-159.0,-312.0,-52.0,101929.0,-5.022000312805176,0,0
2663.400996,-0.22784423828125,0.094970703125,0.093505859375,0.964508056640625,3.7841796875,-4.45556640625,2.3193359375,0.262451171875,0.1546630859375,0.9793701171875,-159.0,-312.0,-52.0,101929.0,-5.022000312805176,0,0
2663.407996,-0.227874755859375,0.09515380859375,0.0936279296875,0.9644775390625,2.44140625,-2.86865234375,1.28173828125,0.2530517578125,0.12744140625,0.9503173828125,-159.0,-312.0,-52.0,101929.0,-5.022000312805176,0,0
2663.415021,-0.227935791015625,0.095367431640625,0.093658447265625,0.964447021484375,0.91552734375,-3.35693359375,1.220703125,0.251708984375,0.119140625,0.9375,-159.0,-312.0,-52.0,101929.0,-5.022000312805176,0,0
2663.422001,-0.22796630859375,0.095947265625,0.0936279296875,0.964385986328125,0.91552734375,-3.23486328125,0.8544921875,0.2474365234375,0.117919921875,0.9322509765625,-159.0,-312.0,-52.0,101929.0,-5.022000312805176,0,0
2663.429015,-0.22796630859375,0.09613037109375,0.093536376953125,0.96435546875,-0.67138671875,-2.8076171875,0.1220703125,0.2418212890625,0.1097412109375,0.922607421875,-156.0,-311.0,-53.0,101929.0,-5.022000312805176,0,0
2663.435999,-0.2266845703125,0.096405029296875,0.09332275390625,0.96466064453125,-2.38037109375,-2.01416015625,-0.9765625,0.2353515625,0.1119384765625,0.92724609375,-156.0,-311.0,-53.0,101929.0,-5.022000312805176,0,0
2663.442998,-0.2265625,0.09674072265625,0.0928955078125,0.964691162109375,-2.50244140625,-2.0751953125,-0.6103515625,0.23046875,0.09716796875,0.92529296875,-156.0,-311.0,-53.0,101929.0,-5.022000312805176,0,0
2663.450023,-0.226470947265625,0.0968017578125,0.092803955078125,0.9647216796875,-2.50244140625,-0.9765625,-2.3193359375,0.223388671875,0.119384765625,0.927001953125,-156.0,-311.0,-53.0,101929.0,-5.022000312805176,0,0
2663.457002,-0.22625732421875,0.09686279296875,0.092529296875,0.96478271484375,-2.685546875,-0.8544921875,-2.8076171875,0.2181396484375,0.1168212890625,0.9366455078125,-156.0,-311.0,-53.0,101929.0,-5.022000312805176,0,0
2663.464018,-0.2259521484375,0.0968017578125,0.092254638671875,0.96490478515625,-3.2958984375,-0.3662109375,-4.5166015625,0.19677734375,0.1370849609375,0.96533203125,-156.0,-311.0,-53.0,101929.0,-5.022000312805176,0,0
2663.470996,-0.225555419921875,0.096588134765625,0.092071533203125,0.96502685546875,-2.9296875,0.0,-5.0048828125,0.1932373046875,0.1365966796875,0.967529296875,-156.0,-311.0,-53.0,101929.0,-5.022000312805176,0,0
2663.477996,-0.225311279296875,0.096405029296875,0.09197998046875,0.965118408203125,-2.50244140625,0.42724609375,-6.103515625,0.1934814453125,0.1402587890625,0.9691162109375,-156.0,-311.0,-53.0,101929.0,-5.019000053405762,0,0
2663.484029,-0.225311279296875,0.096405029296875,0.09197998046875,0.965118408203125,-2.50244140625,0.42724609375,-6.103515625,0.1934814453125,0.1402587890625,0.9691162109375,-156.0,-311.0,-53.0,101929.0,-5.019000053405762,0,0
2663.490996,-0.22418212890625,0.09552001953125,0.09130859375,0.96551513671875,-2.3193359375,0.91552734375,-8.48388671875,0.1488037109375,0.1123046875,0.9591064453125,-156.0,-311.0,-53.0,101929.0,-5.019000053405762,0,0
2663.497996,-0.223876953125,0.095245361328125,0.091094970703125,0.96563720703125,-3.41796875,2.3193359375,-9.3994140625,0.144775390625,0.1041259765625,0.95654296875,-156.0,-311.0,-53.0,101929.0,-5.019000053405762,0,0
