Time stamp(sec),quaternion_0,quaternion_1,quaternion_2,quaternion_3,roll_angular_rate,pitch_angular_rate,yaw_angular_rate,acc_X,acc_Y,acc_Z,mag_X,mag_Y,mag_Z,pressure,altitude
1988.566998,-0.98333740234375,0.00634765625,0.053985595703125,0.173431396484375,0.1220703125,0.18310546875,0.06103515625,0.1097412109375,0.005126953125,1.000732421875,-29.0,67.0,-33.0,101946.0,-5.158000469207764,0,0
1988.574018,-0.98333740234375,0.006317138671875,0.053985595703125,0.173431396484375,-0.1220703125,0.18310546875,-0.1220703125,0.1103515625,0.008056640625,1.00146484375,-29.0,67.0,-33.0,101946.0,-5.158000469207764,0,0
1988.580996,-0.98333740234375,0.00634765625,0.053985595703125,0.173431396484375,-0.06103515625,0.3662109375,0.06103515625,0.109130859375,0.0069580078125,0.999267578125,-29.0,67.0,-33.0,101946.0,-5.158000469207764,0,0
1988.587996,-0.98333740234375,0.00634765625,0.053985595703125,0.173431396484375,0.06103515625,0.18310546875,0.0,0.107666015625,0.0050048828125,1.0,-29.0,67.0,-33.0,101946.0,-5.158000469207764,0,0
1988.595021,-0.98333740234375,0.00634765625,0.053985595703125,0.173431396484375,0.30517578125,0.3662109375,-0.1220703125,0.1092529296875,0.0018310546875,1.0003662109375,-29.0,67.0,-33.0,101946.0,-5.158000469207764,0,0
1988.602001,-0.98333740234375,0.00634765625,0.053985595703125,0.173431396484375,0.06103515625,0.3662109375,0.30517578125,0.1104736328125,0.0052490234375,1.0009765625,-29.0,67.0,-33.0,101946.0,-5.158000469207764,0,0
1988.609015,-0.98333740234375,0.00634765625,0.053985595703125,0.173431396484375,0.06103515625,0.244140625,-0.06103515625,0.1092529296875,0.005126953125,0.9996337890625,-29.0,67.0,-33.0,101946.0,-5.158000469207764,0,0
1988.615995,-0.98333740234375,0.00634765625,0.053985595703125,0.173431396484375,-0.06103515625,0.48828125,-0.18310546875,0.1099853515625,0.005859375,1.000732421875,-29.0,67.0,-33.0,101946.0,-5.158000469207764,0,0
1988.622031,-0.98333740234375,0.00634765625,0.053985595703125,0.173431396484375,-0.06103515625,0.48828125,-0.18310546875,0.1099853515625,0.005859375,1.000732421875,-29.0,67.0,-33.0,101946.0,-5.158000469207764,0,0
1988.629018,-0.98333740234375,0.00634765625,0.053955078125,0.173431396484375,0.06103515625,0.244140625,-0.18310546875,0.1072998046875,0.0078125,0.998291015625,-29.0,67.0,-33.0,101946.0,-5.158000469207764,0,0
1988.635999,-0.98333740234375,0.00634765625,0.053955078125,0.173431396484375,-0.244140625,0.18310546875,0.18310546875,0.1082763671875,0.00390625,1.00048828125,-29.0,67.0,-33.0,101946.0,-5.158000469207764,0,0
1988.656998,-0.98345947265625,0.006317138671875,0.053955078125,0.1727294921875,-0.244140625,0.244140625,0.0,0.1080322265625,0.0052490234375,0.998291015625,-29.0,67.0,-32.0,101946.0,-5.160000324249268,0,0
1988.664018,-0.98345947265625,0.006317138671875,0.053955078125,0.1727294921875,-0.244140625,0.30517578125,0.0,0.1082763671875,0.00634765625,0.999755859375,-29.0,67.0,-32.0,101946.0,-5.160000324249268,0,0
1988.670996,-0.98345947265625,0.006317138671875,0.053955078125,0.1727294921875,-0.18310546875,0.3662109375,0.0,0.1075439453125,0.007080078125,0.9991455078125,-29.0,67.0,-32.0,101946.0,-5.160000324249268,0,0
1988.677996,-0.98345947265625,0.006317138671875,0.053924560546875,0.1727294921875,-0.244140625,0.18310546875,0.18310546875,0.1080322265625,0.003662109375,0.9993896484375,-29.0,67.0,-32.0,101946.0,-5.160000324249268,0,0
1988.685021,-0.98345947265625,0.006317138671875,0.053955078125,0.1727294921875,-0.244140625,0.1220703125,-0.1220703125,0.10986328125,0.0059814453125,1.001953125,-29.0,67.0,-32.0,101946.0,-5.160000324249268,0,0
1988.692001,-0.98345947265625,0.006317138671875,0.053955078125,0.1727294921875,0.06103515625,0.18310546875,-0.48828125,0.1094970703125,0.0059814453125,1.0015869140625,-29.0,67.0,-32.0,101946.0,-5.160000324249268,0,0
1988.699015,-0.98345947265625,0.006317138671875,0.053924560546875,0.1727294921875,0.0,0.42724609375,0.18310546875,0.10986328125,0.005615234375,0.9990234375,-29.0,67.0,-32.0,101946.0,-5.160000324249268,0,0
1988.705999,-0.98345947265625,0.006317138671875,0.053955078125,0.1727294921875,-0.06103515625,0.06103515625,0.06103515625,0.110107421875,0.006591796875,0.99951171875,-29.0,67.0,-32.0,101946.0,-5.160000324249268,0,0
1988.712998,-0.98345947265625,0.006317138671875,0.053924560546875,0.1727294921875,-0.06103515625,0.30517578125,0.18310546875,0.107666015625,0.0045166015625,0.99853515625,-29.0,67.0,-32.0,101946.0,-5.160000324249268,0,0
1988.719027,-0.98345947265625,0.006317138671875,0.053924560546875,0.1727294921875,-0.06103515625,0.30517578125,0.18310546875,0.107666015625,0.0045166015625,0.99853515625,-29.0,67.0,-32.0,101946.0,-5.160000324249268,0,0
1988.725995,-0.98345947265625,0.006317138671875,0.053924560546875,0.1727294921875,-0.06103515625,0.244140625,0.1220703125,0.112060546875,0.0054931640625,1.00146484375,-29.0,67.0,-32.0,101946.0,-5.160000324249268,0,0
1988.732994,-0.98345947265625,0.006317138671875,0.053924560546875,0.1727294921875,0.0,0.30517578125,0.244140625,0.1082763671875,0.005126953125,0.99951171875,-29.0,67.0,-32.0,101946.0,-5.160000324249268,0,0
1988.740019,-0.98345947265625,0.00634765625,0.053924560546875,0.1727294921875,0.06103515625,0.1220703125,0.0,0.108642578125,0.005859375,1.0009765625,-29.0,67.0,-32.0,101946.0,-5.160000324249268,0,0
1988.746998,-0.98345947265625,0.00634765625,0.053924560546875,0.1727294921875,-0.18310546875,0.1220703125,0.42724609375,0.111083984375,0.005126953125,0.998046875,-28.0,68.0,-33.0,101946.0,-5.159000396728516,0,0
1988.754018,-0.983642578125,0.00628662109375,0.053924560546875,0.17169189453125,0.06103515625,0.06103515625,0.244140625,0.1068115234375,0.0057373046875,0.9996337890625,-28.0,68.0,-33.0,101946.0,-5.159000396728516,0,0
1988.760996,-0.983642578125,0.00628662109375,0.053924560546875,0.17169189453125,-0.18310546875,0.244140625,-0.1220703125,0.109375,0.003662109375,0.9991455078125,-28.0,68.0,-33.0,101946.0,-5.159000396728516,0,0
1988.767996,-0.983642578125,0.00628662109375,0.053924560546875,0.17169189453125,-0.1220703125,0.1220703125,-0.06103515625,0.109619140625,0.00341796875,0.998779296875,-28.0,68.0,-33.0,101946.0,-5.159000396728516,0,0
1988.775021,-0.983642578125,0.006317138671875,0.053924560546875,0.17169189453125,0.0,0.244140625,-0.1220703125,0.1090087890625,0.0048828125,0.9989013671875,-28.0,68.0,-33.0,101946.0,-5.159000396728516,0,0
1988.782001,-0.983642578125,0.006317138671875,0.053924560546875,0.17169189453125,-0.18310546875,0.06103515625,-0.06103515625,0.11083984375,0.003662109375,0.9989013671875,-28.0,68.0,-33.0,101946.0,-5.159000396728516,0,0
1988.789015,-0.983642578125,0.006317138671875,0.053924560546875,0.17169189453125,0.06103515625,0.1220703125,-0.06103515625,0.108642578125,0.005859375,0.9993896484375,-28.0,68.0,-33.0,101946.0,-5.159000396728516,0,0
1988.795994,-0.983642578125,0.00634765625,0.053924560546875,0.17169189453125,0.0,0.42724609375,0.06103515625,0.1099853515625,0.0037841796875,0.9998779296875,-28.0,68.0,-33.0,101946.0,-5.159000396728516,0,0
1988.802998,-0.983642578125,0.00634765625,0.053924560546875,0.17169189453125,-0.1220703125,0.30517578125,-0.06103515625,0.1092529296875,0.0064697265625,0.999267578125,-28.0,68.0,-33.0,101946.0,-5.159000396728516,0,0
1988.809026,-0.983642578125,0.00634765625,0.053924560546875,0.17169189453125,-0.1220703125,0.30517578125,-0.06103515625,0.1092529296875,0.0064697265625,0.999267578125,-28.0,68.0,-33.0,101946.0,-5.159000396728516,0,0
1988.830019,-0.983642578125,0.00634765625,0.053924560546875,0.17169189453125,0.1220703125,0.244140625,0.1220703125,0.1083984375,0.005126953125,0.998046875,-28.0,68.0,-33.0,101946.0,-5.159000396728516,0,0
1988.836998,-0.983642578125,0.00634765625,0.053924560546875,0.17169189453125,0.1220703125,0.1220703125,-0.18310546875,0.111083984375,0.0050048828125,1.000732421875,-28.0,68.0,-33.0,101946.0,-5.159000396728516,0,0
1988.844018,-0.983642578125,0.00634765625,0.053955078125,0.17169189453125,0.18310546875,0.18310546875,-0.1220703125,0.1099853515625,0.006591796875,0.9970703125,-27.0,68.0,-33.0,101946.0,-5.160000324249268,0,0
1988.850996,-0.98388671875,0.00628662109375,0.053955078125,0.1702880859375,-0.06103515625,0.42724609375,-0.06103515625,0.110107421875,0.0069580078125,1.0001220703125,-27.0,68.0,-33.0,101946.0,-5.160000324249268,0,0
1988.857996,-0.98388671875,0.00628662109375,0.053955078125,0.1702880859375,0.06103515625,0.48828125,-0.18310546875,0.1077880859375,0.0068359375,0.9989013671875,-27.0,68.0,-33.0,101946.0,-5.160000324249268,0,0
1988.865021,-0.98388671875,0.00628662109375,0.053955078125,0.1702880859375,0.0,0.48828125,-0.06103515625,0.1092529296875,0.0064697265625,0.9993896484375,-27.0,68.0,-33.0,101946.0,-5.160000324249268,0,0
1988.872001,-0.98388671875,0.00628662109375,0.053955078125,0.1702880859375,0.18310546875,0.244140625,0.0,0.1063232421875,0.0057373046875,0.9974365234375,-27.0,68.0,-33.0,101946.0,-5.160000324249268,0,0
1988.879015,-0.98388671875,0.00628662109375,0.053924560546875,0.1702880859375,-0.06103515625,0.30517578125,-0.1220703125,0.10791015625,0.005126953125,0.9996337890625,-27.0,68.0,-33.0,101946.0,-5.160000324249268,0,0
1988.885994,-0.98388671875,0.00628662109375,0.053955078125,0.1702880859375,0.1220703125,0.244140625,0.1220703125,0.1123046875,0.0047607421875,0.9998779296875,-27.0,68.0,-33.0,101946.0,-5.160000324249268,0,0
1988.892998,-0.98388671875,0.00628662109375,0.053955078125,0.1702880859375,0.0,0.30517578125,0.1220703125,0.1092529296875,0.003173828125,0.99951171875,-27.0,68.0,-33.0,101946.0,-5.160000324249268,0,0
1988.900018,-0.98388671875,0.00628662109375,0.053955078125,0.1702880859375,0.06103515625,0.3662109375,-0.1220703125,0.1114501953125,0.0042724609375,0.9989013671875,-27.0,68.0,-33.0,101946.0,-5.160000324249268,0,0
1988.92002,-0.98388671875,0.00628662109375,0.053955078125,0.1702880859375,-0.06103515625,0.244140625,0.1220703125,0.1103515625,0.0054931640625,1.0,-27.0,68.0,-33.0,101946.0,-5.160000324249268,0,0
1988.926998,-0.98388671875,0.00628662109375,0.053955078125,0.1702880859375,0.1220703125,0.244140625,0.1220703125,0.109375,0.00634765625,0.998291015625,-27.0,68.0,-33.0,101946.0,-5.160000324249268,0,0
1988.934018,-0.98388671875,0.006317138671875,0.053955078125,0.1702880859375,0.0,0.30517578125,0.06103515625,0.1099853515625,0.0057373046875,0.9989013671875,-27.0,68.0,-33.0,101946.0,-5.160000324249268,0,0
1988.940996,-0.98388671875,0.006317138671875,0.053955078125,0.1702880859375,0.1220703125,0.244140625,-0.18310546875,0.1068115234375,0.005126953125,1.0006103515625,-27.0,68.0,-33.0,101946.0,-5.160000324249268,0,0
1988.947996,-0.98388671875,0.006317138671875,0.053955078125,0.1702880859375,-0.18310546875,0.30517578125,-0.06103515625,0.1092529296875,0.003662109375,1.0006103515625,-29.0,69.0,-32.0,101946.0,-5.158000469207764,0,0
1988.955021,-0.983978271484375,0.00628662109375,0.053955078125,0.16961669921875,0.3662109375,0.42724609375,0.0,0.1094970703125,0.005126953125,0.9998779296875,-29.0,69.0,-32.0,101946.0,-5.158000469207764,0,0
1988.962001,-0.983978271484375,0.00628662109375,0.053955078125,0.16961669921875,-0.06103515625,0.244140625,0.0,0.1064453125,0.005859375,0.9993896484375,-29.0,69.0,-32.0,101946.0,-5.158000469207764,0,0
1988.969015,-0.983978271484375,0.00628662109375,0.053955078125,0.16961669921875,-0.06103515625,0.244140625,0.18310546875,0.1064453125,0.0050048828125,0.9990234375,-29.0,69.0,-32.0,101946.0,-5.158000469207764,0,0
1988.975999,-0.983978271484375,0.00628662109375,0.053955078125,0.16961669921875,0.06103515625,0.244140625,0.06103515625,0.109130859375,0.0054931640625,0.9993896484375,-29.0,69.0,-32.0,101946.0,-5.158000469207764,0,0
1988.982998,-0.983978271484375,0.00628662109375,0.053955078125,0.16961669921875,-0.06103515625,0.18310546875,0.1220703125,0.10986328125,0.0045166015625,1.0,-29.0,69.0,-32.0,101946.0,-5.158000469207764,0,0
1988.990023,-0.983978271484375,0.00628662109375,0.053955078125,0.16961669921875,-0.18310546875,0.18310546875,-0.06103515625,0.1092529296875,0.005615234375,1.0008544921875,-29.0,69.0,-32.0,101946.0,-5.158000469207764,0,0
1988.996056,-0.983978271484375,0.00628662109375,0.053955078125,0.16961669921875,-0.18310546875,0.18310546875,-0.06103515625,0.1092529296875,0.005615234375,1.0008544921875,-29.0,69.0,-32.0,101946.0,-5.158000469207764,0,0
1989.002999,-0.983978271484375,0.00628662109375,0.053955078125,0.16961669921875,-0.18310546875,0.244140625,-0.18310546875,0.11083984375,0.0062255859375,1.0003662109375,-29.0,69.0,-32.0,101946.0,-5.158000469207764,0,0
1989.01002,-0.983978271484375,0.00628662109375,0.053924560546875,0.16961669921875,0.06103515625,0.244140625,0.18310546875,0.1090087890625,0.00537109375,1.00048828125,-29.0,69.0,-32.0,101946.0,-5.158000469207764,0,0
1989.016998,-0.9840087890625,0.006317138671875,0.053924560546875,0.16961669921875,-0.1220703125,0.1220703125,0.0,0.1077880859375,0.00439453125,1.0001220703125,-29.0,69.0,-32.0,101946.0,-5.158000469207764,0,0
1989.024018,-0.9840087890625,0.006317138671875,0.053924560546875,0.16961669921875,0.06103515625,0.3662109375,-0.06103515625,0.10888671875,0.0057373046875,0.999755859375,-29.0,69.0,-32.0,101946.0,-5.158000469207764,0,0
1989.030996,-0.9840087890625,0.006317138671875,0.053924560546875,0.16961669921875,0.06103515625,0.244140625,0.30517578125,0.108642578125,0.0050048828125,0.9991455078125,-29.0,69.0,-32.0,101946.0,-5.158000469207764,0,0
1989.037996,-0.9840087890625,0.006317138671875,0.053924560546875,0.16961669921875,0.1220703125,0.42724609375,-0.06103515625,0.106689453125,0.0054931640625,1.0,-29.0,69.0,-32.0,101946.0,-5.158000469207764,0,0
1989.045021,-0.9840087890625,0.006317138671875,0.053924560546875,0.16961669921875,0.06103515625,0.244140625,0.1220703125,0.10791015625,0.005615234375,0.9974365234375,-28.0,69.0,-31.0,101946.0,-5.159000396728516,0,0
1989.052001,-0.984161376953125,0.006256103515625,0.053924560546875,0.168609619140625,0.1220703125,0.18310546875,-0.1220703125,0.1075439453125,0.0064697265625,0.9984130859375,-28.0,69.0,-31.0,101946.0,-5.159000396728516,0,0
1989.059015,-0.984161376953125,0.006256103515625,0.05389404296875,0.168609619140625,-0.1220703125,0.42724609375,0.1220703125,0.105712890625,0.007080078125,1.0001220703125,-28.0,69.0,-31.0,101946.0,-5.159000396728516,0,0
1989.065994,-0.984161376953125,0.006256103515625,0.05389404296875,0.168609619140625,-0.06103515625,0.30517578125,-0.18310546875,0.1099853515625,0.004638671875,1.001220703125,-28.0,69.0,-31.0,101946.0,-5.159000396728516,0,0
1989.072998,-0.984161376953125,0.006256103515625,0.053924560546875,0.168609619140625,0.18310546875,0.244140625,0.1220703125,0.1087646484375,0.0072021484375,0.999267578125,-28.0,69.0,-31.0,101946.0,-5.159000396728516,0,0
1989.09303,-0.984161376953125,0.006256103515625,0.05389404296875,0.168609619140625,0.06103515625,0.48828125,0.06103515625,0.1094970703125,0.005615234375,0.9981689453125,-28.0,69.0,-31.0,101946.0,-5.159000396728516,0,0
1989.100019,-0.984161376953125,0.006256103515625,0.05389404296875,0.168609619140625,0.18310546875,0.1220703125,0.1220703125,0.1087646484375,0.0074462890625,0.9989013671875,-28.0,69.0,-31.0,101946.0,-5.159000396728516,0,0
1989.106998,-0.984161376953125,0.006256103515625,0.05389404296875,0.168609619140625,0.0,0.42724609375,0.06103515625,0.110595703125,0.00537109375,1.0001220703125,-28.0,69.0,-31.0,101946.0,-5.159000396728516,0,0
1989.114018,-0.984161376953125,0.006256103515625,0.05389404296875,0.168609619140625,0.244140625,0.30517578125,-0.1220703125,0.1070556640625,0.0062255859375,0.999267578125,-28.0,69.0,-31.0,101946.0,-5.159000396728516,0,0
1989.120996,-0.984161376953125,0.006256103515625,0.05389404296875,0.168609619140625,-0.18310546875,0.42724609375,0.0,0.10888671875,0.0057373046875,1.0006103515625,-28.0,69.0,-31.0,101946.0,-5.159000396728516,0,0
1989.127996,-0.984161376953125,0.006256103515625,0.05389404296875,0.168609619140625,0.06103515625,0.244140625,0.18310546875,0.1087646484375,0.00634765625,0.999755859375,-28.0,69.0,-31.0,101946.0,-5.159000396728516,0,0
1989.135021,-0.984161376953125,0.00628662109375,0.05389404296875,0.168609619140625,-0.1220703125,0.30517578125,0.06103515625,0.109375,0.0047607421875,0.9969482421875,-28.0,69.0,-31.0,101946.0,-5.159000396728516,0,0
1989.142001,-0.984161376953125,0.00628662109375,0.05389404296875,0.168609619140625,-0.1220703125,0.1220703125,0.30517578125,0.109619140625,0.0052490234375,0.9990234375,-28.0,69.0,-31.0,101946.0,-5.158000469207764,0,0
1989.149015,-0.984161376953125,0.00628662109375,0.05389404296875,0.168609619140625,-0.1220703125,0.18310546875,0.06103515625,0.1082763671875,0.006591796875,0.998779296875,-28.0,69.0,-32.0,101946.0,-5.158000469207764,0,0
1989.155994,-0.984344482421875,0.0062255859375,0.05389404296875,0.1676025390625,-0.18310546875,0.30517578125,-0.1220703125,0.1090087890625,0.0069580078125,0.99951171875,-28.0,69.0,-32.0,101946.0,-5.158000469207764,0,0
1989.162998,-0.984344482421875,0.0062255859375,0.05389404296875,0.1676025390625,0.18310546875,0.0,0.06103515625,0.10791015625,0.0067138671875,0.9990234375,-28.0,69.0,-32.0,101946.0,-5.158000469207764,0,0
1989.18303,-0.984344482421875,0.006195068359375,0.05389404296875,0.1676025390625,0.06103515625,0.244140625,-0.1220703125,0.1090087890625,0.0067138671875,0.9990234375,-28.0,69.0,-32.0,101946.0,-5.158000469207764,0,0
1989.190019,-0.984344482421875,0.0062255859375,0.05389404296875,0.1676025390625,0.06103515625,0.30517578125,0.1220703125,0.10986328125,0.004638671875,1.0001220703125,-28.0,69.0,-32.0,101946.0,-5.158000469207764,0,0
1989.196998,-0.984344482421875,0.0062255859375,0.05389404296875,0.1676025390625,-0.1220703125,0.244140625,-0.06103515625,0.1085205078125,0.0047607421875,0.9993896484375,-28.0,69.0,-32.0,101946.0,-5.158000469207764,0,0
1989.204018,-0.984344482421875,0.006256103515625,0.05389404296875,0.1676025390625,0.244140625,0.244140625,0.0,0.1085205078125,0.004638671875,1.00146484375,-28.0,69.0,-32.0,101946.0,-5.158000469207764,0,0
1989.210996,-0.984344482421875,0.006256103515625,0.05389404296875,0.1676025390625,-0.244140625,0.3662109375,-0.06103515625,0.1116943359375,0.004638671875,1.001220703125,-28.0,69.0,-32.0,101946.0,-5.158000469207764,0,0
1989.217996,-0.984344482421875,0.006256103515625,0.05389404296875,0.1676025390625,0.0,0.18310546875,0.06103515625,0.1082763671875,0.0050048828125,0.9981689453125,-28.0,69.0,-32.0,101946.0,-5.158000469207764,0,0
1989.225021,-0.984344482421875,0.006256103515625,0.05389404296875,0.1676025390625,0.0,0.3662109375,-0.06103515625,0.10888671875,0.0048828125,0.999267578125,-28.0,69.0,-32.0,101946.0,-5.158000469207764,0,0
1989.232001,-0.984344482421875,0.006256103515625,0.05389404296875,0.1676025390625,-0.1220703125,0.18310546875,-0.1220703125,0.1097412109375,0.005126953125,0.99853515625,-28.0,69.0,-32.0,101946.0,-5.158000469207764,0,0
1989.239015,-0.984344482421875,0.006256103515625,0.05389404296875,0.1676025390625,-0.1220703125,0.244140625,0.244140625,0.1065673828125,0.0069580078125,1.00048828125,-28.0,69.0,-32.0,101946.0,-5.158000469207764,0,0
1989.245999,-0.984344482421875,0.006256103515625,0.05389404296875,0.1676025390625,0.244140625,0.30517578125,0.06103515625,0.109130859375,0.0035400390625,1.000244140625,-28.0,70.0,-32.0,101946.0,-5.158000469207764,0,0
1989.267002,-0.9844970703125,0.006195068359375,0.053924560546875,0.166595458984375,0.244140625,0.1220703125,0.1220703125,0.1075439453125,0.0079345703125,0.9993896484375,-28.0,70.0,-32.0,101946.0,-5.158000469207764,0,0
1989.273035,-0.9844970703125,0.006195068359375,0.053924560546875,0.166595458984375,0.244140625,0.1220703125,0.1220703125,0.1075439453125,0.0079345703125,0.9993896484375,-28.0,70.0,-32.0,101946.0,-5.158000469207764,0,0
1989.28002,-0.9844970703125,0.0062255859375,0.053924560546875,0.166595458984375,0.06103515625,0.3662109375,-0.18310546875,0.1080322265625,0.0042724609375,0.9990234375,-28.0,70.0,-32.0,101946.0,-5.158000469207764,0,0
1989.286998,-0.9844970703125,0.006195068359375,0.053924560546875,0.166595458984375,-0.06103515625,0.30517578125,0.06103515625,0.1082763671875,0.0069580078125,1.0001220703125,-28.0,70.0,-32.0,101946.0,-5.158000469207764,0,0
1989.294018,-0.9844970703125,0.0062255859375,0.053924560546875,0.166595458984375,0.18310546875,0.244140625,-0.1220703125,0.1103515625,0.0047607421875,0.998779296875,-28.0,70.0,-32.0,101946.0,-5.159000396728516,0,0
1989.300996,-0.9844970703125,0.0062255859375,0.053924560546875,0.166595458984375,0.244140625,0.06103515625,0.0,0.1092529296875,0.0029296875,0.9990234375,-28.0,70.0,-32.0,101946.0,-5.159000396728516,0,0
1989.307996,-0.9844970703125,0.0062255859375,0.053924560546875,0.166595458984375,0.1220703125,0.18310546875,0.1220703125,0.1077880859375,0.005126953125,0.999267578125,-28.0,70.0,-32.0,101946.0,-5.159000396728516,0,0
1989.315021,-0.9844970703125,0.0062255859375,0.053924560546875,0.166595458984375,-0.1220703125,0.30517578125,-0.06103515625,0.1082763671875,0.0045166015625,0.9984130859375,-28.0,70.0,-32.0,101946.0,-5.159000396728516,0,0
1989.322001,-0.9844970703125,0.0062255859375,0.053924560546875,0.166595458984375,-0.06103515625,0.3662109375,0.0,0.109375,0.0047607421875,0.9979248046875,-28.0,70.0,-32.0,101946.0,-5.159000396728516,0,0
1989.329015,-0.9844970703125,0.0062255859375,0.053924560546875,0.166595458984375,0.1220703125,0.3662109375,-0.18310546875,0.1058349609375,0.005126953125,0.9970703125,-28.0,70.0,-32.0,101946.0,-5.159000396728516,0,0
1989.335994,-0.9844970703125,0.006195068359375,0.053924560546875,0.166595458984375,0.0,0.1220703125,0.244140625,0.1099853515625,0.0074462890625,0.998779296875,-28.0,70.0,-32.0,101946.0,-5.159000396728516,0,0
1989.357002,-0.984619140625,0.00616455078125,0.053924560546875,0.1658935546875,0.0,0.0,0.0,0.1107177734375,0.005615234375,0.9991455078125,-28.0,69.0,-33.0,101946.0,-5.159000396728516,0,0
1989.364018,-0.984619140625,0.00616455078125,0.053924560546875,0.1658935546875,-0.06103515625,0.30517578125,0.0,0.1094970703125,0.0059814453125,0.998779296875,-28.0,69.0,-33.0,101946.0,-5.159000396728516,0,0
1989.370049,-0.984619140625,0.00616455078125,0.053924560546875,0.1658935546875,-0.06103515625,0.30517578125,0.0,0.1094970703125,0.0059814453125,0.998779296875,-28.0,69.0,-33.0,101946.0,-5.159000396728516,0,0
1989.376998,-0.984619140625,0.00616455078125,0.053924560546875,0.1658935546875,0.18310546875,0.30517578125,0.06103515625,0.109619140625,0.0072021484375,0.9986572265625,-28.0,69.0,-33.0,101946.0,-5.159000396728516,0,0
1989.384018,-0.984619140625,0.00616455078125,0.053924560546875,0.1658935546875,0.3662109375,0.3662109375,-0.06103515625,0.1065673828125,0.0050048828125,0.9981689453125,-28.0,69.0,-33.0,101946.0,-5.159000396728516,0,0
1989.390996,-0.984619140625,0.00616455078125,0.053924560546875,0.1658935546875,-0.06103515625,0.18310546875,0.18310546875,0.1090087890625,0.0035400390625,1.0,-28.0,69.0,-33.0,101946.0,-5.159000396728516,0,0
1989.397996,-0.984619140625,0.00616455078125,0.053924560546875,0.1658935546875,-0.06103515625,0.06103515625,-0.06103515625,0.1090087890625,0.0048828125,0.999267578125,-28.0,69.0,-33.0,101946.0,-5.158000469207764,0,0
1989.405021,-0.984619140625,0.00616455078125,0.053924560546875,0.1658935546875,-0.06103515625,0.06103515625,0.06103515625,0.108154296875,0.005615234375,0.99658203125,-28.0,69.0,-33.0,101946.0,-5.158000469207764,0,0
1989.412001,-0.984619140625,0.00616455078125,0.053924560546875,0.1658935546875,0.0,0.30517578125,-0.06103515625,0.1080322265625,0.006591796875,0.9993896484375,-28.0,69.0,-33.0,101946.0,-5.158000469207764,0,0
1989.419015,-0.984619140625,0.00616455078125,0.05389404296875,0.1658935546875,-0.06103515625,0.18310546875,0.0,0.1083984375,0.0050048828125,0.999755859375,-28.0,69.0,-33.0,101946.0,-5.158000469207764,0,0
1989.440018,-0.984619140625,0.00616455078125,0.05389404296875,0.1658935546875,0.06103515625,0.244140625,-0.1220703125,0.1097412109375,0.005615234375,0.997314453125,-28.0,69.0,-33.0,101946.0,-5.158000469207764,0,0
1989.447002,-0.984619140625,0.00616455078125,0.05389404296875,0.1658935546875,0.244140625,0.0,0.06103515625,0.109375,0.006103515625,1.00048828125,-27.0,68.0,-33.0,101946.0,-5.158000469207764,0,0
1989.454018,-0.98480224609375,0.006103515625,0.053924560546875,0.16485595703125,-0.18310546875,0.244140625,-0.1220703125,0.10986328125,0.00537109375,1.0,-27.0,68.0,-33.0,101946.0,-5.158000469207764,0,0
1989.460049,-0.98480224609375,0.006103515625,0.053924560546875,0.16485595703125,-0.18310546875,0.244140625,-0.1220703125,0.10986328125,0.00537109375,1.0,-27.0,68.0,-33.0,101946.0,-5.158000469207764,0,0
1989.466998,-0.98480224609375,0.006103515625,0.053924560546875,0.16485595703125,-0.1220703125,0.1220703125,-0.244140625,0.1102294921875,0.0062255859375,0.9990234375,-27.0,68.0,-33.0,101946.0,-5.158000469207764,0,0
1989.474018,-0.98480224609375,0.006103515625,0.053924560546875,0.16485595703125,0.0,0.30517578125,0.0,0.1077880859375,0.0037841796875,0.9998779296875,-27.0,68.0,-33.0,101946.0,-5.158000469207764,0,0
1989.480996,-0.98480224609375,0.006103515625,0.053924560546875,0.16485595703125,-0.1220703125,0.42724609375,0.06103515625,0.108642578125,0.0057373046875,0.999755859375,-27.0,68.0,-33.0,101946.0,-5.158000469207764,0,0
1989.487996,-0.98480224609375,0.006103515625,0.053924560546875,0.16485595703125,0.18310546875,0.30517578125,0.06103515625,0.109619140625,0.0037841796875,0.9979248046875,-27.0,68.0,-33.0,101946.0,-5.158000469207764,0,0
1989.495021,-0.98480224609375,0.006103515625,0.053924560546875,0.16485595703125,0.0,0.42724609375,0.0,0.1080322265625,0.0054931640625,1.0006103515625,-27.0,68.0,-33.0,101946.0,-5.158000469207764,0,0
1989.502001,-0.98480224609375,0.006134033203125,0.053924560546875,0.16485595703125,-0.18310546875,0.0,0.1220703125,0.1085205078125,0.0057373046875,1.0015869140625,-27.0,68.0,-33.0,101946.0,-5.158000469207764,0,0
1989.509015,-0.98480224609375,0.006134033203125,0.05389404296875,0.16485595703125,-0.06103515625,0.244140625,0.1220703125,0.1055908203125,0.0048828125,0.99951171875,-27.0,68.0,-33.0,101946.0,-5.158000469207764,0,0
1989.515999,-0.98480224609375,0.006134033203125,0.053924560546875,0.16485595703125,0.06103515625,0.06103515625,0.06103515625,0.10986328125,0.0069580078125,0.997802734375,-27.0,68.0,-33.0,101946.0,-5.158000469207764,0,0
1989.522998,-0.98480224609375,0.006134033203125,0.053924560546875,0.16485595703125,0.42724609375,0.30517578125,0.06103515625,0.1094970703125,0.00537109375,0.99755859375,-27.0,68.0,-33.0,101946.0,-5.158000469207764,0,0
1989.530023,-0.98480224609375,0.006134033203125,0.05389404296875,0.16485595703125,-0.06103515625,0.18310546875,0.30517578125,0.1070556640625,0.0042724609375,1.000732421875,-27.0,68.0,-33.0,101946.0,-5.158000469207764,0,0
1989.537002,-0.98480224609375,0.006134033203125,0.053924560546875,0.16485595703125,0.06103515625,0.18310546875,0.1220703125,0.1099853515625,0.0057373046875,1.0010986328125,-27.0,68.0,-33.0,101946.0,-5.158000469207764,0,0
1989.544018,-0.98480224609375,0.006103515625,0.053924560546875,0.16485595703125,-0.244140625,0.42724609375,-0.18310546875,0.10791015625,0.0067138671875,1.00048828125,-27.0,68.0,-33.0,101946.0,-5.158000469207764,0,0
1989.550996,-0.9849853515625,0.006072998046875,0.053924560546875,0.163787841796875,-0.30517578125,0.67138671875,-0.244140625,0.1090087890625,0.006103515625,1.0003662109375,-27.0,68.0,-33.0,101946.0,-5.158000469207764,0,0
1989.557029,-0.9849853515625,0.006072998046875,0.053924560546875,0.163787841796875,-0.30517578125,0.67138671875,-0.244140625,0.1090087890625,0.006103515625,1.0003662109375,-27.0,68.0,-33.0,101946.0,-5.158000469207764,0,0
1989.564018,-0.9849853515625,0.006072998046875,0.053924560546875,0.163787841796875,-0.06103515625,0.244140625,-0.1220703125,0.108642578125,0.0030517578125,0.9990234375,-27.0,68.0,-33.0,101946.0,-5.158000469207764,0,0
1989.570996,-0.9849853515625,0.006072998046875,0.053924560546875,0.163787841796875,-0.1220703125,0.30517578125,-0.1220703125,0.109375,0.005126953125,0.996337890625,-27.0,68.0,-33.0,101946.0,-5.158000469207764,0,0
1989.577996,-0.9849853515625,0.006072998046875,0.053924560546875,0.163787841796875,0.06103515625,0.30517578125,0.0,0.1058349609375,0.00537109375,0.99951171875,-27.0,68.0,-33.0,101946.0,-5.158000469207764,0,0
1989.585021,-0.9849853515625,0.006103515625,0.053924560546875,0.163787841796875,0.0,0.30517578125,0.0,0.111083984375,0.0048828125,0.999755859375,-27.0,68.0,-33.0,101946.0,-5.158000469207764,0,0
1989.592001,-0.9849853515625,0.006103515625,0.053924560546875,0.163787841796875,-0.1220703125,0.3662109375,-0.06103515625,0.108642578125,0.006103515625,0.999755859375,-27.0,68.0,-33.0,101946.0,-5.158000469207764,0,0
1989.612998,-0.9849853515625,0.006103515625,0.053924560546875,0.163787841796875,0.1220703125,0.30517578125,0.06103515625,0.107666015625,0.0052490234375,0.999755859375,-27.0,68.0,-33.0,101946.0,-5.158000469207764,0,0
1989.620018,-0.9849853515625,0.006103515625,0.053924560546875,0.163787841796875,-0.30517578125,0.42724609375,-0.06103515625,0.110595703125,0.00439453125,0.9990234375,-27.0,68.0,-33.0,101946.0,-5.158000469207764,0,0
1989.627002,-0.9849853515625,0.006103515625,0.053924560546875,0.163787841796875,0.0,0.06103515625,0.1220703125,0.108642578125,0.005615234375,1.0003662109375,-27.0,68.0,-33.0,101946.0,-5.158000469207764,0,0
1989.634018,-0.9849853515625,0.006103515625,0.053924560546875,0.163787841796875,0.1220703125,0.3662109375,0.0,0.1082763671875,0.0064697265625,0.9996337890625,-27.0,68.0,-33.0,101946.0,-5.158000469207764,0,0
1989.640996,-0.9849853515625,0.006103515625,0.05389404296875,0.163787841796875,-0.1220703125,0.244140625,0.18310546875,0.1102294921875,0.006103515625,1.000244140625,-27.0,68.0,-33.0,101946.0,-5.158000469207764,0,0
1989.647028,-0.9849853515625,0.006103515625,0.05389404296875,0.163787841796875,-0.1220703125,0.244140625,0.18310546875,0.1102294921875,0.006103515625,1.000244140625,-27.0,68.0,-33.0,101946.0,-5.158000469207764,0,0
1989.654018,-0.9852294921875,0.00604248046875,0.053924560546875,0.162384033203125,-0.1220703125,0.1220703125,0.1220703125,0.109130859375,0.00537109375,0.9979248046875,-26.0,68.0,-33.0,101946.0,-5.158000469207764,0,0
1989.660996,-0.9852294921875,0.006011962890625,0.053924560546875,0.162384033203125,0.0,0.1220703125,0.06103515625,0.1077880859375,0.007568359375,1.000732421875,-26.0,68.0,-33.0,101946.0,-5.158000469207764,0,0
1989.667996,-0.9852294921875,0.006011962890625,0.053924560546875,0.162384033203125,-0.244140625,0.30517578125,-0.30517578125,0.1104736328125,0.0057373046875,0.9998779296875,-26.0,68.0,-33.0,101946.0,-5.158000469207764,0,0
1989.675021,-0.9852294921875,0.006011962890625,0.053924560546875,0.162384033203125,0.18310546875,0.244140625,0.0,0.109375,0.0054931640625,0.9979248046875,-26.0,68.0,-33.0,101946.0,-5.158000469207764,0,0
1989.682001,-0.9852294921875,0.006011962890625,0.053924560546875,0.162384033203125,0.06103515625,0.1220703125,0.1220703125,0.107421875,0.0072021484375,1.000244140625,-26.0,68.0,-33.0,101946.0,-5.158000469207764,0,0
1989.702998,-0.9852294921875,0.006011962890625,0.053924560546875,0.162384033203125,0.1220703125,0.1220703125,0.1220703125,0.109130859375,0.0047607421875,0.99951171875,-26.0,68.0,-33.0,101946.0,-5.159000396728516,0,0
1989.710018,-0.9852294921875,0.006011962890625,0.053924560546875,0.162384033203125,-0.1220703125,0.30517578125,0.0,0.10791015625,0.0068359375,1.0003662109375,-26.0,68.0,-33.0,101946.0,-5.159000396728516,0,0
1989.717002,-0.9852294921875,0.006011962890625,0.053924560546875,0.162384033203125,-0.244140625,0.42724609375,-0.1220703125,0.11083984375,0.0062255859375,0.9984130859375,-26.0,68.0,-33.0,101946.0,-5.159000396728516,0,0
1989.724018,-0.9852294921875,0.00604248046875,0.053924560546875,0.162384033203125,-0.1220703125,0.30517578125,0.06103515625,0.109130859375,0.00341796875,0.9993896484375,-26.0,68.0,-33.0,101946.0,-5.159000396728516,0,0
1989.730996,-0.9852294921875,0.00604248046875,0.053924560546875,0.162384033203125,-0.244140625,0.18310546875,0.18310546875,0.10888671875,0.0052490234375,0.9990234375,-26.0,68.0,-33.0,101946.0,-5.159000396728516,0,0
1989.737995,-0.9852294921875,0.00604248046875,0.053924560546875,0.162384033203125,-0.1220703125,0.1220703125,-0.18310546875,0.1097412109375,0.005615234375,1.0,-26.0,68.0,-33.0,101946.0,-5.159000396728516,0,0
1989.744028,-0.9852294921875,0.00604248046875,0.053924560546875,0.162384033203125,-0.1220703125,0.1220703125,-0.18310546875,0.1097412109375,0.005615234375,1.0,-26.0,68.0,-33.0,101946.0,-5.159000396728516,0,0
1989.750996,-0.985382080078125,0.005950927734375,0.053924560546875,0.161346435546875,0.1220703125,0.3662109375,-0.244140625,0.1064453125,0.007080078125,1.0008544921875,-27.0,68.0,-32.0,101946.0,-5.159000396728516,0,0
1989.757996,-0.985382080078125,0.005950927734375,0.053924560546875,0.161346435546875,0.0,0.06103515625,0.244140625,0.1075439453125,0.0045166015625,1.0009765625,-27.0,68.0,-32.0,101946.0,-5.159000396728516,0,0
1989.765021,-0.985382080078125,0.005950927734375,0.053924560546875,0.161346435546875,0.1220703125,0.30517578125,0.1220703125,0.1099853515625,0.005859375,1.0010986328125,-27.0,68.0,-32.0,101946.0,-5.159000396728516,0,0
1989.772001,-0.985382080078125,0.005950927734375,0.053924560546875,0.161346435546875,0.0,0.30517578125,0.3662109375,0.1082763671875,0.0078125,0.9989013671875,-27.0,68.0,-32.0,101946.0,-5.159000396728516,0,0
1989.779015,-0.985382080078125,0.005950927734375,0.053924560546875,0.161346435546875,-0.06103515625,0.06103515625,0.06103515625,0.1085205078125,0.005615234375,0.99951171875,-27.0,68.0,-32.0,101946.0,-5.159000396728516,0,0
1989.785994,-0.985382080078125,0.005950927734375,0.053924560546875,0.161346435546875,-0.06103515625,0.06103515625,0.1220703125,0.110107421875,0.004638671875,0.9989013671875,-27.0,68.0,-32.0,101946.0,-5.159000396728516,0,0
1989.792998,-0.985382080078125,0.005950927734375,0.053924560546875,0.161346435546875,0.0,0.42724609375,0.0,0.10693359375,0.0059814453125,1.000244140625,-27.0,68.0,-32.0,101946.0,-5.158000469207764,0,0
1989.800018,-0.985382080078125,0.005950927734375,0.053924560546875,0.161346435546875,-0.1220703125,0.30517578125,0.0,0.109375,0.004150390625,1.0008544921875,-27.0,68.0,-32.0,101946.0,-5.158000469207764,0,0
1989.807002,-0.985382080078125,0.005950927734375,0.053924560546875,0.161346435546875,-0.18310546875,0.30517578125,0.1220703125,0.1099853515625,0.0052490234375,0.99951171875,-27.0,68.0,-32.0,101946.0,-5.158000469207764,0,0
1989.814018,-0.985382080078125,0.005950927734375,0.05389404296875,0.161346435546875,0.1220703125,0.3662109375,0.244140625,0.107666015625,0.0064697265625,0.9990234375,-27.0,68.0,-32.0,101946.0,-5.158000469207764,0,0
1989.820996,-0.985382080078125,0.005950927734375,0.05389404296875,0.161346435546875,-0.1220703125,0.3662109375,0.244140625,0.1092529296875,0.005126953125,0.9984130859375,-27.0,68.0,-32.0,101946.0,-5.158000469207764,0,0
1989.827996,-0.985382080078125,0.005950927734375,0.05389404296875,0.161346435546875,0.0,0.244140625,-0.1220703125,0.1080322265625,0.0047607421875,1.000244140625,-27.0,68.0,-32.0,101946.0,-5.158000469207764,0,0
1989.834029,-0.985382080078125,0.005950927734375,0.05389404296875,0.161346435546875,0.0,0.244140625,-0.1220703125,0.1080322265625,0.0047607421875,1.000244140625,-27.0,68.0,-32.0,101946.0,-5.158000469207764,0,0
1989.840996,-0.985382080078125,0.005950927734375,0.053924560546875,0.161346435546875,0.48828125,0.18310546875,0.0,0.1092529296875,0.005859375,0.9996337890625,-27.0,68.0,-32.0,101946.0,-5.158000469207764,0,0
1989.847996,-0.985382080078125,0.005950927734375,0.053924560546875,0.161346435546875,-0.244140625,0.0,0.18310546875,0.1083984375,0.0047607421875,0.9996337890625,-28.0,69.0,-32.0,101946.0,-5.158000469207764,0,0
1989.855021,-0.985504150390625,0.00592041015625,0.053924560546875,0.16064453125,-0.244140625,0.0,0.18310546875,0.1083984375,0.0047607421875,0.9996337890625,-28.0,69.0,-32.0,101946.0,-5.158000469207764,0,0
1989.875999,-0.985504150390625,0.00592041015625,0.05389404296875,0.16064453125,0.1220703125,0.1220703125,0.18310546875,0.1082763671875,0.0076904296875,0.999755859375,-28.0,69.0,-32.0,101946.0,-5.158000469207764,0,0
1989.882998,-0.985504150390625,0.00592041015625,0.05389404296875,0.16064453125,0.1220703125,0.244140625,0.18310546875,0.1092529296875,0.0052490234375,0.9996337890625,-28.0,69.0,-32.0,101946.0,-5.158000469207764,0,0
1989.890023,-0.985504150390625,0.00592041015625,0.05389404296875,0.16064453125,0.0,0.30517578125,-0.1220703125,0.1087646484375,0.005615234375,0.9991455078125,-28.0,69.0,-32.0,101946.0,-5.158000469207764,0,0
1989.897002,-0.985504150390625,0.00592041015625,0.05389404296875,0.16064453125,-0.06103515625,0.244140625,0.244140625,0.1097412109375,0.005615234375,0.9998779296875,-28.0,69.0,-32.0,101946.0,-5.159000396728516,0,0
1989.904018,-0.985504150390625,0.00592041015625,0.05389404296875,0.16064453125,0.1220703125,0.244140625,0.06103515625,0.1094970703125,0.004638671875,0.998291015625,-28.0,69.0,-32.0,101946.0,-5.159000396728516,0,0
1989.910996,-0.985504150390625,0.00592041015625,0.053924560546875,0.16064453125,-0.06103515625,0.18310546875,0.0,0.110107421875,0.0052490234375,0.9991455078125,-28.0,69.0,-32.0,101946.0,-5.159000396728516,0,0
1989.917995,-0.985504150390625,0.00592041015625,0.053924560546875,0.16064453125,-0.06103515625,0.42724609375,-0.06103515625,0.1109619140625,0.0078125,0.9996337890625,-28.0,69.0,-32.0,101946.0,-5.159000396728516,0,0
1989.925016,-0.985504150390625,0.00592041015625,0.053924560546875,0.16064453125,0.0,0.244140625,-0.06103515625,0.108642578125,0.0040283203125,0.9981689453125,-28.0,69.0,-32.0,101946.0,-5.159000396728516,0,0
1989.931048,-0.985504150390625,0.00592041015625,0.053924560546875,0.16064453125,0.0,0.244140625,-0.06103515625,0.108642578125,0.0040283203125,0.9981689453125,-28.0,69.0,-32.0,101946.0,-5.159000396728516,0,0
1989.937996,-0.985504150390625,0.00592041015625,0.053924560546875,0.16064453125,0.06103515625,0.1220703125,-0.18310546875,0.1090087890625,0.007080078125,0.999267578125,-28.0,69.0,-32.0,101946.0,-5.159000396728516,0,0
1989.945021,-0.985504150390625,0.00592041015625,0.053924560546875,0.16064453125,0.0,0.18310546875,0.1220703125,0.1109619140625,0.0059814453125,1.0006103515625,-27.0,69.0,-32.0,101946.0,-5.159000396728516,0,0
1989.965994,-0.98565673828125,0.005859375,0.053955078125,0.15960693359375,0.0,0.1220703125,-0.06103515625,0.1085205078125,0.006591796875,0.998779296875,-27.0,69.0,-32.0,101946.0,-5.159000396728516,0,0
1989.972998,-0.98565673828125,0.005859375,0.053955078125,0.15960693359375,-0.1220703125,0.3662109375,-0.18310546875,0.1083984375,0.007080078125,1.001220703125,-27.0,69.0,-32.0,101946.0,-5.159000396728516,0,0
1989.980018,-0.98565673828125,0.005859375,0.053924560546875,0.15960693359375,0.06103515625,0.18310546875,0.06103515625,0.1080322265625,0.005126953125,1.0003662109375,-27.0,69.0,-32.0,101946.0,-5.159000396728516,0,0
1989.987002,-0.98565673828125,0.005859375,0.053924560546875,0.15960693359375,0.1220703125,0.30517578125,-0.06103515625,0.1083984375,0.00390625,0.999267578125,-27.0,69.0,-32.0,101946.0,-5.159000396728516,0,0
1989.994018,-0.98565673828125,0.005859375,0.053924560546875,0.15960693359375,0.18310546875,0.30517578125,-0.06103515625,0.1083984375,0.005126953125,1.0003662109375,-27.0,69.0,-32.0,101946.0,-5.159000396728516,0,0
1990.000996,-0.98565673828125,0.005859375,0.053955078125,0.15960693359375,0.1220703125,0.244140625,0.30517578125,0.110107421875,0.005615234375,1.000244140625,-27.0,69.0,-32.0,101946.0,-5.159000396728516,0,0
1990.007995,-0.98565673828125,0.005859375,0.053955078125,0.15960693359375,0.18310546875,0.42724609375,-0.1220703125,0.1090087890625,0.0068359375,0.9991455078125,-27.0,69.0,-32.0,101946.0,-5.159000396728516,0,0
1990.01502,-0.98565673828125,0.005859375,0.053955078125,0.15960693359375,0.06103515625,0.3662109375,0.0,0.1104736328125,0.0059814453125,0.9989013671875,-27.0,69.0,-32.0,101946.0,-5.159000396728516,0,0
1990.021053,-0.98565673828125,0.005859375,0.053955078125,0.15960693359375,0.06103515625,0.3662109375,0.0,0.1104736328125,0.0059814453125,0.9989013671875,-27.0,69.0,-32.0,101946.0,-5.159000396728516,0,0
1990.027996,-0.98565673828125,0.005859375,0.053924560546875,0.15960693359375,-0.06103515625,0.244140625,-0.244140625,0.107666015625,0.00634765625,1.0009765625,-27.0,69.0,-32.0,101946.0,-5.159000396728516,0,0
1990.035021,-0.98565673828125,0.005859375,0.053924560546875,0.15960693359375,-0.244140625,0.0,-0.06103515625,0.1070556640625,0.006103515625,0.9998779296875,-27.0,69.0,-32.0,101946.0,-5.159000396728516,0,0
1990.042001,-0.98565673828125,0.005859375,0.053924560546875,0.15960693359375,0.06103515625,0.3662109375,0.18310546875,0.107666015625,0.0059814453125,0.9989013671875,-27.0,69.0,-32.0,101946.0,-5.159000396728516,0,0
1990.049015,-0.98565673828125,0.005859375,0.053924560546875,0.15960693359375,0.06103515625,0.1220703125,-0.18310546875,0.1092529296875,0.00634765625,0.99853515625,-28.0,68.0,-34.0,101946.0,-5.159000396728516,0,0
1990.055994,-0.9857177734375,0.005859375,0.053924560546875,0.159271240234375,0.18310546875,0.18310546875,-0.1220703125,0.111083984375,0.005859375,1.0001220703125,-28.0,68.0,-34.0,101946.0,-5.159000396728516,0,0
1990.062998,-0.9857177734375,0.005859375,0.053924560546875,0.159271240234375,0.06103515625,0.244140625,0.0,0.10595703125,0.006591796875,0.9989013671875,-28.0,68.0,-34.0,101946.0,-5.159000396728516,0,0
1990.070018,-0.9857177734375,0.005859375,0.053924560546875,0.159271240234375,0.1220703125,0.18310546875,-0.1220703125,0.108154296875,0.00390625,1.000244140625,-28.0,68.0,-34.0,101946.0,-5.159000396728516,0,0
1990.077002,-0.9857177734375,0.005859375,0.053924560546875,0.159271240234375,-0.30517578125,0.244140625,0.06103515625,0.10595703125,0.006103515625,0.9996337890625,-28.0,68.0,-34.0,101946.0,-5.159000396728516,0,0
1990.084018,-0.9857177734375,0.005859375,0.053924560546875,0.159271240234375,0.3662109375,0.30517578125,0.06103515625,0.1083984375,0.005615234375,0.9993896484375,-28.0,68.0,-34.0,101946.0,-5.159000396728516,0,0
1990.090996,-0.9857177734375,0.005859375,0.053924560546875,0.159271240234375,-0.06103515625,0.1220703125,-0.06103515625,0.107666015625,0.0064697265625,0.9993896484375,-28.0,68.0,-34.0,101946.0,-5.159000396728516,0,0
1990.097995,-0.9857177734375,0.005859375,0.05389404296875,0.159271240234375,-0.06103515625,0.30517578125,-0.18310546875,0.10693359375,0.003662109375,1.000244140625,-28.0,68.0,-34.0,101946.0,-5.159000396728516,0,0
1990.105016,-0.9857177734375,0.005859375,0.05389404296875,0.159271240234375,-0.1220703125,0.18310546875,0.06103515625,0.1090087890625,0.0068359375,1.00146484375,-28.0,68.0,-34.0,101946.0,-5.159000396728516,0,0
1990.112004,-0.9857177734375,0.005859375,0.05389404296875,0.159271240234375,-0.06103515625,0.0,0.1220703125,0.1072998046875,0.004638671875,1.00048828125,-28.0,68.0,-34.0,101946.0,-5.159000396728516,0,0
1990.118037,-0.9857177734375,0.005859375,0.05389404296875,0.159271240234375,-0.06103515625,0.0,0.1220703125,0.1072998046875,0.004638671875,1.00048828125,-28.0,68.0,-34.0,101946.0,-5.159000396728516,0,0
1990.139015,-0.9857177734375,0.005828857421875,0.053924560546875,0.159271240234375,-0.06103515625,0.18310546875,-0.18310546875,0.1102294921875,0.0074462890625,1.0,-28.0,68.0,-34.0,101946.0,-5.159000396728516,0,0
1990.145999,-0.9857177734375,0.005828857421875,0.053924560546875,0.159271240234375,0.30517578125,0.42724609375,0.1220703125,0.110107421875,0.006591796875,1.000244140625,-28.0,68.0,-35.0,101946.0,-5.159000396728516,0,0
1990.152998,-0.98577880859375,0.00579833984375,0.053924560546875,0.158935546875,-0.18310546875,0.244140625,0.30517578125,0.1055908203125,0.0079345703125,1.0006103515625,-28.0,68.0,-35.0,101946.0,-5.159000396728516,0,0
1990.160023,-0.98577880859375,0.00579833984375,0.053924560546875,0.158935546875,-0.06103515625,0.18310546875,0.06103515625,0.1090087890625,0.005859375,0.9989013671875,-28.0,68.0,-35.0,101946.0,-5.159000396728516,0,0
1990.167002,-0.98577880859375,0.005828857421875,0.053924560546875,0.158935546875,-0.06103515625,0.244140625,-0.244140625,0.1087646484375,0.00390625,1.0006103515625,-28.0,68.0,-35.0,101946.0,-5.159000396728516,0,0
1990.174018,-0.98577880859375,0.005828857421875,0.053924560546875,0.158935546875,-0.18310546875,0.18310546875,0.1220703125,0.1080322265625,0.0047607421875,1.00048828125,-28.0,68.0,-35.0,101946.0,-5.159000396728516,0,0
1990.180996,-0.98577880859375,0.005828857421875,0.053924560546875,0.158935546875,-0.1220703125,0.30517578125,0.1220703125,0.10791015625,0.0035400390625,1.0008544921875,-28.0,68.0,-35.0,101946.0,-5.159000396728516,0,0
1990.187996,-0.98577880859375,0.005828857421875,0.05389404296875,0.158935546875,0.06103515625,0.1220703125,-0.06103515625,0.1064453125,0.0067138671875,0.9990234375,-28.0,68.0,-35.0,101946.0,-5.159000396728516,0,0
1990.19502,-0.98577880859375,0.00579833984375,0.05389404296875,0.158935546875,0.1220703125,0.1220703125,-0.06103515625,0.108154296875,0.0074462890625,1.0001220703125,-28.0,68.0,-35.0,101946.0,-5.159000396728516,0,0
1990.202004,-0.98577880859375,0.005828857421875,0.05389404296875,0.158935546875,-0.1220703125,0.244140625,0.06103515625,0.108642578125,0.0032958984375,1.0,-28.0,68.0,-35.0,101946.0,-5.159000396728516,0,0
1990.208037,-0.98577880859375,0.005828857421875,0.05389404296875,0.158935546875,-0.1220703125,0.244140625,0.06103515625,0.108642578125,0.0032958984375,1.0,-28.0,68.0,-35.0,101946.0,-5.159000396728516,0,0
1990.229015,-0.98577880859375,0.005828857421875,0.05389404296875,0.158935546875,-0.06103515625,0.30517578125,-0.06103515625,0.1082763671875,0.00341796875,1.000732421875,-28.0,68.0,-35.0,101946.0,-5.159000396728516,0,0
1990.235994,-0.98577880859375,0.005828857421875,0.05389404296875,0.158935546875,-0.1220703125,0.30517578125,0.1220703125,0.1107177734375,0.005126953125,0.9998779296875,-28.0,68.0,-35.0,101946.0,-5.159000396728516,0,0
1990.242998,-0.98577880859375,0.005828857421875,0.05389404296875,0.158935546875,0.0,0.3662109375,0.18310546875,0.1075439453125,0.0047607421875,1.00146484375,-28.0,68.0,-35.0,101946.0,-5.159000396728516,0,0
1990.250018,-0.98577880859375,0.005828857421875,0.05389404296875,0.158935546875,-0.06103515625,0.30517578125,0.0,0.1090087890625,0.005126953125,1.0009765625,-28.0,67.0,-35.0,101946.0,-5.159000396728516,0,0
1990.257002,-0.98583984375,0.00579833984375,0.05389404296875,0.1585693359375,0.06103515625,0.3662109375,-0.06103515625,0.10986328125,0.00634765625,1.00048828125,-28.0,67.0,-35.0,101946.0,-5.159000396728516,0,0
1990.264018,-0.98583984375,0.00579833984375,0.05389404296875,0.1585693359375,0.06103515625,0.244140625,-0.06103515625,0.1087646484375,0.004150390625,1.0010986328125,-28.0,67.0,-35.0,101946.0,-5.159000396728516,0,0
1990.270996,-0.98583984375,0.00579833984375,0.05389404296875,0.1585693359375,0.0,0.244140625,-0.1220703125,0.1092529296875,0.005126953125,1.0001220703125,-28.0,67.0,-35.0,101946.0,-5.159000396728516,0,0
1990.277995,-0.98583984375,0.00579833984375,0.05389404296875,0.1585693359375,0.0,0.0,0.06103515625,0.10888671875,0.0057373046875,1.0008544921875,-28.0,67.0,-35.0,101946.0,-5.159000396728516,0,0
1990.285016,-0.98583984375,0.00579833984375,0.05389404296875,0.1585693359375,0.06103515625,0.1220703125,0.1220703125,0.1082763671875,0.006591796875,1.0025634765625,-28.0,67.0,-35.0,101946.0,-5.159000396728516,0,0
1990.292004,-0.98583984375,0.005828857421875,0.05389404296875,0.1585693359375,-0.06103515625,0.42724609375,0.06103515625,0.1090087890625,0.004150390625,1.0001220703125,-28.0,67.0,-35.0,101946.0,-5.159000396728516,0,0
1990.299019,-0.98583984375,0.005828857421875,0.05389404296875,0.1585693359375,-0.06103515625,0.18310546875,-0.1220703125,0.1109619140625,0.0042724609375,1.0001220703125,-28.0,67.0,-35.0,101946.0,-5.159000396728516,0,0
1990.305052,-0.98583984375,0.005828857421875,0.05389404296875,0.1585693359375,-0.06103515625,0.18310546875,-0.1220703125,0.1109619140625,0.0042724609375,1.0001220703125,-28.0,67.0,-35.0,101946.0,-5.159000396728516,0,0
1990.312001,-0.98583984375,0.005828857421875,0.05389404296875,0.1585693359375,-0.1220703125,0.18310546875,-0.18310546875,0.1087646484375,0.0054931640625,1.0008544921875,-28.0,67.0,-35.0,101946.0,-5.159000396728516,0,0
1990.319015,-0.98583984375,0.005828857421875,0.05389404296875,0.1585693359375,-0.06103515625,0.3662109375,0.06103515625,0.1094970703125,0.0057373046875,1.0009765625,-28.0,67.0,-35.0,101946.0,-5.159000396728516,0,0
1990.325994,-0.98583984375,0.005828857421875,0.05389404296875,0.1585693359375,0.0,0.3662109375,-0.1220703125,0.108642578125,0.0052490234375,1.0006103515625,-28.0,67.0,-35.0,101946.0,-5.159000396728516,0,0
1990.332998,-0.98583984375,0.005828857421875,0.05389404296875,0.1585693359375,-0.1220703125,0.1220703125,-0.1220703125,0.109375,0.0062255859375,1.0003662109375,-28.0,67.0,-35.0,101946.0,-5.159000396728516,0,0
1990.340018,-0.98583984375,0.005828857421875,0.05389404296875,0.1585693359375,0.1220703125,0.18310546875,0.1220703125,0.109375,0.004638671875,0.9981689453125,-28.0,67.0,-35.0,101946.0,-5.159000396728516,0,0
1990.347002,-0.98590087890625,0.00579833984375,0.05389404296875,0.158233642578125,-0.1220703125,0.244140625,0.1220703125,0.1068115234375,0.0062255859375,1.0008544921875,-28.0,67.0,-33.0,101946.0,-5.159000396728516,0,0
1990.354018,-0.98590087890625,0.00579833984375,0.053924560546875,0.158233642578125,-0.244140625,0.48828125,-0.18310546875,0.110107421875,0.0059814453125,0.9993896484375,-28.0,67.0,-33.0,101946.0,-5.159000396728516,0,0
1990.360996,-0.98590087890625,0.00579833984375,0.05389404296875,0.158233642578125,-0.06103515625,0.42724609375,0.06103515625,0.10888671875,0.0047607421875,0.9996337890625,-28.0,67.0,-33.0,101946.0,-5.159000396728516,0,0
1990.367995,-0.98590087890625,0.00579833984375,0.05389404296875,0.158233642578125,0.0,0.18310546875,0.0,0.109130859375,0.0078125,1.00048828125,-28.0,67.0,-33.0,101946.0,-5.159000396728516,0,0
1990.37502,-0.98590087890625,0.00579833984375,0.053924560546875,0.158233642578125,0.1220703125,0.1220703125,0.18310546875,0.1077880859375,0.005615234375,0.999267578125,-28.0,67.0,-33.0,101946.0,-5.159000396728516,0,0
1990.382004,-0.98590087890625,0.00579833984375,0.053924560546875,0.158233642578125,0.0,0.18310546875,-0.244140625,0.109375,0.0059814453125,0.99853515625,-28.0,67.0,-33.0,101946.0,-5.159000396728516,0,0
1990.402001,-0.98590087890625,0.00579833984375,0.05389404296875,0.158233642578125,-0.06103515625,0.1220703125,0.244140625,0.1065673828125,0.0054931640625,0.9998779296875,-28.0,67.0,-33.0,101946.0,-5.159000396728516,0,0
1990.409015,-0.98590087890625,0.00579833984375,0.05389404296875,0.158233642578125,0.1220703125,0.30517578125,0.18310546875,0.107421875,0.0069580078125,0.999267578125,-28.0,67.0,-33.0,101946.0,-5.159000396728516,0,0
1990.415999,-0.98590087890625,0.00579833984375,0.05389404296875,0.158233642578125,0.0,0.244140625,-0.18310546875,0.1103515625,0.0064697265625,1.00146484375,-28.0,67.0,-33.0,101946.0,-5.159000396728516,0,0
1990.422998,-0.98590087890625,0.00579833984375,0.05389404296875,0.158233642578125,-0.244140625,0.0,0.18310546875,0.1075439453125,0.0057373046875,0.99951171875,-28.0,67.0,-33.0,101946.0,-5.159000396728516,0,0
1990.430023,-0.98590087890625,0.00579833984375,0.05389404296875,0.158233642578125,-0.18310546875,0.244140625,0.06103515625,0.10791015625,0.0052490234375,1.0013427734375,-28.0,67.0,-33.0,101946.0,-5.159000396728516,0,0
1990.437002,-0.98590087890625,0.00579833984375,0.05389404296875,0.158233642578125,0.06103515625,0.244140625,0.06103515625,0.108154296875,0.0040283203125,1.0010986328125,-28.0,67.0,-33.0,101946.0,-5.159000396728516,0,0
1990.444018,-0.98590087890625,0.00579833984375,0.053863525390625,0.158233642578125,0.18310546875,0.244140625,-0.06103515625,0.10595703125,0.005126953125,1.0001220703125,-28.0,67.0,-33.0,101946.0,-5.159000396728516,0,0
1990.450996,-0.98590087890625,0.00579833984375,0.053863525390625,0.158233642578125,0.0,0.06103515625,0.3662109375,0.10888671875,0.006103515625,1.002685546875,-29.0,67.0,-33.0,101946.0,-5.159000396728516,0,0
1990.457996,-0.98590087890625,0.00579833984375,0.053863525390625,0.158233642578125,-0.244140625,0.1220703125,0.1220703125,0.1085205078125,0.0048828125,1.000732421875,-29.0,67.0,-33.0,101946.0,-5.159000396728516,0,0
1990.46502,-0.98590087890625,0.00579833984375,0.05389404296875,0.158233642578125,-0.06103515625,0.06103515625,0.1220703125,0.1109619140625,0.0040283203125,1.0020751953125,-29.0,67.0,-33.0,101946.0,-5.159000396728516,0,0
1990.472004,-0.98590087890625,0.00579833984375,0.05389404296875,0.158233642578125,0.1220703125,0.244140625,-0.06103515625,0.1094970703125,0.0045166015625,1.0018310546875,-29.0,67.0,-33.0,101946.0,-5.159000396728516,0,0
1990.492031,-0.98590087890625,0.00579833984375,0.05389404296875,0.158233642578125,-0.1220703125,0.42724609375,0.30517578125,0.1112060546875,0.0064697265625,0.9989013671875,-29.0,67.0,-33.0,101946.0,-5.159000396728516,0,0
1990.499015,-0.98590087890625,0.00579833984375,0.05389404296875,0.158233642578125,-0.18310546875,0.42724609375,0.1220703125,0.1072998046875,0.0064697265625,1.0006103515625,-29.0,67.0,-33.0,101946.0,-5.160000324249268,0,0
1990.505999,-0.98590087890625,0.00579833984375,0.05389404296875,0.158233642578125,0.18310546875,0.42724609375,-0.244140625,0.1075439453125,0.0084228515625,1.0009765625,-29.0,67.0,-33.0,101946.0,-5.160000324249268,0,0
1990.512998,-0.98590087890625,0.00579833984375,0.05389404296875,0.158233642578125,0.18310546875,0.3662109375,0.18310546875,0.1085205078125,0.007568359375,1.000732421875,-29.0,67.0,-33.0,101946.0,-5.160000324249268,0,0
1990.520018,-0.98590087890625,0.005767822265625,0.05389404296875,0.158233642578125,-0.06103515625,0.244140625,0.244140625,0.1065673828125,0.00634765625,1.0001220703125,-29.0,67.0,-33.0,101946.0,-5.160000324249268,0,0
1990.527002,-0.98590087890625,0.005767822265625,0.053863525390625,0.158233642578125,0.0,0.18310546875,0.244140625,0.109375,0.006591796875,1.00048828125,-29.0,67.0,-33.0,101946.0,-5.160000324249268,0,0
1990.534018,-0.98590087890625,0.005767822265625,0.053863525390625,0.158233642578125,0.244140625,0.06103515625,0.0,0.107421875,0.004638671875,0.9998779296875,-29.0,67.0,-33.0,101946.0,-5.160000324249268,0,0
1990.540996,-0.98590087890625,0.005767822265625,0.053863525390625,0.158233642578125,0.06103515625,0.3662109375,0.0,0.109130859375,0.0062255859375,1.001953125,-29.0,67.0,-33.0,101946.0,-5.160000324249268,0,0
1990.547995,-0.98583984375,0.00579833984375,0.053863525390625,0.1585693359375,0.0,0.18310546875,0.1220703125,0.1070556640625,0.006591796875,1.0006103515625,-30.0,68.0,-32.0,101946.0,-5.160000324249268,0,0
1990.555016,-0.98583984375,0.00579833984375,0.053863525390625,0.1585693359375,0.1220703125,0.18310546875,-0.1220703125,0.107666015625,0.007568359375,1.0003662109375,-30.0,68.0,-32.0,101946.0,-5.160000324249268,0,0
1990.562004,-0.98583984375,0.00579833984375,0.053863525390625,0.1585693359375,0.06103515625,0.18310546875,0.0,0.1072998046875,0.0047607421875,1.0018310546875,-30.0,68.0,-32.0,101946.0,-5.160000324249268,0,0
1990.569018,-0.98583984375,0.00579833984375,0.053863525390625,0.1585693359375,-0.1220703125,0.3662109375,0.06103515625,0.107421875,0.00634765625,0.9998779296875,-30.0,68.0,-32.0,101946.0,-5.160000324249268,0,0
1990.575998,-0.98583984375,0.00579833984375,0.053863525390625,0.1585693359375,-0.30517578125,0.18310546875,-0.18310546875,0.1107177734375,0.0057373046875,0.9993896484375,-30.0,68.0,-32.0,101946.0,-5.160000324249268,0,0
1990.582026,-0.98583984375,0.00579833984375,0.053863525390625,0.1585693359375,-0.30517578125,0.18310546875,-0.18310546875,0.1107177734375,0.0057373046875,0.9993896484375,-30.0,68.0,-32.0,101946.0,-5.160000324249268,0,0
1990.589015,-0.98583984375,0.00579833984375,0.053863525390625,0.1585693359375,-0.1220703125,0.18310546875,0.1220703125,0.10791015625,0.0032958984375,1.00244140625,-30.0,68.0,-32.0,101946.0,-5.160000324249268,0,0
1990.595994,-0.98583984375,0.00579833984375,0.053863525390625,0.1585693359375,0.0,0.18310546875,-0.1220703125,0.1094970703125,0.0064697265625,1.0001220703125,-30.0,68.0,-32.0,101946.0,-5.1610002517700195,0,0
1990.602998,-0.98583984375,0.00579833984375,0.053863525390625,0.1585693359375,0.0,0.244140625,0.0,0.1097412109375,0.0045166015625,1.0010986328125,-30.0,68.0,-32.0,101946.0,-5.1610002517700195,0,0
1990.610018,-0.98583984375,0.00579833984375,0.05389404296875,0.1585693359375,0.0,0.42724609375,-0.06103515625,0.1103515625,0.0078125,1.0032958984375,-30.0,68.0,-32.0,101946.0,-5.1610002517700195,0,0
1990.617002,-0.98583984375,0.00579833984375,0.05389404296875,0.1585693359375,-0.06103515625,0.30517578125,-0.3662109375,0.108642578125,0.00439453125,1.00048828125,-30.0,68.0,-32.0,101946.0,-5.1610002517700195,0,0
1990.624018,-0.98583984375,0.00579833984375,0.05389404296875,0.1585693359375,0.0,0.18310546875,0.18310546875,0.1070556640625,0.006591796875,1.000732421875,-30.0,68.0,-32.0,101946.0,-5.1610002517700195,0,0
1990.630996,-0.98583984375,0.00579833984375,0.05389404296875,0.1585693359375,-0.1220703125,0.18310546875,0.0,0.109619140625,0.0064697265625,0.9991455078125,-30.0,68.0,-32.0,101946.0,-5.1610002517700195,0,0
1990.637995,-0.98583984375,0.00579833984375,0.053863525390625,0.1585693359375,0.06103515625,0.244140625,0.0,0.10986328125,0.0059814453125,1.00048828125,-30.0,68.0,-32.0,101946.0,-5.1610002517700195,0,0
1990.645016,-0.98583984375,0.00579833984375,0.05389404296875,0.1585693359375,0.0,0.3662109375,0.244140625,0.1085205078125,0.007080078125,0.9990234375,-30.0,68.0,-32.0,101946.0,-5.1610002517700195,0,0
1990.665998,-0.98583984375,0.00579833984375,0.05389404296875,0.1585693359375,-0.244140625,0.30517578125,-0.06103515625,0.10986328125,0.0052490234375,1.0006103515625,-29.0,69.0,-30.0,101946.0,-5.1610002517700195,0,0
1990.672998,-0.98583984375,0.00579833984375,0.053863525390625,0.1585693359375,0.1220703125,0.18310546875,-0.06103515625,0.1083984375,0.005859375,1.0008544921875,-29.0,69.0,-30.0,101946.0,-5.1610002517700195,0,0
1990.67903,-0.98583984375,0.00579833984375,0.053863525390625,0.1585693359375,0.1220703125,0.18310546875,-0.06103515625,0.1083984375,0.005859375,1.0008544921875,-29.0,69.0,-30.0,101946.0,-5.1610002517700195,0,0
1990.685994,-0.98583984375,0.00579833984375,0.053863525390625,0.1585693359375,0.18310546875,0.18310546875,0.0,0.1065673828125,0.00439453125,0.9991455078125,-29.0,69.0,-30.0,101946.0,-5.1610002517700195,0,0
1990.692998,-0.98583984375,0.00579833984375,0.053863525390625,0.1585693359375,0.06103515625,0.30517578125,-0.1220703125,0.1083984375,0.0048828125,0.9993896484375,-29.0,69.0,-30.0,101946.0,-5.1610002517700195,0,0
1990.700018,-0.98583984375,0.00579833984375,0.053863525390625,0.1585693359375,-0.06103515625,0.244140625,0.18310546875,0.1087646484375,0.0042724609375,1.0023193359375,-29.0,69.0,-30.0,101946.0,-5.1610002517700195,0,0
1990.707002,-0.98583984375,0.00579833984375,0.053863525390625,0.1585693359375,-0.1220703125,0.30517578125,-0.244140625,0.108154296875,0.0064697265625,1.001708984375,-29.0,69.0,-30.0,101946.0,-5.1610002517700195,0,0
1990.714018,-0.98583984375,0.00579833984375,0.053863525390625,0.1585693359375,-0.244140625,0.244140625,0.0,0.1075439453125,0.0052490234375,1.000244140625,-29.0,69.0,-30.0,101946.0,-5.1610002517700195,0,0
1990.720996,-0.98583984375,0.00579833984375,0.053863525390625,0.1585693359375,0.0,0.18310546875,0.06103515625,0.1082763671875,0.005615234375,1.000244140625,-29.0,69.0,-30.0,101946.0,-5.1610002517700195,0,0
1990.727996,-0.98583984375,0.00579833984375,0.053863525390625,0.1585693359375,-0.18310546875,0.42724609375,0.18310546875,0.1092529296875,0.0062255859375,1.0018310546875,-29.0,69.0,-30.0,101946.0,-5.1610002517700195,0,0
1990.749018,-0.98583984375,0.00579833984375,0.053863525390625,0.1585693359375,-0.18310546875,0.244140625,0.06103515625,0.10791015625,0.00537109375,1.000732421875,-29.0,69.0,-31.0,101946.0,-5.1620001792907715,0,0
1990.755998,-0.98583984375,0.00579833984375,0.053863525390625,0.1585693359375,-0.1220703125,0.244140625,0.0,0.107421875,0.0042724609375,1.001220703125,-29.0,69.0,-31.0,101946.0,-5.1620001792907715,0,0
1990.762998,-0.98583984375,0.00579833984375,0.053863525390625,0.1585693359375,0.18310546875,0.30517578125,-0.18310546875,0.1103515625,0.00537109375,1.0006103515625,-29.0,69.0,-31.0,101946.0,-5.1620001792907715,0,0
1990.769031,-0.98583984375,0.00579833984375,0.053863525390625,0.1585693359375,0.18310546875,0.30517578125,-0.18310546875,0.1103515625,0.00537109375,1.0006103515625,-29.0,69.0,-31.0,101946.0,-5.1620001792907715,0,0
1990.775999,-0.98583984375,0.00579833984375,0.053863525390625,0.1585693359375,-0.244140625,0.42724609375,-0.1220703125,0.108154296875,0.0040283203125,1.00244140625,-29.0,69.0,-31.0,101946.0,-5.1620001792907715,0,0
1990.782998,-0.98583984375,0.00579833984375,0.053863525390625,0.1585693359375,0.1220703125,0.18310546875,0.06103515625,0.1080322265625,0.00537109375,1.0020751953125,-29.0,69.0,-31.0,101946.0,-5.1620001792907715,0,0
1990.790023,-0.98583984375,0.00579833984375,0.053863525390625,0.1585693359375,-0.06103515625,0.3662109375,0.18310546875,0.109130859375,0.0068359375,1.00146484375,-29.0,69.0,-31.0,101946.0,-5.1620001792907715,0,0
1990.797002,-0.98583984375,0.00579833984375,0.053863525390625,0.1585693359375,0.0,0.244140625,-0.1220703125,0.110107421875,0.0059814453125,1.001220703125,-29.0,69.0,-31.0,101946.0,-5.1620001792907715,0,0
1990.804018,-0.98583984375,0.00579833984375,0.053863525390625,0.1585693359375,0.0,0.244140625,0.0,0.110107421875,0.007080078125,1.0013427734375,-29.0,69.0,-31.0,101946.0,-5.1620001792907715,0,0
1990.810996,-0.98583984375,0.00579833984375,0.053863525390625,0.1585693359375,-0.06103515625,0.18310546875,0.0,0.1090087890625,0.003173828125,1.0010986328125,-29.0,69.0,-31.0,101946.0,-5.1620001792907715,0,0
1990.817995,-0.98583984375,0.005828857421875,0.053863525390625,0.1585693359375,-0.06103515625,0.1220703125,0.1220703125,0.1085205078125,0.004638671875,1.0020751953125,-29.0,69.0,-31.0,101946.0,-5.1620001792907715,0,0
1990.82502,-0.98583984375,0.005828857421875,0.05389404296875,0.1585693359375,-0.18310546875,0.3662109375,-0.1220703125,0.10888671875,0.0064697265625,1.0013427734375,-29.0,69.0,-31.0,101946.0,-5.1620001792907715,0,0
1990.832004,-0.98583984375,0.005828857421875,0.053863525390625,0.1585693359375,-0.1220703125,0.0,0.0,0.107177734375,0.0029296875,1.001220703125,-29.0,69.0,-31.0,101946.0,-5.1620001792907715,0,0
1990.839018,-0.98583984375,0.005828857421875,0.053863525390625,0.1585693359375,0.06103515625,0.42724609375,0.0,0.1070556640625,0.002197265625,1.001953125,-29.0,69.0,-31.0,101946.0,-5.1620001792907715,0,0
1990.845998,-0.98583984375,0.005828857421875,0.053863525390625,0.1585693359375,-0.06103515625,0.1220703125,-0.1220703125,0.1092529296875,0.006591796875,1.0003662109375,-27.0,69.0,-31.0,101946.0,-5.1610002517700195,0,0
1990.852998,-0.9859619140625,0.00579833984375,0.053863525390625,0.15789794921875,0.1220703125,0.06103515625,0.244140625,0.1083984375,0.0048828125,1.0006103515625,-27.0,69.0,-31.0,101946.0,-5.1610002517700195,0,0
1990.860018,-0.9859619140625,0.00579833984375,0.053863525390625,0.15789794921875,0.0,-0.1220703125,0.0,0.1099853515625,0.00390625,1.0008544921875,-27.0,69.0,-31.0,101946.0,-5.1610002517700195,0,0
1990.86605,-0.9859619140625,0.00579833984375,0.053863525390625,0.15789794921875,0.0,-0.1220703125,0.0,0.1099853515625,0.00390625,1.0008544921875,-27.0,69.0,-31.0,101946.0,-5.1610002517700195,0,0
1990.872998,-0.9859619140625,0.00579833984375,0.053863525390625,0.15789794921875,-0.06103515625,0.244140625,0.06103515625,0.1087646484375,0.0059814453125,1.0006103515625,-27.0,69.0,-31.0,101946.0,-5.1610002517700195,0,0
1990.880018,-0.9859619140625,0.00579833984375,0.053863525390625,0.15789794921875,-0.1220703125,0.30517578125,-0.244140625,0.1092529296875,0.00537109375,1.0025634765625,-27.0,69.0,-31.0,101946.0,-5.1610002517700195,0,0
1990.887002,-0.9859619140625,0.00579833984375,0.053863525390625,0.15789794921875,0.54931640625,0.3662109375,0.06103515625,0.1092529296875,0.0054931640625,0.999755859375,-27.0,69.0,-31.0,101946.0,-5.1610002517700195,0,0
1990.894018,-0.9859619140625,0.00579833984375,0.053863525390625,0.15789794921875,0.244140625,0.30517578125,0.06103515625,0.1082763671875,0.00634765625,1.0010986328125,-27.0,69.0,-31.0,101946.0,-5.1610002517700195,0,0
1990.900996,-0.9859619140625,0.00579833984375,0.053863525390625,0.15789794921875,-0.06103515625,0.48828125,-0.06103515625,0.1082763671875,0.0047607421875,1.0025634765625,-27.0,69.0,-31.0,101946.0,-5.1610002517700195,0,0
1990.922004,-0.9859619140625,0.00579833984375,0.053863525390625,0.15789794921875,0.0,0.3662109375,0.0,0.1085205078125,0.00537109375,1.001953125,-27.0,69.0,-31.0,101946.0,-5.1610002517700195,0,0
1990.929018,-0.9859619140625,0.005828857421875,0.053863525390625,0.15789794921875,-0.30517578125,0.1220703125,0.06103515625,0.110595703125,0.0028076171875,1.0013427734375,-27.0,69.0,-31.0,101946.0,-5.1610002517700195,0,0
1990.935998,-0.9859619140625,0.005828857421875,0.05389404296875,0.15789794921875,-0.06103515625,0.244140625,-0.06103515625,0.111328125,0.004638671875,1.0003662109375,-27.0,69.0,-31.0,101946.0,-5.1610002517700195,0,0
1990.942998,-0.9859619140625,0.005828857421875,0.05389404296875,0.15789794921875,-0.1220703125,0.244140625,-0.244140625,0.1085205078125,0.006103515625,1.0015869140625,-27.0,69.0,-31.0,101946.0,-5.160000324249268,0,0
1990.950018,-0.986053466796875,0.00579833984375,0.05389404296875,0.157196044921875,0.30517578125,0.30517578125,0.0,0.1114501953125,0.0035400390625,1.0023193359375,-27.0,69.0,-31.0,101946.0,-5.160000324249268,0,0
1990.95605,-0.986053466796875,0.00579833984375,0.05389404296875,0.157196044921875,0.30517578125,0.30517578125,0.0,0.1114501953125,0.0035400390625,1.0023193359375,-27.0,69.0,-31.0,101946.0,-5.160000324249268,0,0
1990.962998,-0.986053466796875,0.00579833984375,0.05389404296875,0.157196044921875,-0.1220703125,0.1220703125,0.06103515625,0.1092529296875,0.0068359375,1.00146484375,-27.0,69.0,-31.0,101946.0,-5.160000324249268,0,0
1990.970018,-0.986053466796875,0.00579833984375,0.05389404296875,0.157196044921875,0.0,0.30517578125,-0.1220703125,0.109130859375,0.00537109375,1.0020751953125,-27.0,69.0,-31.0,101946.0,-5.160000324249268,0,0
1990.977002,-0.986053466796875,0.00579833984375,0.05389404296875,0.157196044921875,0.06103515625,0.18310546875,-0.06103515625,0.10888671875,0.0054931640625,0.999755859375,-27.0,69.0,-31.0,101946.0,-5.160000324249268,0,0
1990.984018,-0.986053466796875,0.00579833984375,0.05389404296875,0.157196044921875,0.0,0.30517578125,0.06103515625,0.1075439453125,0.0067138671875,1.000244140625,-27.0,69.0,-31.0,101946.0,-5.160000324249268,0,0
1990.990996,-0.986053466796875,0.00579833984375,0.05389404296875,0.157196044921875,-0.18310546875,0.1220703125,-0.18310546875,0.1094970703125,0.0052490234375,1.00146484375,-27.0,69.0,-31.0,101946.0,-5.160000324249268,0,0
1991.012004,-0.986053466796875,0.00579833984375,0.05389404296875,0.157196044921875,0.0,0.30517578125,-0.18310546875,0.10791015625,0.0040283203125,1.0010986328125,-27.0,69.0,-31.0,101946.0,-5.160000324249268,0,0
1991.019019,-0.986053466796875,0.00579833984375,0.05389404296875,0.157196044921875,0.0,0.1220703125,-0.06103515625,0.1082763671875,0.0050048828125,1.0029296875,-27.0,69.0,-31.0,101946.0,-5.160000324249268,0,0
1991.025998,-0.986053466796875,0.005828857421875,0.05389404296875,0.157196044921875,0.06103515625,0.244140625,-0.06103515625,0.1090087890625,0.00390625,1.0018310546875,-27.0,69.0,-31.0,101946.0,-5.160000324249268,0,0
1991.032998,-0.986053466796875,0.005828857421875,0.053863525390625,0.157196044921875,-0.06103515625,0.30517578125,0.244140625,0.1083984375,0.005615234375,1.000732421875,-27.0,69.0,-31.0,101946.0,-5.160000324249268,0,0
1991.040018,-0.986053466796875,0.005828857421875,0.053863525390625,0.157196044921875,0.1220703125,0.42724609375,0.0,0.10791015625,0.00439453125,1.0029296875,-27.0,69.0,-31.0,101946.0,-5.160000324249268,0,0
1991.046051,-0.986053466796875,0.005828857421875,0.053863525390625,0.157196044921875,0.1220703125,0.42724609375,0.0,0.10791015625,0.00439453125,1.0029296875,-27.0,69.0,-31.0,101946.0,-5.160000324249268,0,0
1991.052998,-0.986175537109375,0.005767822265625,0.053863525390625,0.156494140625,-0.30517578125,0.54931640625,0.06103515625,0.10693359375,0.0047607421875,1.0010986328125,-27.0,68.0,-31.0,101946.0,-5.1610002517700195,0,0
1991.060023,-0.986175537109375,0.00579833984375,0.053863525390625,0.156494140625,0.244140625,0.1220703125,0.18310546875,0.1104736328125,0.0052490234375,1.0006103515625,-27.0,68.0,-31.0,101946.0,-5.1610002517700195,0,0
1991.067002,-0.986175537109375,0.00579833984375,0.053863525390625,0.156494140625,-0.06103515625,0.30517578125,0.1220703125,0.1085205078125,0.0048828125,1.000732421875,-27.0,68.0,-31.0,101946.0,-5.1610002517700195,0,0
1991.074018,-0.986175537109375,0.00579833984375,0.053863525390625,0.156494140625,-0.1220703125,0.30517578125,-0.06103515625,0.1090087890625,0.00439453125,0.9993896484375,-27.0,68.0,-31.0,101946.0,-5.1610002517700195,0,0
1991.080996,-0.986175537109375,0.00579833984375,0.053863525390625,0.156494140625,-0.06103515625,0.1220703125,0.0,0.1065673828125,0.005615234375,1.0006103515625,-27.0,68.0,-31.0,101946.0,-5.1610002517700195,0,0
1991.087996,-0.986175537109375,0.00579833984375,0.053863525390625,0.156494140625,-0.18310546875,0.30517578125,0.06103515625,0.1083984375,0.0028076171875,1.0023193359375,-27.0,68.0,-31.0,101946.0,-5.1610002517700195,0,0
1991.09502,-0.986175537109375,0.00579833984375,0.053863525390625,0.156494140625,0.244140625,0.1220703125,0.1220703125,0.1090087890625,0.002685546875,0.9991455078125,-27.0,68.0,-31.0,101946.0,-5.1610002517700195,0,0
1991.102004,-0.986175537109375,0.00579833984375,0.053863525390625,0.156494140625,0.0,0.1220703125,0.1220703125,0.1102294921875,0.006103515625,1.0003662109375,-27.0,68.0,-31.0,101946.0,-5.1610002517700195,0,0
1991.109018,-0.986175537109375,0.00579833984375,0.053863525390625,0.156494140625,-0.06103515625,0.244140625,0.06103515625,0.1090087890625,0.004638671875,1.0013427734375,-27.0,68.0,-31.0,101946.0,-5.1610002517700195,0,0
1991.115998,-0.986175537109375,0.00579833984375,0.053863525390625,0.156494140625,0.06103515625,0.30517578125,0.30517578125,0.107177734375,0.0067138671875,0.999755859375,-27.0,68.0,-31.0,101946.0,-5.1610002517700195,0,0
1991.122997,-0.986175537109375,0.00579833984375,0.053863525390625,0.156494140625,0.0,0.30517578125,0.06103515625,0.1090087890625,0.0048828125,1.00146484375,-27.0,68.0,-31.0,101946.0,-5.1610002517700195,0,0
1991.130018,-0.986175537109375,0.00579833984375,0.053863525390625,0.156494140625,-0.1220703125,0.244140625,-0.06103515625,0.1092529296875,0.005126953125,1.00048828125,-27.0,68.0,-31.0,101946.0,-5.1610002517700195,0,0
1991.137001,-0.986175537109375,0.00579833984375,0.053863525390625,0.156494140625,0.06103515625,0.1220703125,0.18310546875,0.108154296875,0.005126953125,1.0023193359375,-27.0,68.0,-31.0,101946.0,-5.1610002517700195,0,0
1991.143034,-0.986175537109375,0.00579833984375,0.053863525390625,0.156494140625,0.06103515625,0.1220703125,0.18310546875,0.108154296875,0.005126953125,1.0023193359375,-27.0,68.0,-31.0,101946.0,-5.1610002517700195,0,0
1991.150018,-0.98626708984375,0.005767822265625,0.053863525390625,0.15582275390625,-0.06103515625,0.42724609375,-0.06103515625,0.107421875,0.0045166015625,1.0018310546875,-27.0,69.0,-30.0,101946.0,-5.160000324249268,0,0
1991.157002,-0.98626708984375,0.005767822265625,0.053863525390625,0.15582275390625,0.0,0.244140625,0.3662109375,0.108642578125,0.0047607421875,1.0020751953125,-27.0,69.0,-30.0,101946.0,-5.160000324249268,0,0
1991.164018,-0.98626708984375,0.005767822265625,0.053863525390625,0.15582275390625,0.0,-0.06103515625,0.1220703125,0.108154296875,0.0069580078125,1.0015869140625,-27.0,69.0,-30.0,101946.0,-5.160000324249268,0,0
1991.18502,-0.98626708984375,0.005767822265625,0.053863525390625,0.15582275390625,-0.18310546875,0.244140625,-0.06103515625,0.10791015625,0.005126953125,1.000732421875,-27.0,69.0,-30.0,101946.0,-5.160000324249268,0,0
1991.192004,-0.98626708984375,0.005767822265625,0.053863525390625,0.15582275390625,0.1220703125,0.30517578125,0.18310546875,0.1082763671875,0.0076904296875,1.00146484375,-27.0,69.0,-30.0,101946.0,-5.160000324249268,0,0
1991.199018,-0.98626708984375,0.005767822265625,0.053863525390625,0.15582275390625,-0.1220703125,0.244140625,0.1220703125,0.1092529296875,0.0064697265625,0.999267578125,-27.0,69.0,-30.0,101946.0,-5.160000324249268,0,0
1991.205998,-0.98626708984375,0.005767822265625,0.053863525390625,0.15582275390625,0.06103515625,0.3662109375,-0.1220703125,0.1082763671875,0.00390625,1.0009765625,-27.0,69.0,-30.0,101946.0,-5.160000324249268,0,0
1991.212997,-0.98626708984375,0.005767822265625,0.053863525390625,0.15582275390625,-0.06103515625,0.30517578125,-0.1220703125,0.1090087890625,0.0064697265625,0.9998779296875,-27.0,69.0,-30.0,101946.0,-5.160000324249268,0,0
1991.220018,-0.98626708984375,0.005767822265625,0.053863525390625,0.15582275390625,0.0,0.30517578125,-0.30517578125,0.1077880859375,0.005126953125,1.00048828125,-27.0,69.0,-30.0,101946.0,-5.160000324249268,0,0
1991.227001,-0.98626708984375,0.005767822265625,0.053863525390625,0.15582275390625,-0.1220703125,0.30517578125,0.244140625,0.10693359375,0.007080078125,0.999267578125,-27.0,69.0,-30.0,101946.0,-5.160000324249268,0,0
1991.233034,-0.98626708984375,0.005767822265625,0.053863525390625,0.15582275390625,-0.1220703125,0.30517578125,0.244140625,0.10693359375,0.007080078125,0.999267578125,-27.0,69.0,-30.0,101946.0,-5.160000324249268,0,0
1991.240018,-0.98626708984375,0.005767822265625,0.053863525390625,0.15582275390625,-0.30517578125,0.244140625,-0.18310546875,0.1094970703125,0.003662109375,1.0020751953125,-27.0,69.0,-30.0,101946.0,-5.160000324249268,0,0
1991.247002,-0.986328125,0.005767822265625,0.053863525390625,0.155487060546875,0.06103515625,0.18310546875,-0.42724609375,0.1065673828125,0.0057373046875,1.000732421875,-28.0,69.0,-29.0,101946.0,-5.160000324249268,0,0
1991.254018,-0.986328125,0.005767822265625,0.053863525390625,0.155487060546875,-0.30517578125,0.30517578125,0.1220703125,0.1058349609375,0.003662109375,1.001220703125,-28.0,69.0,-29.0,101946.0,-5.160000324249268,0,0
1991.27502,-0.986328125,0.005767822265625,0.0538330078125,0.155487060546875,0.18310546875,0.42724609375,0.0,0.1082763671875,0.0035400390625,1.00146484375,-28.0,69.0,-29.0,101946.0,-5.160000324249268,0,0
1991.282004,-0.986328125,0.005767822265625,0.0538330078125,0.155487060546875,-0.06103515625,0.3662109375,0.0,0.1082763671875,0.0069580078125,1.0,-28.0,69.0,-29.0,101946.0,-5.160000324249268,0,0
1991.289018,-0.986328125,0.005767822265625,0.0538330078125,0.155487060546875,-0.1220703125,0.244140625,-0.06103515625,0.108642578125,0.0047607421875,0.999267578125,-28.0,69.0,-29.0,101946.0,-5.160000324249268,0,0
1991.295998,-0.986328125,0.0057373046875,0.0538330078125,0.155487060546875,-0.244140625,0.30517578125,0.0,0.1085205078125,0.00634765625,0.99853515625,-28.0,69.0,-29.0,101946.0,-5.160000324249268,0,0
1991.302997,-0.986328125,0.005767822265625,0.0538330078125,0.155487060546875,0.06103515625,0.244140625,0.0,0.106689453125,0.004638671875,0.9990234375,-28.0,69.0,-29.0,101946.0,-5.160000324249268,0,0
1991.310018,-0.986328125,0.005767822265625,0.0538330078125,0.155487060546875,0.06103515625,0.30517578125,0.1220703125,0.107421875,0.0062255859375,1.00244140625,-28.0,69.0,-29.0,101946.0,-5.160000324249268,0,0
1991.317001,-0.986328125,0.0057373046875,0.0538330078125,0.155487060546875,-0.3662109375,0.06103515625,0.0,0.1070556640625,0.00732421875,1.001953125,-28.0,69.0,-29.0,101946.0,-5.160000324249268,0,0
1991.324018,-0.986328125,0.0057373046875,0.0538330078125,0.155487060546875,-0.06103515625,0.1220703125,-0.06103515625,0.107666015625,0.0074462890625,1.0010986328125,-28.0,69.0,-29.0,101946.0,-5.160000324249268,0,0
1991.330054,-0.986328125,0.0057373046875,0.0538330078125,0.155487060546875,-0.06103515625,0.1220703125,-0.06103515625,0.107666015625,0.0074462890625,1.0010986328125,-28.0,69.0,-29.0,101946.0,-5.160000324249268,0,0
1991.337002,-0.986328125,0.0057373046875,0.0538330078125,0.155487060546875,0.0,0.06103515625,0.1220703125,0.10986328125,0.00537109375,1.0008544921875,-28.0,69.0,-29.0,101946.0,-5.160000324249268,0,0
1991.344018,-0.986328125,0.0057373046875,0.0538330078125,0.155487060546875,0.244140625,0.18310546875,-0.06103515625,0.1107177734375,0.0069580078125,0.999755859375,-28.0,69.0,-29.0,101946.0,-5.160000324249268,0,0
1991.350996,-0.986328125,0.0057373046875,0.053863525390625,0.155487060546875,0.1220703125,0.0,-0.06103515625,0.110107421875,0.006591796875,1.0015869140625,-29.0,70.0,-28.0,101946.0,-5.160000324249268,0,0
1991.357996,-0.986328125,0.0057373046875,0.0538330078125,0.155487060546875,0.1220703125,0.18310546875,0.0,0.10791015625,0.0050048828125,0.999755859375,-29.0,70.0,-28.0,101946.0,-5.160000324249268,0,0
1991.36502,-0.986328125,0.0057373046875,0.053863525390625,0.155487060546875,-0.1220703125,0.06103515625,0.06103515625,0.1099853515625,0.005615234375,1.0003662109375,-29.0,70.0,-28.0,101946.0,-5.160000324249268,0,0
1991.372004,-0.986328125,0.0057373046875,0.053863525390625,0.155487060546875,0.0,0.18310546875,0.1220703125,0.1094970703125,0.0057373046875,1.0006103515625,-29.0,70.0,-28.0,101946.0,-5.160000324249268,0,0
1991.379018,-0.986328125,0.0057373046875,0.053863525390625,0.155487060546875,0.06103515625,0.30517578125,0.06103515625,0.1102294921875,0.006103515625,1.0009765625,-29.0,70.0,-28.0,101946.0,-5.160000324249268,0,0
1991.385998,-0.986328125,0.0057373046875,0.053863525390625,0.155487060546875,-0.244140625,0.18310546875,-0.06103515625,0.1092529296875,0.0064697265625,1.000732421875,-29.0,70.0,-28.0,101946.0,-5.160000324249268,0,0
1991.392998,-0.986328125,0.0057373046875,0.053863525390625,0.155487060546875,0.06103515625,0.06103515625,0.244140625,0.1083984375,0.005615234375,1.0001220703125,-29.0,70.0,-28.0,101946.0,-5.160000324249268,0,0
1991.400018,-0.986328125,0.0057373046875,0.053863525390625,0.155487060546875,0.06103515625,0.1220703125,-0.06103515625,0.1099853515625,0.0048828125,1.0008544921875,-29.0,70.0,-28.0,101946.0,-5.160000324249268,0,0
1991.407001,-0.986328125,0.0057373046875,0.053863525390625,0.155487060546875,0.18310546875,0.18310546875,0.06103515625,0.111083984375,0.005615234375,1.000732421875,-29.0,70.0,-28.0,101946.0,-5.160000324249268,0,0
1991.414018,-0.986328125,0.0057373046875,0.053863525390625,0.155487060546875,-0.244140625,0.30517578125,0.0,0.10986328125,0.0040283203125,1.0015869140625,-29.0,70.0,-28.0,101946.0,-5.160000324249268,0,0
1991.420049,-0.986328125,0.0057373046875,0.053863525390625,0.155487060546875,-0.244140625,0.30517578125,0.0,0.10986328125,0.0040283203125,1.0015869140625,-29.0,70.0,-28.0,101946.0,-5.160000324249268,0,0
1991.427002,-0.986328125,0.005706787109375,0.053863525390625,0.155487060546875,0.0,0.42724609375,0.18310546875,0.107421875,0.0068359375,1.0015869140625,-29.0,70.0,-28.0,101946.0,-5.160000324249268,0,0
1991.447995,-0.98638916015625,0.00567626953125,0.053863525390625,0.1551513671875,-0.1220703125,0.1220703125,0.0,0.1103515625,0.00634765625,1.0006103515625,-28.0,70.0,-29.0,101946.0,-5.160000324249268,0,0
1991.455016,-0.98638916015625,0.00567626953125,0.053863525390625,0.1551513671875,0.1220703125,0.30517578125,0.18310546875,0.10791015625,0.0054931640625,1.0010986328125,-28.0,70.0,-29.0,101946.0,-5.160000324249268,0,0
1991.462004,-0.98638916015625,0.00567626953125,0.053863525390625,0.1551513671875,-0.244140625,0.244140625,0.1220703125,0.1090087890625,0.007080078125,1.0008544921875,-28.0,70.0,-29.0,101946.0,-5.160000324249268,0,0
1991.469018,-0.98638916015625,0.00567626953125,0.053863525390625,0.1551513671875,-0.06103515625,0.3662109375,0.06103515625,0.10888671875,0.0040283203125,1.0023193359375,-28.0,70.0,-29.0,101946.0,-5.160000324249268,0,0
1991.475998,-0.98638916015625,0.00567626953125,0.053863525390625,0.1551513671875,-0.1220703125,0.1220703125,0.18310546875,0.1087646484375,0.005859375,1.0023193359375,-28.0,70.0,-29.0,101946.0,-5.160000324249268,0,0
1991.482997,-0.98638916015625,0.00567626953125,0.05389404296875,0.1551513671875,0.1220703125,0.1220703125,0.06103515625,0.11083984375,0.005126953125,1.0006103515625,-28.0,70.0,-29.0,101946.0,-5.160000324249268,0,0
1991.490018,-0.98638916015625,0.00567626953125,0.05389404296875,0.1551513671875,0.06103515625,0.3662109375,0.0,0.108642578125,0.006103515625,1.000244140625,-28.0,70.0,-29.0,101946.0,-5.160000324249268,0,0
1991.497001,-0.98638916015625,0.00567626953125,0.05389404296875,0.1551513671875,0.06103515625,0.30517578125,0.06103515625,0.1090087890625,0.00439453125,1.0008544921875,-28.0,70.0,-29.0,101946.0,-5.160000324249268,0,0
1991.504018,-0.98638916015625,0.005706787109375,0.05389404296875,0.1551513671875,0.06103515625,0.06103515625,-0.06103515625,0.10888671875,0.0028076171875,1.001220703125,-28.0,70.0,-29.0,101946.0,-5.160000324249268,0,0
1991.510995,-0.98638916015625,0.00567626953125,0.05389404296875,0.1551513671875,0.244140625,0.30517578125,0.06103515625,0.1070556640625,0.0057373046875,1.0018310546875,-28.0,70.0,-29.0,101946.0,-5.160000324249268,0,0
1991.517028,-0.98638916015625,0.00567626953125,0.05389404296875,0.1551513671875,0.244140625,0.30517578125,0.06103515625,0.1070556640625,0.0057373046875,1.0018310546875,-28.0,70.0,-29.0,101946.0,-5.160000324249268,0,0
1991.537995,-0.98638916015625,0.00567626953125,0.05389404296875,0.1551513671875,-0.06103515625,0.30517578125,-0.18310546875,0.109130859375,0.0064697265625,1.0003662109375,-28.0,70.0,-29.0,101946.0,-5.160000324249268,0,0
1991.545016,-0.98638916015625,0.00567626953125,0.05389404296875,0.1551513671875,0.18310546875,0.244140625,0.06103515625,0.10693359375,0.005859375,1.000732421875,-28.0,70.0,-30.0,101946.0,-5.160000324249268,0,0
1991.552004,-0.9864501953125,0.005645751953125,0.05389404296875,0.154815673828125,0.06103515625,0.30517578125,-0.06103515625,0.107666015625,0.006103515625,0.9998779296875,-28.0,70.0,-30.0,101946.0,-5.160000324249268,0,0
1991.559018,-0.9864501953125,0.005645751953125,0.05389404296875,0.154815673828125,-0.1220703125,0.42724609375,-0.18310546875,0.1094970703125,0.00390625,1.0001220703125,-28.0,70.0,-30.0,101946.0,-5.160000324249268,0,0
1991.565998,-0.9864501953125,0.005645751953125,0.053863525390625,0.154815673828125,0.06103515625,0.244140625,-0.1220703125,0.1082763671875,0.0078125,1.0003662109375,-28.0,70.0,-30.0,101946.0,-5.160000324249268,0,0
1991.572997,-0.9864501953125,0.005645751953125,0.053863525390625,0.154815673828125,-0.1220703125,0.54931640625,0.18310546875,0.1063232421875,0.0062255859375,1.0028076171875,-28.0,70.0,-30.0,101946.0,-5.160000324249268,0,0
1991.580018,-0.9864501953125,0.005645751953125,0.053863525390625,0.154815673828125,0.0,0.1220703125,-0.1220703125,0.110107421875,0.0048828125,1.001708984375,-28.0,70.0,-30.0,101946.0,-5.160000324249268,0,0
1991.587001,-0.9864501953125,0.005645751953125,0.053863525390625,0.154815673828125,-0.1220703125,0.1220703125,0.06103515625,0.10791015625,0.0067138671875,1.0028076171875,-28.0,70.0,-30.0,101946.0,-5.160000324249268,0,0
1991.594018,-0.9864501953125,0.005645751953125,0.053863525390625,0.154815673828125,0.0,0.3662109375,0.06103515625,0.110107421875,0.0048828125,1.002685546875,-28.0,70.0,-30.0,101946.0,-5.160000324249268,0,0
1991.600995,-0.9864501953125,0.005645751953125,0.053863525390625,0.154815673828125,0.0,0.18310546875,0.1220703125,0.10693359375,0.0078125,1.00146484375,-28.0,70.0,-30.0,101946.0,-5.160000324249268,0,0
1991.607028,-0.9864501953125,0.005645751953125,0.053863525390625,0.154815673828125,0.0,0.18310546875,0.1220703125,0.10693359375,0.0078125,1.00146484375,-28.0,70.0,-30.0,101946.0,-5.160000324249268,0,0
1991.614018,-0.9864501953125,0.005645751953125,0.053863525390625,0.154815673828125,-0.06103515625,0.30517578125,0.06103515625,0.1080322265625,0.0062255859375,0.9991455078125,-28.0,70.0,-30.0,101946.0,-5.160000324249268,0,0
1991.620996,-0.9864501953125,0.005645751953125,0.053863525390625,0.154815673828125,-0.18310546875,0.244140625,0.1220703125,0.1072998046875,0.006591796875,1.001220703125,-28.0,70.0,-30.0,101946.0,-5.160000324249268,0,0
1991.627996,-0.9864501953125,0.005645751953125,0.053863525390625,0.154815673828125,0.0,0.1220703125,-0.06103515625,0.107421875,0.00634765625,0.9998779296875,-28.0,70.0,-30.0,101946.0,-5.160000324249268,0,0
1991.63502,-0.9864501953125,0.005645751953125,0.053863525390625,0.154815673828125,0.06103515625,0.1220703125,-0.244140625,0.1075439453125,0.003662109375,0.9996337890625,-28.0,70.0,-30.0,101946.0,-5.160000324249268,0,0
1991.642004,-0.9864501953125,0.005645751953125,0.053863525390625,0.154815673828125,-0.06103515625,0.3662109375,0.1220703125,0.1077880859375,0.005859375,0.9991455078125,-28.0,69.0,-31.0,101946.0,-5.160000324249268,0,0
1991.649018,-0.986480712890625,0.005645751953125,0.05389404296875,0.15447998046875,-0.1220703125,0.244140625,0.06103515625,0.1109619140625,0.0059814453125,1.000732421875,-28.0,69.0,-31.0,101946.0,-5.160000324249268,0,0
1991.655998,-0.986480712890625,0.005615234375,0.053863525390625,0.15447998046875,0.06103515625,0.3662109375,0.18310546875,0.108154296875,0.0079345703125,0.9993896484375,-28.0,69.0,-31.0,101946.0,-5.160000324249268,0,0
1991.662998,-0.986480712890625,0.005615234375,0.053863525390625,0.15447998046875,-0.06103515625,0.06103515625,0.18310546875,0.1090087890625,0.0068359375,1.0010986328125,-28.0,69.0,-31.0,101946.0,-5.160000324249268,0,0
1991.670018,-0.986480712890625,0.005584716796875,0.053863525390625,0.15447998046875,-0.06103515625,0.30517578125,-0.244140625,0.1097412109375,0.007080078125,1.002197265625,-28.0,69.0,-31.0,101946.0,-5.160000324249268,0,0
1991.677001,-0.986480712890625,0.005584716796875,0.053863525390625,0.15447998046875,-0.06103515625,0.18310546875,-0.18310546875,0.1085205078125,0.0067138671875,1.0015869140625,-28.0,69.0,-31.0,101946.0,-5.160000324249268,0,0
1991.684018,-0.986480712890625,0.005584716796875,0.053863525390625,0.15447998046875,0.0,0.244140625,-0.18310546875,0.1080322265625,0.005126953125,0.99951171875,-28.0,69.0,-31.0,101946.0,-5.160000324249268,0,0
1991.690996,-0.986480712890625,0.005584716796875,0.053863525390625,0.15447998046875,0.30517578125,0.42724609375,0.0,0.10888671875,0.00439453125,1.0009765625,-28.0,69.0,-31.0,101946.0,-5.160000324249268,0,0
1991.710996,-0.986480712890625,0.005584716796875,0.053863525390625,0.15447998046875,0.06103515625,0.48828125,-0.06103515625,0.10888671875,0.0062255859375,0.99853515625,-28.0,69.0,-31.0,101946.0,-5.160000324249268,0,0
1991.717995,-0.986480712890625,0.005584716796875,0.05389404296875,0.15447998046875,-0.30517578125,0.3662109375,0.0,0.1107177734375,0.005126953125,0.999267578125,-28.0,69.0,-31.0,101946.0,-5.160000324249268,0,0
1991.725016,-0.986480712890625,0.005584716796875,0.053863525390625,0.15447998046875,0.06103515625,0.30517578125,-0.06103515625,0.1065673828125,0.006591796875,1.0018310546875,-28.0,69.0,-31.0,101946.0,-5.160000324249268,0,0
1991.732004,-0.986480712890625,0.005584716796875,0.053863525390625,0.15447998046875,-0.1220703125,0.244140625,0.1220703125,0.10791015625,0.0052490234375,1.001220703125,-28.0,69.0,-31.0,101946.0,-5.160000324249268,0,0
1991.739018,-0.986480712890625,0.005584716796875,0.05389404296875,0.15447998046875,-0.244140625,0.06103515625,0.06103515625,0.10986328125,0.0054931640625,1.0015869140625,-28.0,69.0,-31.0,101946.0,-5.160000324249268,0,0
1991.745998,-0.986480712890625,0.005584716796875,0.05389404296875,0.15447998046875,-0.18310546875,0.42724609375,0.1220703125,0.1082763671875,0.0064697265625,1.0015869140625,-28.0,69.0,-31.0,101946.0,-5.159000396728516,0,0
1991.752998,-0.986541748046875,0.005584716796875,0.053863525390625,0.154144287109375,0.0,0.1220703125,-0.1220703125,0.108154296875,0.0029296875,1.000732421875,-28.0,69.0,-31.0,101946.0,-5.159000396728516,0,0
1991.760018,-0.986541748046875,0.005584716796875,0.053863525390625,0.154144287109375,0.18310546875,0.18310546875,0.0,0.10888671875,0.0054931640625,0.9990234375,-28.0,69.0,-31.0,101946.0,-5.159000396728516,0,0
1991.767001,-0.986541748046875,0.005584716796875,0.05389404296875,0.154144287109375,0.0,0.18310546875,0.06103515625,0.1104736328125,0.0062255859375,0.9998779296875,-28.0,69.0,-31.0,101946.0,-5.159000396728516,0,0
1991.774018,-0.986541748046875,0.005584716796875,0.05389404296875,0.154144287109375,-0.1220703125,0.18310546875,-0.06103515625,0.110595703125,0.00537109375,1.001220703125,-28.0,69.0,-31.0,101946.0,-5.159000396728516,0,0
1991.780995,-0.986541748046875,0.005584716796875,0.05389404296875,0.154144287109375,0.0,0.244140625,0.06103515625,0.1090087890625,0.0050048828125,1.0010986328125,-28.0,69.0,-31.0,101946.0,-5.159000396728516,0,0
1991.800996,-0.986541748046875,0.005584716796875,0.05389404296875,0.154144287109375,-0.1220703125,0.30517578125,0.06103515625,0.10888671875,0.0054931640625,1.0010986328125,-28.0,69.0,-31.0,101946.0,-5.159000396728516,0,0
1991.807995,-0.986541748046875,0.005584716796875,0.05389404296875,0.154144287109375,0.0,0.3662109375,-0.18310546875,0.10986328125,0.0032958984375,0.9998779296875,-28.0,69.0,-31.0,101946.0,-5.159000396728516,0,0
1991.815016,-0.986541748046875,0.005584716796875,0.053924560546875,0.154144287109375,-0.18310546875,0.244140625,0.06103515625,0.1109619140625,0.005615234375,0.9984130859375,-28.0,69.0,-31.0,101946.0,-5.159000396728516,0,0
1991.822004,-0.986541748046875,0.005584716796875,0.053924560546875,0.154144287109375,-0.06103515625,0.06103515625,0.1220703125,0.1077880859375,0.00634765625,1.001220703125,-28.0,69.0,-31.0,101946.0,-5.159000396728516,0,0
1991.829018,-0.986541748046875,0.005584716796875,0.053924560546875,0.154144287109375,-0.06103515625,0.48828125,0.06103515625,0.109375,0.0064697265625,1.0020751953125,-28.0,69.0,-31.0,101946.0,-5.159000396728516,0,0
1991.835998,-0.986541748046875,0.005584716796875,0.053924560546875,0.154144287109375,0.06103515625,0.18310546875,0.18310546875,0.1075439453125,0.0048828125,1.000732421875,-28.0,69.0,-31.0,101946.0,-5.159000396728516,0,0
1991.842998,-0.986541748046875,0.005615234375,0.053924560546875,0.154144287109375,-0.18310546875,0.30517578125,-0.18310546875,0.11083984375,0.0059814453125,1.0001220703125,-29.0,69.0,-31.0,101946.0,-5.159000396728516,0,0
1991.850018,-0.986541748046875,0.005615234375,0.053924560546875,0.154144287109375,0.06103515625,0.48828125,0.18310546875,0.10888671875,0.004638671875,1.0018310546875,-29.0,69.0,-31.0,101946.0,-5.159000396728516,0,0
1991.857001,-0.986541748046875,0.005615234375,0.053924560546875,0.154144287109375,0.1220703125,0.244140625,0.0,0.1107177734375,0.0054931640625,0.9989013671875,-29.0,69.0,-31.0,101946.0,-5.159000396728516,0,0
1991.864018,-0.986541748046875,0.005615234375,0.053924560546875,0.154144287109375,-0.06103515625,0.3662109375,-0.1220703125,0.1104736328125,0.0040283203125,1.0008544921875,-29.0,69.0,-31.0,101946.0,-5.159000396728516,0,0
1991.88502,-0.986541748046875,0.005615234375,0.053924560546875,0.154144287109375,-0.18310546875,0.1220703125,0.18310546875,0.10888671875,0.00634765625,1.0009765625,-29.0,69.0,-31.0,101946.0,-5.159000396728516,0,0
1991.891052,-0.986541748046875,0.005615234375,0.053924560546875,0.154144287109375,-0.18310546875,0.1220703125,0.18310546875,0.10888671875,0.00634765625,1.0009765625,-29.0,69.0,-31.0,101946.0,-5.159000396728516,0,0
1991.897995,-0.986541748046875,0.005615234375,0.053924560546875,0.154144287109375,0.30517578125,0.244140625,-0.18310546875,0.1082763671875,0.0035400390625,0.9998779296875,-29.0,69.0,-31.0,101946.0,-5.159000396728516,0,0
1991.90502,-0.986541748046875,0.005615234375,0.053924560546875,0.154144287109375,-0.1220703125,0.18310546875,0.0,0.110107421875,0.00830078125,1.00146484375,-29.0,69.0,-31.0,101946.0,-5.159000396728516,0,0
1991.912004,-0.986541748046875,0.005615234375,0.053924560546875,0.154144287109375,0.0,0.1220703125,0.1220703125,0.10986328125,0.0047607421875,1.0003662109375,-29.0,69.0,-31.0,101946.0,-5.159000396728516,0,0
1991.919018,-0.986541748046875,0.005615234375,0.053924560546875,0.154144287109375,0.0,0.244140625,0.18310546875,0.10693359375,0.0042724609375,1.000244140625,-29.0,69.0,-31.0,101946.0,-5.159000396728516,0,0
1991.925998,-0.986541748046875,0.005615234375,0.053924560546875,0.154144287109375,-0.18310546875,0.48828125,0.06103515625,0.1075439453125,0.005859375,0.9986572265625,-29.0,69.0,-31.0,101946.0,-5.159000396728516,0,0
1991.932998,-0.986541748046875,0.005615234375,0.053924560546875,0.154144287109375,-0.06103515625,0.18310546875,-0.1220703125,0.108154296875,0.007080078125,1.0006103515625,-29.0,69.0,-31.0,101946.0,-5.159000396728516,0,0
1991.940018,-0.986541748046875,0.005615234375,0.053924560546875,0.154144287109375,-0.18310546875,0.3662109375,-0.06103515625,0.109130859375,0.005615234375,1.0009765625,-29.0,69.0,-31.0,101946.0,-5.159000396728516,0,0
1991.947001,-0.986480712890625,0.005615234375,0.053924560546875,0.15447998046875,0.30517578125,-0.06103515625,-0.06103515625,0.1072998046875,0.0074462890625,1.002197265625,-30.0,69.0,-30.0,101946.0,-5.159000396728516,0,0
1991.954019,-0.986480712890625,0.005615234375,0.053924560546875,0.15447998046875,-0.06103515625,0.3662109375,0.0,0.1090087890625,0.00732421875,1.0023193359375,-30.0,69.0,-30.0,101946.0,-5.159000396728516,0,0
1991.97502,-0.986480712890625,0.005615234375,0.053924560546875,0.15447998046875,0.0,0.3662109375,0.0,0.111328125,0.0050048828125,1.0001220703125,-30.0,69.0,-30.0,101946.0,-5.159000396728516,0,0
1991.981053,-0.986480712890625,0.005615234375,0.053924560546875,0.15447998046875,0.0,0.3662109375,0.0,0.111328125,0.0050048828125,1.0001220703125,-30.0,69.0,-30.0,101946.0,-5.159000396728516,0,0
1991.987996,-0.986480712890625,0.005584716796875,0.053924560546875,0.15447998046875,-0.1220703125,0.30517578125,-0.06103515625,0.1092529296875,0.0084228515625,0.998779296875,-30.0,69.0,-30.0,101946.0,-5.159000396728516,0,0
1991.99502,-0.986480712890625,0.005584716796875,0.053924560546875,0.15447998046875,0.0,0.3662109375,0.1220703125,0.1065673828125,0.006103515625,1.0015869140625,-30.0,69.0,-30.0,101946.0,-5.159000396728516,0,0
1992.002004,-0.986480712890625,0.005615234375,0.05389404296875,0.15447998046875,-0.30517578125,0.244140625,-0.244140625,0.1097412109375,0.0037841796875,1.001708984375,-30.0,69.0,-30.0,101946.0,-5.159000396728516,0,0
1992.009018,-0.986480712890625,0.005615234375,0.05389404296875,0.15447998046875,0.1220703125,0.30517578125,0.3662109375,0.10595703125,0.0029296875,0.9998779296875,-30.0,69.0,-30.0,101946.0,-5.159000396728516,0,0
1992.015998,-0.986480712890625,0.005615234375,0.05389404296875,0.15447998046875,0.0,0.244140625,0.30517578125,0.1083984375,0.005126953125,0.9991455078125,-30.0,69.0,-30.0,101946.0,-5.159000396728516,0,0
1992.022997,-0.986480712890625,0.005615234375,0.05389404296875,0.15447998046875,0.0,0.06103515625,-0.1220703125,0.1077880859375,0.006591796875,0.9993896484375,-30.0,69.0,-30.0,101946.0,-5.159000396728516,0,0
1992.030018,-0.986480712890625,0.005615234375,0.05389404296875,0.15447998046875,-0.1220703125,0.18310546875,0.06103515625,0.1085205078125,0.0067138671875,1.0,-30.0,69.0,-30.0,101946.0,-5.159000396728516,0,0
1992.037001,-0.986480712890625,0.005615234375,0.05389404296875,0.15447998046875,-0.06103515625,0.244140625,-0.06103515625,0.107666015625,0.004150390625,0.999755859375,-30.0,69.0,-30.0,101946.0,-5.159000396728516,0,0
1992.057996,-0.98638916015625,0.00567626953125,0.053863525390625,0.1551513671875,-0.18310546875,0.1220703125,-0.18310546875,0.1083984375,0.0025634765625,0.999755859375,-31.0,69.0,-31.0,101946.0,-5.159000396728516,0,0
1992.06502,-0.98638916015625,0.00567626953125,0.053863525390625,0.1551513671875,-0.1220703125,0.30517578125,-0.1220703125,0.108154296875,0.005615234375,1.000244140625,-31.0,69.0,-31.0,101946.0,-5.159000396728516,0,0
1992.071999,-0.98638916015625,0.00567626953125,0.053863525390625,0.1551513671875,0.0,0.244140625,-0.06103515625,0.1090087890625,0.005859375,1.0008544921875,-31.0,69.0,-31.0,101946.0,-5.159000396728516,0,0
1992.078031,-0.98638916015625,0.00567626953125,0.053863525390625,0.1551513671875,0.0,0.244140625,-0.06103515625,0.1090087890625,0.005859375,1.0008544921875,-31.0,69.0,-31.0,101946.0,-5.159000396728516,0,0
1992.085016,-0.98638916015625,0.00567626953125,0.05389404296875,0.1551513671875,-0.18310546875,0.30517578125,0.1220703125,0.1103515625,0.0035400390625,1.0001220703125,-31.0,69.0,-31.0,101946.0,-5.159000396728516,0,0
1992.092004,-0.98638916015625,0.00567626953125,0.05389404296875,0.1551513671875,-0.06103515625,0.3662109375,0.244140625,0.1077880859375,0.0047607421875,0.9998779296875,-31.0,69.0,-31.0,101946.0,-5.160000324249268,0,0
1992.099018,-0.98638916015625,0.00567626953125,0.053863525390625,0.1551513671875,0.06103515625,0.244140625,0.244140625,0.1087646484375,0.0040283203125,0.99951171875,-31.0,69.0,-31.0,101946.0,-5.160000324249268,0,0
1992.105998,-0.98638916015625,0.00567626953125,0.053863525390625,0.1551513671875,0.18310546875,0.3662109375,0.244140625,0.1097412109375,0.0052490234375,1.000244140625,-31.0,69.0,-31.0,101946.0,-5.160000324249268,0,0
1992.112997,-0.98638916015625,0.00567626953125,0.05389404296875,0.1551513671875,0.0,0.3662109375,0.0,0.110107421875,0.006591796875,0.9996337890625,-31.0,69.0,-31.0,101946.0,-5.160000324249268,0,0
1992.120018,-0.98638916015625,0.00567626953125,0.05389404296875,0.1551513671875,-0.1220703125,0.244140625,-0.1220703125,0.1083984375,0.00634765625,0.998779296875,-31.0,69.0,-31.0,101946.0,-5.160000324249268,0,0
1992.127001,-0.98638916015625,0.00567626953125,0.05389404296875,0.1551513671875,-0.18310546875,0.3662109375,0.244140625,0.1082763671875,0.0068359375,0.99951171875,-31.0,69.0,-31.0,101946.0,-5.160000324249268,0,0
1992.134018,-0.98638916015625,0.00567626953125,0.05389404296875,0.1551513671875,-0.244140625,0.42724609375,0.06103515625,0.1090087890625,0.005859375,1.0003662109375,-31.0,69.0,-31.0,101946.0,-5.160000324249268,0,0
1992.140995,-0.98638916015625,0.00567626953125,0.05389404296875,0.1551513671875,-0.30517578125,0.30517578125,-0.1220703125,0.1103515625,0.0054931640625,1.0006103515625,-31.0,69.0,-31.0,101946.0,-5.160000324249268,0,0
1992.147996,-0.986297607421875,0.005706787109375,0.05389404296875,0.155792236328125,-0.1220703125,0.06103515625,-0.1220703125,0.109619140625,0.0035400390625,1.0009765625,-31.0,70.0,-32.0,101946.0,-5.160000324249268,0,0
1992.15502,-0.986297607421875,0.005706787109375,0.05389404296875,0.155792236328125,0.0,0.18310546875,-0.18310546875,0.10693359375,0.0032958984375,1.0001220703125,-31.0,70.0,-32.0,101946.0,-5.160000324249268,0,0
1992.161999,-0.986297607421875,0.0057373046875,0.05389404296875,0.155792236328125,0.06103515625,0.30517578125,0.0,0.10888671875,0.005126953125,0.9986572265625,-31.0,70.0,-32.0,101946.0,-5.160000324249268,0,0
1992.168031,-0.986297607421875,0.0057373046875,0.05389404296875,0.155792236328125,0.06103515625,0.30517578125,0.0,0.10888671875,0.005126953125,0.9986572265625,-31.0,70.0,-32.0,101946.0,-5.160000324249268,0,0
1992.175016,-0.986297607421875,0.005706787109375,0.05389404296875,0.155792236328125,0.06103515625,0.3662109375,-0.06103515625,0.1080322265625,0.0062255859375,0.999755859375,-31.0,70.0,-32.0,101946.0,-5.160000324249268,0,0
1992.182004,-0.986297607421875,0.005706787109375,0.05389404296875,0.155792236328125,0.18310546875,0.18310546875,-0.1220703125,0.108154296875,0.0057373046875,1.0001220703125,-31.0,70.0,-32.0,101946.0,-5.160000324249268,0,0
1992.189019,-0.986297607421875,0.0057373046875,0.05389404296875,0.155792236328125,-0.06103515625,0.244140625,0.06103515625,0.1087646484375,0.0042724609375,1.00048828125,-31.0,70.0,-32.0,101946.0,-5.160000324249268,0,0
1992.195998,-0.986297607421875,0.0057373046875,0.05389404296875,0.155792236328125,0.06103515625,0.1220703125,0.06103515625,0.1087646484375,0.0045166015625,0.999755859375,-31.0,70.0,-32.0,101946.0,-5.160000324249268,0,0
1992.202998,-0.986297607421875,0.0057373046875,0.05389404296875,0.155792236328125,-0.1220703125,0.06103515625,0.244140625,0.1083984375,0.0029296875,1.000244140625,-31.0,70.0,-32.0,101946.0,-5.160000324249268,0,0
1992.210018,-0.986297607421875,0.0057373046875,0.05389404296875,0.155792236328125,-0.18310546875,0.1220703125,0.1220703125,0.10888671875,0.0048828125,1.000732421875,-31.0,70.0,-32.0,101946.0,-5.160000324249268,0,0
1992.217001,-0.986297607421875,0.0057373046875,0.053863525390625,0.155792236328125,0.06103515625,0.42724609375,0.0,0.107421875,0.00537109375,1.000244140625,-31.0,70.0,-32.0,101946.0,-5.160000324249268,0,0
1992.238,-0.986297607421875,0.005767822265625,0.05389404296875,0.155792236328125,0.06103515625,0.1220703125,-0.06103515625,0.11083984375,0.005615234375,0.99951171875,-31.0,70.0,-32.0,101946.0,-5.160000324249268,0,0
1992.24502,-0.986297607421875,0.005767822265625,0.05389404296875,0.155792236328125,0.0,0.18310546875,0.0,0.110107421875,0.0052490234375,1.0003662109375,-29.0,70.0,-33.0,101946.0,-5.160000324249268,0,0
1992.251999,-0.986297607421875,0.005767822265625,0.05389404296875,0.155792236328125,-0.18310546875,0.06103515625,-0.1220703125,0.1070556640625,0.0074462890625,1.0001220703125,-29.0,70.0,-33.0,101946.0,-5.160000324249268,0,0
1992.259016,-0.986297607421875,0.005767822265625,0.05389404296875,0.155792236328125,-0.42724609375,0.30517578125,0.0,0.10595703125,0.0035400390625,0.998046875,-29.0,70.0,-33.0,101946.0,-5.160000324249268,0,0
1992.265051,-0.986297607421875,0.005767822265625,0.05389404296875,0.155792236328125,-0.42724609375,0.30517578125,0.0,0.10595703125,0.0035400390625,0.998046875,-29.0,70.0,-33.0,101946.0,-5.160000324249268,0,0
1992.272004,-0.986297607421875,0.005767822265625,0.05389404296875,0.155792236328125,0.06103515625,0.30517578125,-0.1220703125,0.1080322265625,0.0040283203125,1.0009765625,-29.0,70.0,-33.0,101946.0,-5.160000324249268,0,0
1992.279018,-0.986297607421875,0.005767822265625,0.053863525390625,0.155792236328125,0.18310546875,0.30517578125,-0.06103515625,0.1092529296875,0.005615234375,0.99951171875,-29.0,70.0,-33.0,101946.0,-5.160000324249268,0,0
1992.285998,-0.986297607421875,0.005767822265625,0.053863525390625,0.155792236328125,-0.1220703125,0.18310546875,-0.1220703125,0.1083984375,0.0064697265625,0.9984130859375,-29.0,70.0,-33.0,101946.0,-5.160000324249268,0,0
1992.292998,-0.986297607421875,0.005767822265625,0.053863525390625,0.155792236328125,-0.18310546875,0.30517578125,-0.06103515625,0.1090087890625,0.004150390625,0.9990234375,-29.0,70.0,-33.0,101946.0,-5.160000324249268,0,0
1992.300018,-0.986297607421875,0.005767822265625,0.053863525390625,0.155792236328125,0.06103515625,0.18310546875,0.0,0.107666015625,0.0048828125,1.0015869140625,-29.0,70.0,-33.0,101946.0,-5.160000324249268,0,0
1992.320995,-0.986297607421875,0.005767822265625,0.053863525390625,0.155792236328125,0.0,0.244140625,-0.06103515625,0.10986328125,0.005126953125,1.0015869140625,-29.0,70.0,-33.0,101946.0,-5.160000324249268,0,0
1992.327995,-0.986297607421875,0.005767822265625,0.053863525390625,0.155792236328125,0.06103515625,0.30517578125,0.06103515625,0.109130859375,0.0048828125,1.000732421875,-29.0,70.0,-33.0,101946.0,-5.160000324249268,0,0
1992.33502,-0.986297607421875,0.005767822265625,0.053863525390625,0.155792236328125,0.18310546875,0.1220703125,0.0,0.109375,0.004150390625,0.998779296875,-29.0,70.0,-33.0,101946.0,-5.160000324249268,0,0
1992.341999,-0.986297607421875,0.005767822265625,0.053863525390625,0.155792236328125,0.06103515625,0.244140625,-0.1220703125,0.10986328125,0.0074462890625,0.9981689453125,-29.0,70.0,-33.0,101946.0,-5.160000324249268,0,0
1992.349016,-0.986297607421875,0.005767822265625,0.053863525390625,0.155792236328125,-0.06103515625,0.06103515625,0.244140625,0.1082763671875,0.0052490234375,1.0,-29.0,69.0,-34.0,101946.0,-5.160000324249268,0,0
1992.355047,-0.986297607421875,0.005767822265625,0.053863525390625,0.155792236328125,-0.06103515625,0.06103515625,0.244140625,0.1082763671875,0.0052490234375,1.0,-29.0,69.0,-34.0,101946.0,-5.160000324249268,0,0
1992.362004,-0.986297607421875,0.005767822265625,0.05389404296875,0.155792236328125,-0.1220703125,0.1220703125,0.0,0.1072998046875,0.0052490234375,1.0006103515625,-29.0,69.0,-34.0,101946.0,-5.160000324249268,0,0
1992.369018,-0.986297607421875,0.005767822265625,0.05389404296875,0.155792236328125,0.06103515625,0.18310546875,0.06103515625,0.111328125,0.0048828125,0.9986572265625,-29.0,69.0,-34.0,101946.0,-5.160000324249268,0,0
1992.375998,-0.986297607421875,0.005767822265625,0.05389404296875,0.155792236328125,0.1220703125,0.42724609375,-0.06103515625,0.1082763671875,0.0064697265625,0.9986572265625,-29.0,69.0,-34.0,101946.0,-5.160000324249268,0,0
1992.382997,-0.986297607421875,0.005767822265625,0.05389404296875,0.155792236328125,-0.244140625,0.30517578125,0.06103515625,0.1077880859375,0.00341796875,0.9986572265625,-29.0,69.0,-34.0,101946.0,-5.160000324249268,0,0
1992.390018,-0.986297607421875,0.005767822265625,0.05389404296875,0.155792236328125,-0.06103515625,0.18310546875,0.18310546875,0.1080322265625,0.00537109375,0.99853515625,-29.0,69.0,-34.0,101946.0,-5.1610002517700195,0,0
1992.397001,-0.986297607421875,0.005767822265625,0.05389404296875,0.155792236328125,0.244140625,0.06103515625,0.0,0.10791015625,0.0062255859375,0.9991455078125,-29.0,69.0,-34.0,101946.0,-5.1610002517700195,0,0
1992.404018,-0.986297607421875,0.0057373046875,0.05389404296875,0.155792236328125,-0.244140625,0.1220703125,-0.06103515625,0.1043701171875,0.009033203125,0.9998779296875,-29.0,69.0,-34.0,101946.0,-5.1610002517700195,0,0
1992.410995,-0.986297607421875,0.0057373046875,0.05389404296875,0.155792236328125,-0.06103515625,0.1220703125,-0.1220703125,0.1082763671875,0.0067138671875,0.9986572265625,-29.0,69.0,-34.0,101946.0,-5.1610002517700195,0,0
1992.417995,-0.986297607421875,0.0057373046875,0.05389404296875,0.155792236328125,0.06103515625,0.42724609375,0.0,0.108642578125,0.005615234375,0.998779296875,-29.0,69.0,-34.0,101946.0,-5.1610002517700195,0,0
1992.42502,-0.986297607421875,0.0057373046875,0.05389404296875,0.155792236328125,-0.06103515625,0.30517578125,0.0,0.1103515625,0.0074462890625,0.9984130859375,-29.0,69.0,-34.0,101946.0,-5.1610002517700195,0,0
1992.431999,-0.986297607421875,0.0057373046875,0.05389404296875,0.155792236328125,-0.244140625,0.18310546875,-0.18310546875,0.107177734375,0.0074462890625,0.9981689453125,-29.0,69.0,-34.0,101946.0,-5.1610002517700195,0,0
1992.439016,-0.986297607421875,0.0057373046875,0.05389404296875,0.155792236328125,-0.06103515625,0.30517578125,0.0,0.1099853515625,0.004150390625,0.9990234375,-29.0,69.0,-34.0,101946.0,-5.1610002517700195,0,0
1992.445998,-0.986297607421875,0.0057373046875,0.05389404296875,0.155792236328125,0.1220703125,0.3662109375,0.0,0.109375,0.005615234375,1.0001220703125,-29.0,70.0,-33.0,101946.0,-5.1610002517700195,0,0
1992.45203,-0.986297607421875,0.0057373046875,0.05389404296875,0.155792236328125,0.1220703125,0.3662109375,0.0,0.109375,0.005615234375,1.0001220703125,-29.0,70.0,-33.0,101946.0,-5.1610002517700195,0,0
1992.459018,-0.986297607421875,0.0057373046875,0.053863525390625,0.155792236328125,0.18310546875,0.30517578125,0.0,0.1085205078125,0.0040283203125,0.99951171875,-29.0,70.0,-33.0,101946.0,-5.1610002517700195,0,0
1992.465998,-0.986297607421875,0.0057373046875,0.053863525390625,0.155792236328125,0.06103515625,0.244140625,0.18310546875,0.1063232421875,0.006591796875,0.9990234375,-29.0,70.0,-33.0,101946.0,-5.1610002517700195,0,0
1992.472997,-0.986297607421875,0.0057373046875,0.053863525390625,0.155792236328125,0.0,0.1220703125,0.18310546875,0.108154296875,0.004638671875,0.9969482421875,-29.0,70.0,-33.0,101946.0,-5.1610002517700195,0,0
1992.494018,-0.986297607421875,0.005767822265625,0.053863525390625,0.155792236328125,-0.06103515625,0.30517578125,0.0,0.1082763671875,0.0029296875,0.998779296875,-29.0,70.0,-33.0,101946.0,-5.1610002517700195,0,0
1992.500995,-0.986297607421875,0.005767822265625,0.053863525390625,0.155792236328125,0.30517578125,0.48828125,0.06103515625,0.10888671875,0.0045166015625,0.9984130859375,-29.0,70.0,-33.0,101946.0,-5.1610002517700195,0,0
1992.508,-0.986297607421875,0.005767822265625,0.053863525390625,0.155792236328125,0.0,0.3662109375,-0.18310546875,0.111083984375,0.0052490234375,0.9979248046875,-29.0,70.0,-33.0,101946.0,-5.1610002517700195,0,0
1992.51502,-0.986297607421875,0.005767822265625,0.053863525390625,0.155792236328125,0.0,0.06103515625,0.0,0.1080322265625,0.00439453125,0.9990234375,-29.0,70.0,-33.0,101946.0,-5.1610002517700195,0,0
1992.521999,-0.986297607421875,0.005767822265625,0.053863525390625,0.155792236328125,-0.244140625,0.30517578125,0.06103515625,0.1077880859375,0.004638671875,0.9990234375,-29.0,70.0,-33.0,101946.0,-5.1610002517700195,0,0
1992.529016,-0.986297607421875,0.005767822265625,0.053863525390625,0.155792236328125,-0.1220703125,0.18310546875,-0.1220703125,0.1097412109375,0.0054931640625,1.000732421875,-29.0,70.0,-33.0,101946.0,-5.1610002517700195,0,0
1992.535998,-0.986297607421875,0.005767822265625,0.053863525390625,0.155792236328125,0.0,0.18310546875,-0.1220703125,0.1082763671875,0.0037841796875,0.9964599609375,-29.0,70.0,-33.0,101946.0,-5.1610002517700195,0,0
1992.542031,-0.986297607421875,0.005767822265625,0.053863525390625,0.155792236328125,0.0,0.18310546875,-0.1220703125,0.1082763671875,0.0037841796875,0.9964599609375,-29.0,70.0,-33.0,101946.0,-5.1610002517700195,0,0
1992.549019,-0.986297607421875,0.005767822265625,0.0538330078125,0.155792236328125,-0.18310546875,0.1220703125,0.06103515625,0.1080322265625,0.00390625,0.9991455078125,-29.0,69.0,-33.0,101946.0,-5.1610002517700195,0,0
1992.555998,-0.986297607421875,0.005767822265625,0.0538330078125,0.155792236328125,0.0,0.1220703125,-0.06103515625,0.1103515625,0.0054931640625,0.9990234375,-29.0,69.0,-33.0,101946.0,-5.1610002517700195,0,0
1992.562998,-0.986297607421875,0.005767822265625,0.053863525390625,0.155792236328125,-0.1220703125,0.06103515625,0.244140625,0.10986328125,0.0072021484375,0.999755859375,-29.0,69.0,-33.0,101946.0,-5.1610002517700195,0,0
1992.584018,-0.986297607421875,0.005767822265625,0.0538330078125,0.155792236328125,0.0,0.244140625,0.1220703125,0.107177734375,0.003173828125,0.9976806640625,-29.0,69.0,-33.0,101946.0,-5.1610002517700195,0,0
1992.590996,-0.986297607421875,0.005767822265625,0.0538330078125,0.155792236328125,-0.1220703125,0.30517578125,0.18310546875,0.110595703125,0.0045166015625,1.0010986328125,-29.0,69.0,-33.0,101946.0,-5.1610002517700195,0,0
1992.598,-0.986297607421875,0.005767822265625,0.053863525390625,0.155792236328125,-0.1220703125,0.06103515625,0.06103515625,0.1092529296875,0.006591796875,0.9991455078125,-29.0,69.0,-33.0,101946.0,-5.1610002517700195,0,0
1992.60502,-0.986297607421875,0.005767822265625,0.0538330078125,0.155792236328125,0.18310546875,0.48828125,0.0,0.109130859375,0.0030517578125,1.000244140625,-29.0,69.0,-33.0,101946.0,-5.1610002517700195,0,0
1992.611999,-0.986297607421875,0.005767822265625,0.0538330078125,0.155792236328125,-0.18310546875,0.3662109375,0.18310546875,0.107666015625,0.006103515625,0.9996337890625,-29.0,69.0,-33.0,101946.0,-5.1610002517700195,0,0
1992.619016,-0.986297607421875,0.005767822265625,0.053863525390625,0.155792236328125,-0.244140625,0.18310546875,-0.06103515625,0.1103515625,0.0054931640625,0.9976806640625,-29.0,69.0,-33.0,101946.0,-5.1610002517700195,0,0
1992.625998,-0.986297607421875,0.005767822265625,0.053863525390625,0.155792236328125,0.18310546875,0.18310546875,0.0,0.1090087890625,0.004638671875,0.9959716796875,-29.0,69.0,-33.0,101946.0,-5.1610002517700195,0,0
1992.632997,-0.986297607421875,0.005767822265625,0.053863525390625,0.155792236328125,-0.18310546875,0.06103515625,0.06103515625,0.107177734375,0.007568359375,0.99853515625,-29.0,69.0,-33.0,101946.0,-5.1610002517700195,0,0
1992.639025,-0.986297607421875,0.005767822265625,0.053863525390625,0.155792236328125,-0.18310546875,0.06103515625,0.06103515625,0.107177734375,0.007568359375,0.99853515625,-29.0,69.0,-33.0,101946.0,-5.1610002517700195,0,0
1992.645998,-0.986297607421875,0.005767822265625,0.053863525390625,0.155792236328125,-0.06103515625,0.18310546875,0.0,0.107666015625,0.0068359375,1.000244140625,-30.0,68.0,-34.0,101946.0,-5.1610002517700195,0,0
1992.652997,-0.986236572265625,0.005767822265625,0.053863525390625,0.1561279296875,-0.06103515625,0.244140625,-0.06103515625,0.109375,0.0069580078125,0.998291015625,-30.0,68.0,-34.0,101946.0,-5.1610002517700195,0,0
1992.660018,-0.986236572265625,0.005767822265625,0.053863525390625,0.1561279296875,0.0,0.0,0.1220703125,0.110107421875,0.007568359375,1.0001220703125,-30.0,68.0,-34.0,101946.0,-5.1610002517700195,0,0
1992.667001,-0.986236572265625,0.005767822265625,0.05389404296875,0.1561279296875,0.0,0.0,0.1220703125,0.108642578125,0.004150390625,0.997314453125,-30.0,68.0,-34.0,101946.0,-5.1610002517700195,0,0
1992.674018,-0.986236572265625,0.005767822265625,0.05389404296875,0.1561279296875,0.1220703125,0.06103515625,0.18310546875,0.109375,0.00439453125,0.9993896484375,-30.0,68.0,-34.0,101946.0,-5.1610002517700195,0,0
1992.680995,-0.986236572265625,0.005767822265625,0.05389404296875,0.1561279296875,-0.06103515625,0.244140625,0.06103515625,0.1080322265625,0.0079345703125,0.9984130859375,-30.0,68.0,-34.0,101946.0,-5.1610002517700195,0,0
1992.687995,-0.986236572265625,0.005767822265625,0.05389404296875,0.1561279296875,0.06103515625,0.30517578125,0.0,0.1087646484375,0.0037841796875,0.9986572265625,-30.0,68.0,-34.0,101946.0,-5.1610002517700195,0,0
1992.69502,-0.986236572265625,0.005767822265625,0.05389404296875,0.1561279296875,-0.1220703125,0.30517578125,-0.06103515625,0.1112060546875,0.0042724609375,0.9976806640625,-30.0,68.0,-34.0,101946.0,-5.160000324249268,0,0
1992.701999,-0.986236572265625,0.005767822265625,0.05389404296875,0.1561279296875,-0.1220703125,0.18310546875,0.0,0.1104736328125,0.0057373046875,0.9971923828125,-30.0,68.0,-34.0,101946.0,-5.160000324249268,0,0
1992.709016,-0.986236572265625,0.005767822265625,0.05389404296875,0.1561279296875,-0.1220703125,0.244140625,0.0,0.107666015625,0.007080078125,0.998291015625,-30.0,68.0,-34.0,101946.0,-5.160000324249268,0,0
1992.715998,-0.986236572265625,0.005767822265625,0.05389404296875,0.1561279296875,0.06103515625,0.3662109375,0.06103515625,0.108154296875,0.0042724609375,0.999755859375,-30.0,68.0,-34.0,101946.0,-5.160000324249268,0,0
1992.722997,-0.986236572265625,0.005767822265625,0.05389404296875,0.1561279296875,-0.30517578125,0.244140625,0.0,0.109619140625,0.0067138671875,0.998046875,-30.0,68.0,-34.0,101946.0,-5.160000324249268,0,0
1992.729025,-0.986236572265625,0.005767822265625,0.05389404296875,0.1561279296875,-0.30517578125,0.244140625,0.0,0.109619140625,0.0067138671875,0.998046875,-30.0,68.0,-34.0,101946.0,-5.160000324249268,0,0
1992.735998,-0.986236572265625,0.005767822265625,0.05389404296875,0.1561279296875,0.244140625,0.244140625,-0.06103515625,0.1080322265625,0.0050048828125,0.998779296875,-30.0,68.0,-34.0,101946.0,-5.160000324249268,0,0
1992.757001,-0.986114501953125,0.00579833984375,0.05389404296875,0.15679931640625,0.06103515625,0.244140625,-0.06103515625,0.1070556640625,0.005859375,0.99951171875,-31.0,69.0,-33.0,101946.0,-5.160000324249268,0,0
1992.764018,-0.986114501953125,0.00579833984375,0.05389404296875,0.15679931640625,0.1220703125,0.1220703125,0.18310546875,0.109130859375,0.0068359375,1.0001220703125,-31.0,69.0,-33.0,101946.0,-5.160000324249268,0,0
1992.770995,-0.986114501953125,0.00579833984375,0.05389404296875,0.15679931640625,-0.1220703125,0.244140625,-0.06103515625,0.1090087890625,0.006591796875,0.9990234375,-31.0,69.0,-33.0,101946.0,-5.160000324249268,0,0
1992.777995,-0.986114501953125,0.00579833984375,0.05389404296875,0.15679931640625,-0.06103515625,0.18310546875,-0.06103515625,0.108154296875,0.0054931640625,0.999267578125,-31.0,69.0,-33.0,101946.0,-5.160000324249268,0,0
1992.78502,-0.986114501953125,0.00579833984375,0.05389404296875,0.15679931640625,0.06103515625,0.6103515625,0.0,0.10986328125,0.0057373046875,0.9969482421875,-31.0,69.0,-33.0,101946.0,-5.160000324249268,0,0
1992.791999,-0.986114501953125,0.00579833984375,0.05389404296875,0.15679931640625,0.0,0.30517578125,0.0,0.108154296875,0.0040283203125,1.00048828125,-31.0,69.0,-33.0,101946.0,-5.160000324249268,0,0
1992.799016,-0.986114501953125,0.00579833984375,0.05389404296875,0.15679931640625,0.06103515625,0.1220703125,0.18310546875,0.1082763671875,0.008544921875,0.998046875,-31.0,69.0,-33.0,101946.0,-5.160000324249268,0,0
1992.805998,-0.986114501953125,0.005767822265625,0.05389404296875,0.15679931640625,-0.244140625,0.3662109375,0.1220703125,0.1092529296875,0.005126953125,0.9976806640625,-31.0,69.0,-33.0,101946.0,-5.160000324249268,0,0
1992.812997,-0.986114501953125,0.005767822265625,0.05389404296875,0.15679931640625,-0.1220703125,0.244140625,-0.06103515625,0.1103515625,0.0087890625,0.9971923828125,-31.0,69.0,-33.0,101946.0,-5.160000324249268,0,0
1992.81903,-0.986114501953125,0.005767822265625,0.05389404296875,0.15679931640625,-0.1220703125,0.244140625,-0.06103515625,0.1103515625,0.0087890625,0.9971923828125,-31.0,69.0,-33.0,101946.0,-5.160000324249268,0,0
1992.825998,-0.986114501953125,0.005767822265625,0.05389404296875,0.15679931640625,0.0,0.42724609375,0.0,0.1060791015625,0.00439453125,1.0003662109375,-31.0,69.0,-33.0,101946.0,-5.160000324249268,0,0
1992.847001,-0.986083984375,0.00579833984375,0.05389404296875,0.157135009765625,0.06103515625,0.06103515625,0.1220703125,0.1068115234375,0.0067138671875,1.00048828125,-30.0,68.0,-34.0,101946.0,-5.160000324249268,0,0
1992.854018,-0.986083984375,0.00579833984375,0.05389404296875,0.157135009765625,-0.06103515625,0.18310546875,-0.06103515625,0.1085205078125,0.005859375,0.99853515625,-30.0,68.0,-34.0,101946.0,-5.160000324249268,0,0
1992.860996,-0.986083984375,0.005767822265625,0.053863525390625,0.157135009765625,-0.18310546875,0.244140625,0.244140625,0.107421875,0.00537109375,0.9964599609375,-30.0,68.0,-34.0,101946.0,-5.160000324249268,0,0
1992.868,-0.986083984375,0.005767822265625,0.053863525390625,0.157135009765625,0.0,0.18310546875,0.30517578125,0.1077880859375,0.0062255859375,0.9989013671875,-30.0,68.0,-34.0,101946.0,-5.160000324249268,0,0
1992.87502,-0.986083984375,0.005767822265625,0.053863525390625,0.157135009765625,-0.18310546875,0.1220703125,-0.06103515625,0.10888671875,0.0067138671875,0.9974365234375,-30.0,68.0,-34.0,101946.0,-5.160000324249268,0,0
1992.881999,-0.986083984375,0.005767822265625,0.053863525390625,0.157135009765625,0.06103515625,0.244140625,-0.1220703125,0.1070556640625,0.00537109375,0.9989013671875,-30.0,68.0,-34.0,101946.0,-5.160000324249268,0,0
1992.889016,-0.986083984375,0.005767822265625,0.053863525390625,0.157135009765625,0.0,0.30517578125,-0.1220703125,0.1099853515625,0.0047607421875,0.9962158203125,-30.0,68.0,-34.0,101946.0,-5.160000324249268,0,0
1992.895998,-0.986083984375,0.005767822265625,0.053863525390625,0.157135009765625,0.0,0.1220703125,-0.18310546875,0.1058349609375,0.00341796875,0.99853515625,-30.0,68.0,-34.0,101946.0,-5.1610002517700195,0,0
1992.902997,-0.986083984375,0.005767822265625,0.053863525390625,0.157135009765625,0.244140625,0.42724609375,0.06103515625,0.1104736328125,0.0052490234375,0.9976806640625,-30.0,68.0,-34.0,101946.0,-5.1610002517700195,0,0
1992.910022,-0.986083984375,0.00579833984375,0.053863525390625,0.157135009765625,0.18310546875,0.244140625,-0.1220703125,0.109619140625,0.0047607421875,0.998779296875,-30.0,68.0,-34.0,101946.0,-5.1610002517700195,0,0
1992.91605,-0.986083984375,0.00579833984375,0.053863525390625,0.157135009765625,0.18310546875,0.244140625,-0.1220703125,0.109619140625,0.0047607421875,0.998779296875,-30.0,68.0,-34.0,101946.0,-5.1610002517700195,0,0
1992.922997,-0.986083984375,0.005767822265625,0.053863525390625,0.157135009765625,0.1220703125,0.42724609375,-0.06103515625,0.1087646484375,0.0062255859375,0.99951171875,-30.0,68.0,-34.0,101946.0,-5.1610002517700195,0,0
1992.930018,-0.986083984375,0.005767822265625,0.05389404296875,0.157135009765625,-0.06103515625,0.30517578125,-0.06103515625,0.1090087890625,0.0069580078125,0.9986572265625,-30.0,68.0,-34.0,101946.0,-5.1610002517700195,0,0
1992.937001,-0.986083984375,0.005767822265625,0.053863525390625,0.157135009765625,0.06103515625,0.30517578125,0.0,0.1085205078125,0.002685546875,0.9981689453125,-30.0,68.0,-34.0,101946.0,-5.1610002517700195,0,0
1992.944018,-0.986114501953125,0.005767822265625,0.05389404296875,0.15679931640625,-0.1220703125,0.3662109375,0.1220703125,0.1070556640625,0.0067138671875,0.9996337890625,-28.0,68.0,-33.0,101946.0,-5.1610002517700195,0,0
1992.950995,-0.986114501953125,0.005767822265625,0.05389404296875,0.15679931640625,-0.06103515625,0.244140625,-0.06103515625,0.1077880859375,0.0047607421875,0.99853515625,-28.0,68.0,-33.0,101946.0,-5.1610002517700195,0,0
