Time stamp(sec),adc1,adc2,roll_angular_rate,pitch_angular_rate,yaw_angular_rate,acc_X,acc_Y,acc_Z,mag_X,mag_Y,mag_Z,pressure,altitude
0.04505639999115374,0.3717041015625,-0.451416015625,0.312103271484375,-0.74871826171875,0.244140625,-0.1220703125,0.0,0.443359375,-0.803466796875,0.39599609375,-297.0,149.0,-147.0,101693.0,-3.067000150680542,0,0
0.04512789999716915,0.3717041015625,-0.451416015625,0.312103271484375,-0.74871826171875,0.06103515625,-0.06103515625,0.1220703125,0.4415283203125,-0.8016357421875,0.3961181640625,-297.0,149.0,-147.0,101693.0,-3.067000150680542,0,0
0.04518359999929089,0.3717041015625,-0.451416015625,0.312103271484375,-0.74871826171875,-0.18310546875,-0.244140625,-0.18310546875,0.4461669921875,-0.8026123046875,0.3970947265625,-297.0,149.0,-147.0,101693.0,-3.067000150680542,0,0
0.045238599996082485,0.3717041015625,-0.451446533203125,0.312103271484375,-0.74871826171875,0.1220703125,-0.06103515625,-0.30517578125,0.4439697265625,-0.803466796875,0.395751953125,-297.0,149.0,-147.0,101693.0,-3.067000150680542,0,0
0.0452930000028573,0.3717041015625,-0.451446533203125,0.312103271484375,-0.74871826171875,0.1220703125,-0.06103515625,-0.30517578125,0.4439697265625,-0.803466796875,0.395751953125,-297.0,149.0,-147.0,101693.0,-3.067000150680542,0,0
0.0453469999920344,0.3717041015625,-0.451446533203125,0.312103271484375,-0.74871826171875,0.1220703125,-0.06103515625,-0.30517578125,0.4439697265625,-0.803466796875,0.395751953125,-297.0,149.0,-147.0,101693.0,-3.067000150680542,0,0
0.04574819999106694,0.3717041015625,-0.451446533203125,0.312103271484375,-0.74871826171875,-0.06103515625,0.0,0.0,0.443359375,-0.80078125,0.39697265625,-297.0,149.0,-147.0,101693.0,-3.067000150680542,0,0
0.04580870000063442,0.3717041015625,-0.451446533203125,0.312103271484375,-0.74871826171875,0.06103515625,0.0,-0.1220703125,0.4444580078125,-0.8017578125,0.396240234375,-297.0,149.0,-147.0,101693.0,-3.067000150680542,0,0
0.045862999992095865,0.3717041015625,-0.451446533203125,0.312103271484375,-0.74871826171875,0.1220703125,0.06103515625,0.06103515625,0.4422607421875,-0.80322265625,0.395263671875,-297.0,149.0,-147.0,101693.0,-3.067000150680542,0,0
0.0459160000027623,0.3717041015625,-0.451446533203125,0.3121337890625,-0.748687744140625,-0.1220703125,0.06103515625,-0.1220703125,0.44384765625,-0.802978515625,0.3966064453125,-297.0,149.0,-147.0,101693.0,-3.067000150680542,0,0
0.04596839999430813,0.3717041015625,-0.451446533203125,0.3121337890625,-0.748687744140625,0.30517578125,0.0,-0.06103515625,0.442138671875,-0.8018798828125,0.3961181640625,-297.0,149.0,-147.0,101693.0,-3.067000150680542,0,0
0.046021699992707,0.3717041015625,-0.451446533203125,0.3121337890625,-0.748687744140625,-0.18310546875,-0.1220703125,-0.1220703125,0.444580078125,-0.8033447265625,0.3948974609375,-297.0,149.0,-147.0,101693.0,-3.067000150680542,0,0
0.04607309999119025,0.3717041015625,-0.451446533203125,0.3121337890625,-0.748687744140625,0.3662109375,-0.06103515625,-0.18310546875,0.4442138671875,-0.800537109375,0.3961181640625,-297.0,149.0,-147.0,101693.0,-3.067000150680542,0,0
0.10995009999896865,0.3717041015625,-0.45147705078125,0.3121337890625,-0.748687744140625,-0.1220703125,-0.3662109375,-0.18310546875,0.4439697265625,-0.801025390625,0.3966064453125,-297.0,149.0,-147.0,101693.0,-3.065000057220459,0,0
0.11001409999153111,0.3717041015625,-0.45147705078125,0.3121337890625,-0.748687744140625,-0.06103515625,0.0,0.1220703125,0.4444580078125,-0.8028564453125,0.3944091796875,-297.0,149.0,-147.0,101693.0,-3.065000057220459,0,0
0.1100702999974601,0.3717041015625,-0.45147705078125,0.3121337890625,-0.748687744140625,0.1220703125,-0.1220703125,-0.1220703125,0.444091796875,-0.8009033203125,0.39599609375,-297.0,149.0,-147.0,101693.0,-3.065000057220459,0,0
0.11012379999738187,0.3717041015625,-0.45147705078125,0.3121337890625,-0.748687744140625,-0.18310546875,-0.06103515625,0.18310546875,0.4443359375,-0.802978515625,0.3953857421875,-298.0,149.0,-147.0,101693.0,-3.065000057220459,0,0
0.11017820000415668,0.371978759765625,-0.45159912109375,0.31195068359375,-0.74853515625,-0.1220703125,0.1220703125,0.06103515625,0.445068359375,-0.80419921875,0.39501953125,-298.0,149.0,-147.0,101693.0,-3.065000057220459,0,0
0.11030929999833461,0.371978759765625,-0.45159912109375,0.31195068359375,-0.74853515625,-0.06103515625,0.06103515625,-0.06103515625,0.44384765625,-0.8026123046875,0.394775390625,-298.0,149.0,-147.0,101693.0,-3.065000057220459,0,0
0.11036379999131896,0.371978759765625,-0.451629638671875,0.31195068359375,-0.74853515625,0.0,-0.06103515625,-0.18310546875,0.4449462890625,-0.8026123046875,0.3951416015625,-298.0,149.0,-147.0,101693.0,-3.065000057220459,0,0
0.11041769999428652,0.371978759765625,-0.451629638671875,0.31195068359375,-0.74853515625,0.18310546875,0.0,-0.1220703125,0.44580078125,-0.80322265625,0.39794921875,-298.0,149.0,-147.0,101693.0,-3.065000057220459,0,0
0.1104707999911625,0.371978759765625,-0.451629638671875,0.31195068359375,-0.74853515625,-0.1220703125,0.06103515625,0.06103515625,0.4437255859375,-0.8043212890625,0.3956298828125,-298.0,149.0,-147.0,101693.0,-3.065000057220459,0,0
0.11052390000259038,0.371978759765625,-0.451629638671875,0.31195068359375,-0.74853515625,-0.1220703125,0.06103515625,0.06103515625,0.4437255859375,-0.8043212890625,0.3956298828125,-298.0,149.0,-147.0,101693.0,-3.065000057220459,0,0
0.110576699997182,0.371978759765625,-0.451629638671875,0.31195068359375,-0.748504638671875,0.18310546875,0.06103515625,0.0,0.44580078125,-0.80322265625,0.3946533203125,-298.0,149.0,-147.0,101693.0,-3.065000057220459,0,0
0.17486129999451805,0.371978759765625,-0.45166015625,0.311981201171875,-0.748504638671875,-0.30517578125,-0.06103515625,-0.18310546875,0.4453125,-0.8035888671875,0.395263671875,-298.0,149.0,-147.0,101693.0,-3.065000057220459,0,0
0.1749303999968106,0.3719482421875,-0.45166015625,0.311981201171875,-0.748504638671875,-0.30517578125,-0.06103515625,-0.18310546875,0.4453125,-0.8035888671875,0.395263671875,-298.0,149.0,-147.0,101693.0,-3.065000057220459,0,0
0.17498589999740943,0.3719482421875,-0.45166015625,0.311981201171875,-0.748504638671875,-0.30517578125,-0.1220703125,-0.1220703125,0.4432373046875,-0.8035888671875,0.39599609375,-298.0,149.0,-147.0,101693.0,-3.065000057220459,0,0
0.17504139999800827,0.3719482421875,-0.45166015625,0.311981201171875,-0.748504638671875,0.18310546875,-0.06103515625,-0.06103515625,0.4444580078125,-0.803466796875,0.3956298828125,-298.0,149.0,-147.0,101693.0,-3.065000057220459,0,0
0.17509649999556132,0.3719482421875,-0.451690673828125,0.311981201171875,-0.748504638671875,-0.18310546875,0.06103515625,-0.06103515625,0.444580078125,-0.8040771484375,0.3935546875,-298.0,149.0,-147.0,101693.0,-3.065000057220459,0,0
0.17613900000287686,0.3719482421875,-0.451690673828125,0.311981201171875,-0.74847412109375,0.3662109375,-0.06103515625,-0.18310546875,0.44384765625,-0.8028564453125,0.39501953125,-298.0,149.0,-147.0,101693.0,-3.065000057220459,0,0
0.17619420000119135,0.3719482421875,-0.451690673828125,0.311981201171875,-0.74847412109375,0.3662109375,-0.06103515625,-0.18310546875,0.44384765625,-0.8028564453125,0.39501953125,-298.0,149.0,-147.0,101693.0,-3.065000057220459,0,0
0.17624760000035167,0.3719482421875,-0.451690673828125,0.31201171875,-0.74847412109375,-0.244140625,-0.06103515625,-0.06103515625,0.4447021484375,-0.802978515625,0.39453125,-298.0,149.0,-147.0,101693.0,-3.06600022315979,0,0
0.17630279999866616,0.3719482421875,-0.451690673828125,0.31201171875,-0.74847412109375,0.30517578125,0.1220703125,-0.18310546875,0.443359375,-0.803955078125,0.3953857421875,-298.0,149.0,-147.0,101693.0,-3.06600022315979,0,0
0.17635449999943376,0.3719482421875,-0.451690673828125,0.31201171875,-0.74847412109375,-0.06103515625,-0.18310546875,-0.1220703125,0.4410400390625,-0.8028564453125,0.3956298828125,-298.0,149.0,-147.0,101693.0,-3.06600022315979,0,0
0.17640640000172425,0.3719482421875,-0.451690673828125,0.31201171875,-0.74847412109375,-0.244140625,-0.06103515625,-0.06103515625,0.4439697265625,-0.8031005859375,0.3963623046875,-298.0,149.0,-147.0,101693.0,-3.06600022315979,0,0
0.23579059999610763,0.37225341796875,-0.451812744140625,0.311859130859375,-0.748321533203125,0.0,0.06103515625,-0.06103515625,0.44140625,-0.80224609375,0.3948974609375,-297.0,150.0,-146.0,101693.0,-3.06600022315979,0,0
0.23585630000161473,0.37225341796875,-0.451812744140625,0.311859130859375,-0.748321533203125,-0.1220703125,-0.06103515625,-0.06103515625,0.4432373046875,-0.8016357421875,0.39599609375,-297.0,150.0,-146.0,101693.0,-3.06600022315979,0,0
0.23591360000136774,0.37225341796875,-0.45184326171875,0.311859130859375,-0.748321533203125,0.3662109375,0.0,-0.06103515625,0.4453125,-0.8011474609375,0.3958740234375,-297.0,150.0,-146.0,101693.0,-3.06600022315979,0,0
0.23596639999595936,0.37225341796875,-0.45184326171875,0.311859130859375,-0.748321533203125,0.1220703125,0.0,0.0,0.4422607421875,-0.8023681640625,0.394775390625,-297.0,150.0,-146.0,101693.0,-3.06600022315979,0,0
0.23601999999664258,0.37225341796875,-0.45184326171875,0.311859130859375,-0.748321533203125,0.1220703125,0.0,0.0,0.4422607421875,-0.8023681640625,0.394775390625,-297.0,150.0,-146.0,101693.0,-3.06600022315979,0,0
0.23607220000121742,0.37225341796875,-0.45184326171875,0.311859130859375,-0.748291015625,0.18310546875,0.244140625,-0.1220703125,0.4454345703125,-0.8038330078125,0.3956298828125,-297.0,150.0,-146.0,101693.0,-3.06600022315979,0,0
0.23612380000122357,0.37225341796875,-0.45184326171875,0.311859130859375,-0.748291015625,0.18310546875,0.244140625,-0.1220703125,0.4454345703125,-0.8038330078125,0.3956298828125,-297.0,150.0,-146.0,101693.0,-3.06600022315979,0,0
0.23813280000467785,0.372222900390625,-0.451873779296875,0.311859130859375,-0.748291015625,-0.06103515625,-0.06103515625,-0.06103515625,0.4423828125,-0.8021240234375,0.3951416015625,-297.0,150.0,-146.0,101693.0,-3.06600022315979,0,0
0.23819550000189338,0.372222900390625,-0.451873779296875,0.311859130859375,-0.748291015625,0.30517578125,0.1220703125,0.06103515625,0.44580078125,-0.8033447265625,0.3958740234375,-297.0,150.0,-146.0,101693.0,-3.06600022315979,0,0
0.2382519999955548,0.372222900390625,-0.451873779296875,0.311859130859375,-0.748291015625,-0.18310546875,-0.18310546875,-0.06103515625,0.4444580078125,-0.8016357421875,0.3975830078125,-297.0,150.0,-146.0,101693.0,-3.06600022315979,0,0
0.23830650000309106,0.372222900390625,-0.451873779296875,0.311859130859375,-0.748291015625,0.06103515625,0.18310546875,-0.06103515625,0.4429931640625,-0.80419921875,0.3948974609375,-297.0,150.0,-146.0,101693.0,-3.06600022315979,0,0
0.23836370000208262,0.372222900390625,-0.451873779296875,0.311859130859375,-0.748291015625,0.06103515625,-0.1220703125,-0.244140625,0.4442138671875,-0.8043212890625,0.3956298828125,-297.0,150.0,-146.0,101693.0,-3.06600022315979,0,0
0.2384167999989586,0.372222900390625,-0.451873779296875,0.311859130859375,-0.748291015625,-0.18310546875,0.06103515625,-0.18310546875,0.442138671875,-0.802490234375,0.39404296875,-297.0,150.0,-146.0,101693.0,-3.06600022315979,0,0
0.3030541999905836,0.372222900390625,-0.451873779296875,0.3118896484375,-0.748291015625,0.18310546875,-0.1220703125,-0.244140625,0.4432373046875,-0.803466796875,0.3958740234375,-297.0,150.0,-146.0,101693.0,-3.06600022315979,0,0
0.3031168000015896,0.372222900390625,-0.451873779296875,0.3118896484375,-0.748291015625,0.1220703125,0.0,-0.18310546875,0.4432373046875,-0.80224609375,0.3958740234375,-297.0,150.0,-146.0,101693.0,-3.064000129699707,0,0
0.30317240000294987,0.372222900390625,-0.451904296875,0.3118896484375,-0.748291015625,-0.1220703125,0.0,-0.18310546875,0.44482421875,-0.8045654296875,0.396240234375,-297.0,150.0,-146.0,101693.0,-3.064000129699707,0,0
0.30322679999517277,0.372222900390625,-0.451904296875,0.3118896484375,-0.748291015625,-0.06103515625,-0.1220703125,-0.1220703125,0.44384765625,-0.8013916015625,0.396240234375,-297.0,150.0,-146.0,101693.0,-3.064000129699707,0,0
0.30328110000118613,0.372222900390625,-0.451904296875,0.3118896484375,-0.748260498046875,0.18310546875,0.06103515625,0.0,0.4429931640625,-0.8013916015625,0.39404296875,-297.0,150.0,-146.0,101693.0,-3.064000129699707,0,0
0.3033512999973027,0.372222900390625,-0.451904296875,0.3118896484375,-0.748260498046875,-0.06103515625,0.06103515625,0.0,0.4444580078125,-0.802001953125,0.3935546875,-298.0,149.0,-145.0,101693.0,-3.064000129699707,0,0
0.3034047999972245,0.37261962890625,-0.45208740234375,0.3116455078125,-0.748077392578125,0.1220703125,-0.3662109375,0.18310546875,0.443359375,-0.8037109375,0.393798828125,-298.0,149.0,-145.0,101693.0,-3.064000129699707,0,0
0.3034572000033222,0.37261962890625,-0.45208740234375,0.3116455078125,-0.748077392578125,0.0,-0.06103515625,0.244140625,0.4439697265625,-0.8026123046875,0.3941650390625,-298.0,149.0,-145.0,101693.0,-3.064000129699707,0,0
0.30350900000485126,0.37261962890625,-0.45208740234375,0.3116455078125,-0.748077392578125,0.0,-0.06103515625,0.244140625,0.4439697265625,-0.8026123046875,0.3941650390625,-298.0,149.0,-145.0,101693.0,-3.064000129699707,0,0
0.30355989999952726,0.37261962890625,-0.45208740234375,0.3116455078125,-0.748077392578125,-0.244140625,-0.06103515625,-0.244140625,0.441650390625,-0.8011474609375,0.3961181640625,-298.0,149.0,-145.0,101693.0,-3.064000129699707,0,0
0.30491769999207463,0.37261962890625,-0.45208740234375,0.3116455078125,-0.748077392578125,0.244140625,-0.3662109375,-0.42724609375,0.44482421875,-0.801025390625,0.3939208984375,-298.0,149.0,-145.0,101693.0,-3.064000129699707,0,0
0.36475809999683406,0.372589111328125,-0.452117919921875,0.311676025390625,-0.748046875,0.42724609375,0.30517578125,0.244140625,0.447265625,-0.8043212890625,0.3956298828125,-298.0,149.0,-145.0,101693.0,-3.064000129699707,0,0
0.36481909999565687,0.372589111328125,-0.452117919921875,0.311676025390625,-0.748046875,-0.1220703125,0.0,0.30517578125,0.445556640625,-0.8072509765625,0.39501953125,-298.0,149.0,-145.0,101693.0,-3.064000129699707,0,0
0.36487380000471603,0.372589111328125,-0.452117919921875,0.311676025390625,-0.748046875,-0.06103515625,-0.1220703125,0.42724609375,0.4451904296875,-0.8046875,0.39697265625,-298.0,149.0,-145.0,101693.0,-3.064000129699707,0,0
0.36492799999541603,0.372589111328125,-0.452117919921875,0.311676025390625,-0.748046875,-0.06103515625,0.06103515625,0.1220703125,0.445068359375,-0.8038330078125,0.397216796875,-298.0,149.0,-145.0,101693.0,-3.064000129699707,0,0
0.3649807000037981,0.372589111328125,-0.452117919921875,0.311676025390625,-0.748046875,-0.244140625,-0.244140625,-0.30517578125,0.4423828125,-0.80224609375,0.3973388671875,-298.0,149.0,-145.0,101693.0,-3.064000129699707,0,0
0.3660669999953825,0.372589111328125,-0.452117919921875,0.311676025390625,-0.748046875,-0.244140625,-0.244140625,-0.30517578125,0.4423828125,-0.80224609375,0.3973388671875,-298.0,149.0,-145.0,101693.0,-3.064000129699707,0,0
0.36612599999352824,0.372589111328125,-0.452117919921875,0.311676025390625,-0.748046875,-0.1220703125,-0.06103515625,-0.3662109375,0.444580078125,-0.802001953125,0.3924560546875,-298.0,149.0,-145.0,101693.0,-3.064000129699707,0,0
0.36642310000024736,0.372589111328125,-0.452117919921875,0.311676025390625,-0.748046875,0.0,-0.06103515625,-0.3662109375,0.444580078125,-0.80126953125,0.39501953125,-298.0,149.0,-145.0,101693.0,-3.064000129699707,0,0
0.36648670000431594,0.372589111328125,-0.452117919921875,0.31170654296875,-0.748016357421875,-0.3662109375,0.18310546875,-0.30517578125,0.4429931640625,-0.8023681640625,0.39404296875,-298.0,149.0,-145.0,101693.0,-3.064000129699707,0,0
0.3665416000003461,0.372589111328125,-0.4521484375,0.31170654296875,-0.748016357421875,0.244140625,0.1220703125,0.0,0.44287109375,-0.802001953125,0.393310546875,-298.0,149.0,-145.0,101693.0,-3.064000129699707,0,0
0.3666123000002699,0.372589111328125,-0.4521484375,0.31170654296875,-0.748016357421875,0.30517578125,0.06103515625,-0.06103515625,0.4432373046875,-0.80419921875,0.394775390625,-298.0,149.0,-145.0,101693.0,-3.064000129699707,0,0
0.4413019999919925,0.372589111328125,-0.4521484375,0.31170654296875,-0.748016357421875,0.1220703125,0.3662109375,0.1220703125,0.4437255859375,-0.804931640625,0.3958740234375,-298.0,149.0,-145.0,101693.0,-3.064000129699707,0,0
0.44143969999277033,0.372589111328125,-0.4521484375,0.31170654296875,-0.748016357421875,0.18310546875,-0.06103515625,0.244140625,0.4451904296875,-0.802001953125,0.3958740234375,-298.0,149.0,-145.0,101693.0,-3.064000129699707,0,0
0.44156350000412203,0.372802734375,-0.45220947265625,0.31158447265625,-0.7479248046875,-0.06103515625,0.1220703125,-0.06103515625,0.4434814453125,-0.8028564453125,0.3956298828125,-297.0,150.0,-147.0,101693.0,-3.064000129699707,0,0
0.4416877000039676,0.372802734375,-0.45220947265625,0.31158447265625,-0.7479248046875,-0.06103515625,0.1220703125,-0.06103515625,0.4434814453125,-0.8028564453125,0.3956298828125,-297.0,150.0,-147.0,101693.0,-3.064000129699707,0,0
0.441809199997806,0.372802734375,-0.452239990234375,0.311614990234375,-0.747894287109375,0.0,0.0,0.18310546875,0.443603515625,-0.8067626953125,0.395263671875,-297.0,150.0,-147.0,101693.0,-3.064000129699707,0,0
0.4419281000009505,0.372802734375,-0.452239990234375,0.311614990234375,-0.747894287109375,-0.06103515625,0.06103515625,-0.06103515625,0.44189453125,-0.8017578125,0.393310546875,-297.0,150.0,-147.0,101693.0,-3.064000129699707,0,0
0.4420469000033336,0.372802734375,-0.452239990234375,0.311614990234375,-0.747894287109375,0.1220703125,-0.06103515625,-0.30517578125,0.442138671875,-0.803466796875,0.3946533203125,-297.0,150.0,-147.0,101693.0,-3.064000129699707,0,0
0.44235090000438504,0.372802734375,-0.452239990234375,0.311614990234375,-0.747894287109375,0.18310546875,-0.06103515625,-0.3662109375,0.4422607421875,-0.8013916015625,0.395751953125,-297.0,150.0,-147.0,101693.0,-3.064000129699707,0,0
0.44248489999154117,0.372802734375,-0.452239990234375,0.311614990234375,-0.747894287109375,0.1220703125,-0.06103515625,-0.06103515625,0.44384765625,-0.802734375,0.39599609375,-297.0,150.0,-147.0,101693.0,-3.065000057220459,0,0
0.44261070000356995,0.372802734375,-0.452239990234375,0.311614990234375,-0.747894287109375,0.1220703125,-0.1220703125,-0.3662109375,0.4427490234375,-0.8040771484375,0.3963623046875,-297.0,150.0,-147.0,101693.0,-3.065000057220459,0,0
0.4427333999919938,0.372802734375,-0.452239990234375,0.3116455078125,-0.747894287109375,-0.06103515625,0.06103515625,-0.18310546875,0.4405517578125,-0.802490234375,0.3961181640625,-297.0,150.0,-147.0,101693.0,-3.065000057220459,0,0
0.44285049999598414,0.372802734375,-0.452239990234375,0.3116455078125,-0.747894287109375,0.1220703125,-0.244140625,-0.06103515625,0.4437255859375,-0.8006591796875,0.395751953125,-297.0,150.0,-147.0,101693.0,-3.065000057220459,0,0
0.44296749999921303,0.372802734375,-0.452239990234375,0.3116455078125,-0.747894287109375,-0.06103515625,-0.06103515625,0.06103515625,0.4432373046875,-0.7999267578125,0.3934326171875,-297.0,150.0,-147.0,101693.0,-3.065000057220459,0,0
0.49789319999399595,0.372772216796875,-0.4522705078125,0.3116455078125,-0.74786376953125,0.06103515625,-0.06103515625,0.1220703125,0.44482421875,-0.80224609375,0.39404296875,-297.0,150.0,-147.0,101693.0,-3.065000057220459,0,0
0.4979735999950208,0.372772216796875,-0.4522705078125,0.3116455078125,-0.74786376953125,0.18310546875,-0.06103515625,0.06103515625,0.4432373046875,-0.8021240234375,0.3948974609375,-297.0,150.0,-147.0,101693.0,-3.065000057220459,0,0
0.4980386999959592,0.372772216796875,-0.4522705078125,0.3116455078125,-0.74786376953125,0.3662109375,0.1220703125,0.244140625,0.4454345703125,-0.803466796875,0.3961181640625,-297.0,150.0,-147.0,101693.0,-3.065000057220459,0,0
0.49810349999461323,0.372772216796875,-0.4522705078125,0.3116455078125,-0.74786376953125,-0.1220703125,0.1220703125,0.244140625,0.4453125,-0.803955078125,0.3955078125,-297.0,150.0,-147.0,101693.0,-3.065000057220459,0,0
0.49816590000409633,0.372772216796875,-0.4522705078125,0.3116455078125,-0.74786376953125,-0.06103515625,0.06103515625,0.0,0.444091796875,-0.80322265625,0.3953857421875,-297.0,150.0,-147.0,101693.0,-3.065000057220459,0,0
0.49824919999809936,0.372772216796875,-0.4522705078125,0.3116455078125,-0.74786376953125,0.244140625,0.1220703125,0.1220703125,0.4439697265625,-0.8031005859375,0.395751953125,-297.0,150.0,-147.0,101693.0,-3.065000057220459,0,0
0.4983107000007294,0.372772216796875,-0.4522705078125,0.3116455078125,-0.74786376953125,0.0,0.0,-0.18310546875,0.44482421875,-0.804931640625,0.396240234375,-297.0,150.0,-147.0,101693.0,-3.065000057220459,0,0
0.4983705999911763,0.372772216796875,-0.4522705078125,0.3116455078125,-0.74786376953125,0.0,0.0,-0.18310546875,0.44482421875,-0.804931640625,0.396240234375,-297.0,150.0,-147.0,101693.0,-3.065000057220459,0,0
0.49843049999617506,0.37298583984375,-0.452362060546875,0.3115234375,-0.747772216796875,0.18310546875,-0.06103515625,-0.244140625,0.4420166015625,-0.7998046875,0.3941650390625,-296.0,150.0,-146.0,101693.0,-3.065000057220459,0,0
0.4984900999988895,0.37298583984375,-0.452362060546875,0.3115234375,-0.747772216796875,-0.06103515625,-0.18310546875,-0.3662109375,0.445068359375,-0.8023681640625,0.3948974609375,-296.0,150.0,-146.0,101693.0,-3.065000057220459,0,0
0.4985496000008425,0.37298583984375,-0.452362060546875,0.311553955078125,-0.74774169921875,-0.06103515625,-0.18310546875,-0.1220703125,0.4453125,-0.8045654296875,0.394287109375,-296.0,150.0,-146.0,101693.0,-3.065000057220459,0,0
0.5548471999936737,0.37298583984375,-0.452362060546875,0.311553955078125,-0.74774169921875,0.42724609375,0.0,-0.1220703125,0.440185546875,-0.80126953125,0.3931884765625,-296.0,150.0,-146.0,101693.0,-3.064000129699707,0,0
0.5549259999970673,0.37298583984375,-0.452362060546875,0.311553955078125,-0.74774169921875,0.06103515625,0.06103515625,0.1220703125,0.4417724609375,-0.802490234375,0.39501953125,-296.0,150.0,-146.0,101693.0,-3.064000129699707,0,0
0.554990499993437,0.37298583984375,-0.452362060546875,0.311553955078125,-0.74774169921875,-0.06103515625,0.0,-0.18310546875,0.4443359375,-0.803955078125,0.39404296875,-296.0,150.0,-146.0,101693.0,-3.064000129699707,0,0
0.5550510000030044,0.37298583984375,-0.452392578125,0.311553955078125,-0.74774169921875,0.0,0.0,-0.1220703125,0.4422607421875,-0.8013916015625,0.392578125,-296.0,150.0,-146.0,101693.0,-3.064000129699707,0,0
0.5552075000014156,0.37298583984375,-0.452392578125,0.311553955078125,-0.74774169921875,0.0,0.0,-0.1220703125,0.4422607421875,-0.8013916015625,0.392578125,-296.0,150.0,-146.0,101693.0,-3.064000129699707,0,0
0.5566945000027772,0.37298583984375,-0.452392578125,0.311553955078125,-0.74774169921875,-0.1220703125,0.18310546875,0.06103515625,0.443359375,-0.8009033203125,0.3935546875,-296.0,150.0,-146.0,101693.0,-3.064000129699707,0,0
0.5567639999935636,0.37298583984375,-0.452392578125,0.31158447265625,-0.74774169921875,0.06103515625,0.18310546875,0.06103515625,0.4439697265625,-0.8017578125,0.3929443359375,-296.0,150.0,-146.0,101693.0,-3.064000129699707,0,0
0.5568274999968708,0.372955322265625,-0.452423095703125,0.311553955078125,-0.747711181640625,0.1220703125,0.06103515625,0.1220703125,0.4451904296875,-0.8026123046875,0.3956298828125,-296.0,150.0,-146.0,101693.0,-3.064000129699707,0,0
0.5568910000001779,0.372955322265625,-0.452423095703125,0.311553955078125,-0.747711181640625,0.3662109375,-0.1220703125,0.0,0.4443359375,-0.8031005859375,0.3953857421875,-296.0,150.0,-146.0,101693.0,-3.064000129699707,0,0
0.5569520999997621,0.372955322265625,-0.452423095703125,0.311553955078125,-0.747711181640625,0.06103515625,-0.06103515625,0.0,0.4437255859375,-0.8017578125,0.395751953125,-296.0,150.0,-146.0,101693.0,-3.064000129699707,0,0
0.5571706999908201,0.372955322265625,-0.452423095703125,0.311553955078125,-0.747711181640625,0.244140625,0.06103515625,-0.06103515625,0.443359375,-0.8023681640625,0.3963623046875,-296.0,150.0,-146.0,101693.0,-3.064000129699707,0,0
0.6180059000034817,0.372955322265625,-0.452423095703125,0.31158447265625,-0.747711181640625,0.06103515625,-0.30517578125,0.0,0.4443359375,-0.8026123046875,0.3941650390625,-296.0,150.0,-146.0,101693.0,-3.064000129699707,0,0
0.6180738999973983,0.372955322265625,-0.452423095703125,0.31158447265625,-0.747711181640625,-0.1220703125,-0.06103515625,-0.244140625,0.445068359375,-0.8031005859375,0.3953857421875,-296.0,150.0,-146.0,101693.0,-3.064000129699707,0,0
0.6181324999924982,0.372955322265625,-0.452423095703125,0.31158447265625,-0.747711181640625,-0.1220703125,-0.06103515625,-0.244140625,0.445068359375,-0.8031005859375,0.3953857421875,-296.0,150.0,-146.0,101693.0,-3.064000129699707,0,0
0.6182035999954678,0.373046875,-0.45245361328125,0.311492919921875,-0.7476806640625,0.3662109375,0.06103515625,-0.3662109375,0.44482421875,-0.8001708984375,0.3955078125,-295.0,149.0,-146.0,101693.0,-3.064000129699707,0,0
0.6182764999975916,0.373046875,-0.45245361328125,0.311492919921875,-0.7476806640625,0.0,0.18310546875,0.18310546875,0.443115234375,-0.80322265625,0.3948974609375,-295.0,149.0,-146.0,101693.0,-3.064000129699707,0,0
0.618332800004282,0.373046875,-0.45245361328125,0.311492919921875,-0.7476806640625,0.0,0.0,0.18310546875,0.44384765625,-0.802490234375,0.3975830078125,-295.0,149.0,-146.0,101693.0,-3.064000129699707,0,0
0.6184740000026068,0.373046875,-0.45245361328125,0.311492919921875,-0.7476806640625,0.1220703125,-0.244140625,0.244140625,0.4456787109375,-0.801025390625,0.397216796875,-295.0,149.0,-146.0,101693.0,-3.064000129699707,0,0
0.6187957999936771,0.373046875,-0.45245361328125,0.311492919921875,-0.7476806640625,-0.06103515625,0.0,0.1220703125,0.4434814453125,-0.802734375,0.3968505859375,-295.0,149.0,-146.0,101693.0,-3.064000129699707,0,0
0.6189103999931831,0.373046875,-0.45245361328125,0.311492919921875,-0.7476806640625,0.18310546875,-0.18310546875,-0.18310546875,0.44384765625,-0.8021240234375,0.395751953125,-295.0,149.0,-146.0,101693.0,-3.064000129699707,0,0
0.6189696999936132,0.373046875,-0.452484130859375,0.311492919921875,-0.7476806640625,-0.18310546875,-0.1220703125,-0.18310546875,0.44482421875,-0.8017578125,0.3961181640625,-295.0,149.0,-146.0,101693.0,-3.065000057220459,0,0
0.6192029999947408,0.373046875,-0.452484130859375,0.311492919921875,-0.7476806640625,-0.244140625,0.0,-0.18310546875,0.4442138671875,-0.8031005859375,0.3936767578125,-295.0,149.0,-146.0,101693.0,-3.065000057220459,0,0
0.6192689000017708,0.373046875,-0.452484130859375,0.311492919921875,-0.7476806640625,-0.244140625,0.0,-0.18310546875,0.4442138671875,-0.8031005859375,0.3936767578125,-295.0,149.0,-146.0,101693.0,-3.065000057220459,0,0
0.6193975999922259,0.373046875,-0.452484130859375,0.311492919921875,-0.7476806640625,-0.06103515625,-0.1220703125,-0.18310546875,0.44287109375,-0.8017578125,0.3948974609375,-295.0,149.0,-146.0,101693.0,-3.065000057220459,0,0
0.6859398999949917,0.373046875,-0.452484130859375,0.3115234375,-0.747650146484375,0.244140625,0.0,-0.06103515625,0.4447021484375,-0.8021240234375,0.3941650390625,-295.0,149.0,-146.0,101693.0,-3.065000057220459,0,0
0.6860081999911927,0.373046875,-0.452484130859375,0.3115234375,-0.747650146484375,-0.30517578125,0.0,0.1220703125,0.4434814453125,-0.8046875,0.3956298828125,-295.0,149.0,-146.0,101693.0,-3.065000057220459,0,0
0.6860690000030445,0.373046875,-0.452484130859375,0.3115234375,-0.747650146484375,-0.06103515625,-0.06103515625,0.0,0.443359375,-0.8026123046875,0.3961181640625,-295.0,149.0,-146.0,101693.0,-3.065000057220459,0,0
0.6861291999957757,0.373046875,-0.452484130859375,0.3115234375,-0.747650146484375,0.1220703125,-0.06103515625,0.06103515625,0.443359375,-0.802978515625,0.3941650390625,-295.0,149.0,-146.0,101693.0,-3.065000057220459,0,0
0.6861874000023818,0.373046875,-0.452484130859375,0.3115234375,-0.747650146484375,0.244140625,-0.1220703125,0.0,0.4434814453125,-0.8021240234375,0.39404296875,-295.0,149.0,-146.0,101693.0,-3.065000057220459,0,0
0.6866256999928737,0.373046875,-0.4525146484375,0.3115234375,-0.747650146484375,0.244140625,-0.06103515625,-0.06103515625,0.44384765625,-0.80126953125,0.3941650390625,-295.0,149.0,-146.0,101693.0,-3.065000057220459,0,0
0.686682200001087,0.373046875,-0.4525146484375,0.3115234375,-0.747650146484375,0.244140625,-0.06103515625,-0.06103515625,0.44384765625,-0.80126953125,0.3941650390625,-295.0,149.0,-146.0,101693.0,-3.065000057220459,0,0
0.686738599993987,0.373046875,-0.4525146484375,0.3115234375,-0.747650146484375,0.0,-0.1220703125,-0.1220703125,0.446044921875,-0.802001953125,0.3961181640625,-295.0,149.0,-146.0,101693.0,-3.065000057220459,0,0
0.6867943999968702,0.373046875,-0.4525146484375,0.3115234375,-0.747650146484375,0.1220703125,-0.1220703125,-0.244140625,0.4437255859375,-0.8031005859375,0.3953857421875,-294.0,148.0,-146.0,101693.0,-3.065000057220459,0,0
0.6868497999967076,0.373046875,-0.4525146484375,0.3115234375,-0.747650146484375,0.1220703125,0.06103515625,-0.18310546875,0.4447021484375,-0.8021240234375,0.3953857421875,-294.0,148.0,-146.0,101693.0,-3.065000057220459,0,0
0.6869058000011137,0.373046875,-0.4525146484375,0.3115234375,-0.747650146484375,0.1220703125,-0.06103515625,-0.18310546875,0.4442138671875,-0.8031005859375,0.3953857421875,-294.0,148.0,-146.0,101693.0,-3.065000057220459,0,0
0.7471882999961963,0.373016357421875,-0.4525146484375,0.3115234375,-0.747650146484375,-0.1220703125,-0.06103515625,-0.3662109375,0.4453125,-0.8028564453125,0.395263671875,-294.0,148.0,-146.0,101693.0,-3.065000057220459,0,0
0.7472542000032263,0.373016357421875,-0.4525146484375,0.3115234375,-0.747650146484375,0.06103515625,0.18310546875,-0.3662109375,0.4415283203125,-0.79931640625,0.394287109375,-294.0,148.0,-146.0,101693.0,-3.065000057220459,0,0
0.7473106999968877,0.373016357421875,-0.4525146484375,0.3115234375,-0.747650146484375,0.06103515625,0.18310546875,-0.3662109375,0.4415283203125,-0.79931640625,0.394287109375,-294.0,148.0,-146.0,101693.0,-3.065000057220459,0,0
0.7473633999907179,0.373016357421875,-0.4525146484375,0.3115234375,-0.747650146484375,0.18310546875,0.0,-0.244140625,0.443115234375,-0.8021240234375,0.39404296875,-294.0,148.0,-146.0,101693.0,-3.065000057220459,0,0
0.7474155999952927,0.373016357421875,-0.4525146484375,0.3115234375,-0.747650146484375,-0.1220703125,-0.18310546875,-0.06103515625,0.4443359375,-0.8026123046875,0.396484375,-294.0,148.0,-146.0,101693.0,-3.065000057220459,0,0
0.748170899998513,0.373016357421875,-0.4525146484375,0.3115234375,-0.747650146484375,0.244140625,0.06103515625,0.0,0.4434814453125,-0.8037109375,0.3941650390625,-294.0,148.0,-146.0,101693.0,-3.065000057220459,0,0
0.748227100004442,0.373016357421875,-0.452545166015625,0.3115234375,-0.747650146484375,0.18310546875,0.06103515625,-0.244140625,0.4443359375,-0.8026123046875,0.39453125,-294.0,148.0,-146.0,101693.0,-3.065000057220459,0,0
0.7482794999959879,0.373016357421875,-0.452545166015625,0.3115234375,-0.747650146484375,-0.1220703125,0.06103515625,-0.06103515625,0.445556640625,-0.801513671875,0.39794921875,-294.0,148.0,-146.0,101693.0,-3.065000057220459,0,0
0.7483341999904951,0.373016357421875,-0.452545166015625,0.3115234375,-0.747650146484375,0.06103515625,-0.1220703125,-0.06103515625,0.4432373046875,-0.8016357421875,0.3941650390625,-294.0,148.0,-146.0,101693.0,-3.065000057220459,0,0
0.7483868999988772,0.373016357421875,-0.452545166015625,0.3115234375,-0.747650146484375,0.06103515625,0.0,0.1220703125,0.4442138671875,-0.80322265625,0.3948974609375,-294.0,148.0,-146.0,101693.0,-3.065000057220459,0,0
0.748439100003452,0.373016357421875,-0.452545166015625,0.3115234375,-0.747650146484375,0.06103515625,0.0,0.1220703125,0.442626953125,-0.8023681640625,0.395751953125,-294.0,148.0,-146.0,101693.0,-3.065000057220459,0,0
0.7484938999987207,0.373016357421875,-0.452545166015625,0.3115234375,-0.747650146484375,-0.06103515625,0.06103515625,0.0,0.443359375,-0.8026123046875,0.39697265625,-294.0,148.0,-146.0,101693.0,-3.065000057220459,0,0
0.8142760999908205,0.373016357421875,-0.452545166015625,0.3115234375,-0.747650146484375,-0.06103515625,0.06103515625,0.0,0.443359375,-0.8026123046875,0.39697265625,-294.0,148.0,-146.0,101693.0,-3.065000057220459,0,0
0.8143437999970047,0.373016357421875,-0.452545166015625,0.3115234375,-0.747650146484375,0.1220703125,0.06103515625,-0.244140625,0.44482421875,-0.802734375,0.39599609375,-294.0,148.0,-146.0,101693.0,-3.065000057220459,0,0
0.814488199990592,0.373016357421875,-0.452545166015625,0.3115234375,-0.747650146484375,0.0,-0.1220703125,0.06103515625,0.444091796875,-0.8023681640625,0.3961181640625,-294.0,148.0,-146.0,101693.0,-3.065000057220459,0,0
0.8145511000038823,0.373016357421875,-0.452545166015625,0.3115234375,-0.747650146484375,0.1220703125,-0.18310546875,-0.18310546875,0.4443359375,-0.8011474609375,0.3944091796875,-294.0,148.0,-146.0,101693.0,-3.065000057220459,0,0
0.8182543000002624,0.373016357421875,-0.452545166015625,0.311492919921875,-0.747650146484375,0.1220703125,-0.18310546875,-0.18310546875,0.4443359375,-0.8011474609375,0.3944091796875,-294.0,150.0,-147.0,101693.0,-3.065000057220459,0,0
0.8183865000028163,0.373016357421875,-0.452545166015625,0.311492919921875,-0.747650146484375,-0.18310546875,-0.18310546875,-0.06103515625,0.445556640625,-0.80078125,0.3944091796875,-294.0,150.0,-147.0,101693.0,-3.065000057220459,0,0
0.8185424999974202,0.37298583984375,-0.45257568359375,0.311492919921875,-0.747650146484375,0.18310546875,-0.1220703125,-0.244140625,0.4453125,-0.802734375,0.3956298828125,-294.0,150.0,-147.0,101693.0,-3.065000057220459,0,0
0.8186068999930285,0.37298583984375,-0.452545166015625,0.311492919921875,-0.747650146484375,0.30517578125,-0.06103515625,0.0,0.44482421875,-0.8021240234375,0.393310546875,-294.0,150.0,-147.0,101693.0,-3.065000057220459,0,0
0.8186649999988731,0.373016357421875,-0.452545166015625,0.3115234375,-0.747650146484375,0.06103515625,0.06103515625,0.0,0.4437255859375,-0.801513671875,0.3963623046875,-294.0,150.0,-147.0,101693.0,-3.065000057220459,0,0
0.8192457999975886,0.373016357421875,-0.452545166015625,0.3115234375,-0.747650146484375,0.06103515625,0.06103515625,0.0,0.4437255859375,-0.801513671875,0.3963623046875,-294.0,150.0,-147.0,101693.0,-3.065000057220459,0,0
0.8193128999992041,0.373016357421875,-0.45257568359375,0.3115234375,-0.747650146484375,-0.06103515625,0.1220703125,-0.06103515625,0.4434814453125,-0.8031005859375,0.394287109375,-294.0,150.0,-147.0,101693.0,-3.065000057220459,0,0
0.8193686000013258,0.373016357421875,-0.452545166015625,0.3115234375,-0.74761962890625,0.0,-0.06103515625,0.1220703125,0.4415283203125,-0.802978515625,0.3953857421875,-294.0,150.0,-147.0,101693.0,-3.065000057220459,0,0
0.8772651000035694,0.37298583984375,-0.45257568359375,0.3115234375,-0.74761962890625,-0.06103515625,0.06103515625,0.0,0.445068359375,-0.80224609375,0.3948974609375,-294.0,150.0,-147.0,101693.0,-3.065000057220459,0,0
0.8773278000007849,0.373016357421875,-0.45257568359375,0.3115234375,-0.74761962890625,-0.244140625,0.0,-0.06103515625,0.4454345703125,-0.8017578125,0.3948974609375,-294.0,150.0,-147.0,101693.0,-3.065000057220459,0,0
0.8773892000026535,0.373016357421875,-0.452545166015625,0.3115234375,-0.74761962890625,0.06103515625,0.1220703125,-0.06103515625,0.4425048828125,-0.80224609375,0.3956298828125,-294.0,150.0,-147.0,101693.0,-3.065000057220459,0,0
0.8774468000046909,0.373016357421875,-0.45257568359375,0.3115234375,-0.74761962890625,0.06103515625,0.0,-0.18310546875,0.4442138671875,-0.802734375,0.3956298828125,-294.0,150.0,-147.0,101693.0,-3.065000057220459,0,0
0.8775003999908222,0.373016357421875,-0.45257568359375,0.3115234375,-0.74761962890625,-0.18310546875,-0.06103515625,0.0,0.4443359375,-0.802978515625,0.3955078125,-294.0,150.0,-147.0,101693.0,-3.065000057220459,0,0
0.8776380999916,0.373016357421875,-0.45257568359375,0.3115234375,-0.74761962890625,-0.18310546875,-0.06103515625,0.0,0.4443359375,-0.802978515625,0.3955078125,-294.0,150.0,-147.0,101693.0,-3.065000057220459,0,0
0.8776998999965144,0.373016357421875,-0.45257568359375,0.3115234375,-0.74761962890625,0.06103515625,0.0,0.0,0.444091796875,-0.802978515625,0.3956298828125,-294.0,150.0,-147.0,101693.0,-3.065000057220459,0,0
0.8777545999910217,0.37298583984375,-0.45257568359375,0.3115234375,-0.747650146484375,0.30517578125,-0.06103515625,-0.06103515625,0.4453125,-0.802734375,0.3958740234375,-294.0,150.0,-147.0,101693.0,-3.065000057220459,0,0
0.8778077000024496,0.37298583984375,-0.45257568359375,0.311492919921875,-0.747650146484375,0.06103515625,-0.06103515625,-0.1220703125,0.4456787109375,-0.8023681640625,0.3968505859375,-294.0,150.0,-147.0,101693.0,-3.065000057220459,0,0
0.8778585999971256,0.37298583984375,-0.45257568359375,0.3115234375,-0.747650146484375,-0.1220703125,-0.1220703125,-0.244140625,0.443603515625,-0.8026123046875,0.39501953125,-294.0,150.0,-147.0,101693.0,-3.065000057220459,0,0
0.8779116999940015,0.37298583984375,-0.45257568359375,0.3115234375,-0.747650146484375,0.18310546875,0.0,-0.244140625,0.44384765625,-0.802490234375,0.394775390625,-295.0,148.0,-148.0,101693.0,-3.065000057220459,0,0
0.8779641000000993,0.37298583984375,-0.45257568359375,0.3115234375,-0.74761962890625,0.0,-0.18310546875,-0.06103515625,0.4439697265625,-0.800537109375,0.39404296875,-295.0,148.0,-148.0,101693.0,-3.065000057220459,0,0
0.9381781999982195,0.37298583984375,-0.45257568359375,0.3115234375,-0.74761962890625,0.244140625,-0.1220703125,-0.30517578125,0.444580078125,-0.80322265625,0.3953857421875,-295.0,148.0,-148.0,101693.0,-3.065000057220459,0,0
0.9382438000029651,0.37298583984375,-0.45257568359375,0.3115234375,-0.74761962890625,0.244140625,-0.1220703125,-0.30517578125,0.444580078125,-0.80322265625,0.3953857421875,-295.0,148.0,-148.0,101693.0,-3.065000057220459,0,0
0.9382983999967109,0.37298583984375,-0.45257568359375,0.3115234375,-0.74761962890625,0.244140625,-0.244140625,-0.244140625,0.4432373046875,-0.801513671875,0.395751953125,-295.0,148.0,-148.0,101693.0,-3.065000057220459,0,0
0.9383514999935869,0.37298583984375,-0.45257568359375,0.3115234375,-0.74761962890625,0.0,0.0,0.06103515625,0.4454345703125,-0.801025390625,0.3941650390625,-295.0,148.0,-148.0,101693.0,-3.065000057220459,0,0
0.9384048999927472,0.37298583984375,-0.45257568359375,0.3115234375,-0.74761962890625,0.244140625,0.0,0.1220703125,0.4434814453125,-0.8017578125,0.3956298828125,-295.0,148.0,-148.0,101693.0,-3.06600022315979,0,0
0.9387169999972684,0.37298583984375,-0.45257568359375,0.3115234375,-0.74761962890625,-0.18310546875,-0.244140625,0.06103515625,0.4453125,-0.802978515625,0.3955078125,-295.0,148.0,-148.0,101693.0,-3.06600022315979,0,0
0.938768699998036,0.37298583984375,-0.45257568359375,0.3115234375,-0.74761962890625,-0.1220703125,0.06103515625,0.18310546875,0.4453125,-0.8016357421875,0.3934326171875,-295.0,148.0,-148.0,101693.0,-3.06600022315979,0,0
0.9388201999972807,0.37298583984375,-0.45257568359375,0.3115234375,-0.74761962890625,0.06103515625,0.1220703125,0.3662109375,0.4417724609375,-0.8013916015625,0.3955078125,-295.0,148.0,-148.0,101693.0,-3.06600022315979,0,0
0.9388732999941567,0.37298583984375,-0.45257568359375,0.3115234375,-0.74761962890625,0.0,-0.06103515625,0.0,0.4425048828125,-0.8037109375,0.3951416015625,-295.0,148.0,-148.0,101693.0,-3.06600022315979,0,0
0.9389251999964472,0.37298583984375,-0.45257568359375,0.3115234375,-0.74761962890625,0.1220703125,-0.1220703125,0.06103515625,0.44384765625,-0.802734375,0.3958740234375,-295.0,148.0,-148.0,101693.0,-3.06600022315979,0,0
0.9389770999987377,0.37298583984375,-0.45257568359375,0.3115234375,-0.74761962890625,-0.1220703125,0.1220703125,-0.18310546875,0.442138671875,-0.8035888671875,0.396240234375,-295.0,148.0,-148.0,101693.0,-3.06600022315979,0,0
0.939030499997898,0.37298583984375,-0.45257568359375,0.3115234375,-0.74761962890625,-0.1220703125,0.1220703125,-0.18310546875,0.442138671875,-0.8035888671875,0.396240234375,-295.0,148.0,-148.0,101693.0,-3.06600022315979,0,0
1.014983500004746,0.37298583984375,-0.45257568359375,0.3115234375,-0.74761962890625,0.18310546875,0.0,-0.1220703125,0.44482421875,-0.8040771484375,0.395751953125,-295.0,148.0,-148.0,101693.0,-3.06600022315979,0,0
1.0150489999941783,0.37298583984375,-0.45257568359375,0.3115234375,-0.74761962890625,0.18310546875,0.0,-0.1220703125,0.44482421875,-0.8040771484375,0.395751953125,-295.0,148.0,-148.0,101693.0,-3.06600022315979,0,0
1.0151052000001073,0.37298583984375,-0.452606201171875,0.3115234375,-0.74761962890625,0.18310546875,0.0,-0.1220703125,0.44482421875,-0.8040771484375,0.395751953125,-295.0,148.0,-148.0,101693.0,-3.06600022315979,0,0
1.0151603999984218,0.37298583984375,-0.452606201171875,0.3115234375,-0.74761962890625,-0.06103515625,-0.1220703125,-0.18310546875,0.445068359375,-0.8011474609375,0.3941650390625,-295.0,148.0,-148.0,101693.0,-3.06600022315979,0,0
1.0152144000021508,0.37298583984375,-0.452606201171875,0.3115234375,-0.74761962890625,0.0,-0.06103515625,-0.06103515625,0.442138671875,-0.8023681640625,0.3941650390625,-295.0,148.0,-148.0,101693.0,-3.06600022315979,0,0
1.0152688999951351,0.37298583984375,-0.452606201171875,0.3115234375,-0.74761962890625,0.1220703125,0.18310546875,0.18310546875,0.4442138671875,-0.8018798828125,0.3961181640625,-295.0,148.0,-148.0,101693.0,-3.06600022315979,0,0
1.0159895999968285,0.372894287109375,-0.452545166015625,0.31158447265625,-0.7476806640625,0.1220703125,0.18310546875,0.18310546875,0.4442138671875,-0.8018798828125,0.3961181640625,-293.0,148.0,-148.0,101693.0,-3.06600022315979,0,0
1.0160526999970898,0.372894287109375,-0.452545166015625,0.31158447265625,-0.7476806640625,0.0,-0.18310546875,-0.1220703125,0.4442138671875,-0.8031005859375,0.3951416015625,-293.0,148.0,-148.0,101693.0,-3.06600022315979,0,0
1.0161068000015803,0.372894287109375,-0.452545166015625,0.31158447265625,-0.7476806640625,0.0,-0.18310546875,-0.1220703125,0.4442138671875,-0.8031005859375,0.3951416015625,-293.0,148.0,-148.0,101693.0,-3.06600022315979,0,0
1.0161596999969333,0.372894287109375,-0.452545166015625,0.31158447265625,-0.747650146484375,-0.1220703125,-0.06103515625,-0.1220703125,0.4442138671875,-0.802978515625,0.394287109375,-293.0,148.0,-148.0,101693.0,-3.06600022315979,0,0
1.0162137000006624,0.372894287109375,-0.452545166015625,0.31158447265625,-0.747650146484375,0.0,0.0,-0.06103515625,0.4425048828125,-0.802001953125,0.3953857421875,-293.0,148.0,-148.0,101693.0,-3.06600022315979,0,0
1.016268499995931,0.372894287109375,-0.452545166015625,0.31158447265625,-0.7476806640625,-0.18310546875,0.06103515625,0.1220703125,0.4451904296875,-0.7998046875,0.39453125,-293.0,148.0,-148.0,101693.0,-3.06600022315979,0,0
1.0669152999907965,0.37286376953125,-0.45257568359375,0.31158447265625,-0.747650146484375,0.18310546875,0.06103515625,0.06103515625,0.4449462890625,-0.8043212890625,0.3948974609375,-293.0,148.0,-148.0,101693.0,-3.067000150680542,0,0
1.0669770999957109,0.372894287109375,-0.45257568359375,0.31158447265625,-0.747650146484375,0.18310546875,0.06103515625,0.1220703125,0.4449462890625,-0.8028564453125,0.394287109375,-293.0,148.0,-148.0,101693.0,-3.067000150680542,0,0
1.0670317000040086,0.372894287109375,-0.45257568359375,0.31158447265625,-0.747650146484375,0.06103515625,-0.1220703125,0.0,0.4425048828125,-0.803955078125,0.3948974609375,-293.0,148.0,-148.0,101693.0,-3.067000150680542,0,0
1.0670856999931857,0.372894287109375,-0.45257568359375,0.311614990234375,-0.747650146484375,0.0,0.0,0.1220703125,0.44287109375,-0.8040771484375,0.396484375,-293.0,148.0,-148.0,101693.0,-3.067000150680542,0,0
1.0671393999946304,0.372894287109375,-0.45257568359375,0.311614990234375,-0.747650146484375,0.0,0.0,0.1220703125,0.44287109375,-0.8040771484375,0.396484375,-293.0,148.0,-148.0,101693.0,-3.067000150680542,0,0
1.0680093999981182,0.372894287109375,-0.45257568359375,0.311614990234375,-0.747650146484375,0.0,-0.06103515625,-0.244140625,0.442138671875,-0.802978515625,0.393798828125,-293.0,148.0,-148.0,101693.0,-3.067000150680542,0,0
1.0680718999938108,0.372894287109375,-0.45257568359375,0.311614990234375,-0.747650146484375,0.06103515625,-0.06103515625,-0.244140625,0.4456787109375,-0.8033447265625,0.39404296875,-293.0,148.0,-148.0,101693.0,-3.067000150680542,0,0
1.068127899998217,0.372894287109375,-0.45257568359375,0.311614990234375,-0.747650146484375,-0.18310546875,-0.18310546875,-0.30517578125,0.4425048828125,-0.8045654296875,0.3961181640625,-293.0,148.0,-148.0,101693.0,-3.067000150680542,0,0
1.0681822999904398,0.372894287109375,-0.45257568359375,0.311614990234375,-0.747650146484375,0.42724609375,-0.18310546875,-0.30517578125,0.443603515625,-0.8028564453125,0.396240234375,-293.0,148.0,-148.0,101693.0,-3.067000150680542,0,0
1.0682374000025447,0.372894287109375,-0.45257568359375,0.311614990234375,-0.747650146484375,0.30517578125,0.1220703125,-0.244140625,0.4442138671875,-0.801513671875,0.3951416015625,-293.0,148.0,-148.0,101693.0,-3.067000150680542,0,0
1.0682917999947676,0.372894287109375,-0.45257568359375,0.311614990234375,-0.747650146484375,-0.06103515625,-0.30517578125,-0.18310546875,0.4410400390625,-0.80126953125,0.3955078125,-293.0,148.0,-148.0,101693.0,-3.067000150680542,0,0
1.0683442000008654,0.372894287109375,-0.45257568359375,0.311614990234375,-0.747650146484375,0.244140625,-0.18310546875,-0.06103515625,0.4439697265625,-0.8028564453125,0.39599609375,-293.0,148.0,-148.0,101693.0,-3.067000150680542,0,0
1.1286771000013687,0.372589111328125,-0.45245361328125,0.311798095703125,-0.747802734375,0.1220703125,-0.18310546875,-0.06103515625,0.4427490234375,-0.8017578125,0.3944091796875,-292.0,147.0,-149.0,101693.0,-3.067000150680542,0,0
1.128755400000955,0.372589111328125,-0.45245361328125,0.311798095703125,-0.747802734375,0.06103515625,0.1220703125,-0.244140625,0.444580078125,-0.8035888671875,0.3953857421875,-292.0,147.0,-149.0,101693.0,-3.067000150680542,0,0
1.1291487999988021,0.372589111328125,-0.45245361328125,0.311798095703125,-0.747802734375,-0.06103515625,-0.06103515625,0.0,0.4461669921875,-0.801513671875,0.39501953125,-292.0,147.0,-149.0,101693.0,-3.067000150680542,0,0
1.1292348999995738,0.372589111328125,-0.45245361328125,0.311798095703125,-0.747802734375,-0.18310546875,0.18310546875,0.06103515625,0.44482421875,-0.80322265625,0.3953857421875,-292.0,147.0,-149.0,101693.0,-3.067000150680542,0,0
1.1293220999941695,0.372589111328125,-0.45245361328125,0.311798095703125,-0.747802734375,0.18310546875,-0.1220703125,0.18310546875,0.4439697265625,-0.8035888671875,0.39697265625,-292.0,147.0,-149.0,101693.0,-3.067000150680542,0,0
1.129387900000438,0.37255859375,-0.45245361328125,0.311798095703125,-0.747802734375,0.18310546875,-0.1220703125,0.18310546875,0.4439697265625,-0.8035888671875,0.39697265625,-292.0,147.0,-149.0,101693.0,-3.065000057220459,0,0
1.1294627000024775,0.37255859375,-0.45245361328125,0.311798095703125,-0.747802734375,-0.1220703125,0.0,0.18310546875,0.4449462890625,-0.8013916015625,0.39599609375,-292.0,147.0,-149.0,101693.0,-3.065000057220459,0,0
1.1295249999966472,0.37255859375,-0.45245361328125,0.311798095703125,-0.747802734375,0.6103515625,-0.1220703125,-0.18310546875,0.4442138671875,-0.803955078125,0.3958740234375,-292.0,147.0,-149.0,101693.0,-3.065000057220459,0,0
1.12958819999767,0.37255859375,-0.45245361328125,0.311798095703125,-0.747802734375,-0.06103515625,-0.18310546875,0.0,0.4451904296875,-0.80517578125,0.39501953125,-292.0,147.0,-149.0,101693.0,-3.065000057220459,0,0
1.1296490999957314,0.37255859375,-0.45245361328125,0.311798095703125,-0.747802734375,-0.06103515625,-0.18310546875,0.0,0.4451904296875,-0.80517578125,0.39501953125,-292.0,147.0,-149.0,101693.0,-3.065000057220459,0,0
1.1297101999953156,0.37255859375,-0.45245361328125,0.311798095703125,-0.747802734375,0.1220703125,-0.06103515625,-0.1220703125,0.443603515625,-0.8035888671875,0.3951416015625,-292.0,147.0,-149.0,101693.0,-3.065000057220459,0,0
1.1956629999913275,0.37255859375,-0.45245361328125,0.311798095703125,-0.747802734375,-0.1220703125,-0.1220703125,-0.244140625,0.444580078125,-0.80224609375,0.396728515625,-292.0,147.0,-149.0,101693.0,-3.065000057220459,0,0
1.1957438999961596,0.37255859375,-0.45245361328125,0.311798095703125,-0.747802734375,0.18310546875,0.06103515625,0.0,0.4451904296875,-0.803466796875,0.39697265625,-292.0,147.0,-149.0,101693.0,-3.065000057220459,0,0
1.1958086999948137,0.37255859375,-0.45245361328125,0.311798095703125,-0.747802734375,-0.1220703125,-0.1220703125,0.06103515625,0.4427490234375,-0.80322265625,0.3958740234375,-292.0,147.0,-149.0,101693.0,-3.065000057220459,0,0
1.195876900004805,0.37255859375,-0.45245361328125,0.311798095703125,-0.747802734375,-0.06103515625,-0.06103515625,-0.18310546875,0.4434814453125,-0.80126953125,0.394287109375,-292.0,147.0,-149.0,101693.0,-3.065000057220459,0,0
1.1959441999933915,0.37255859375,-0.45245361328125,0.311798095703125,-0.747802734375,0.244140625,-0.1220703125,-0.06103515625,0.441650390625,-0.802001953125,0.3951416015625,-292.0,147.0,-149.0,101693.0,-3.065000057220459,0,0
1.1960909999907017,0.372589111328125,-0.45245361328125,0.311798095703125,-0.747802734375,-0.06103515625,0.0,0.0,0.443115234375,-0.802490234375,0.394775390625,-292.0,147.0,-149.0,101693.0,-3.065000057220459,0,0
1.1978819999931147,0.37255859375,-0.45245361328125,0.311798095703125,-0.747802734375,0.06103515625,0.0,-0.06103515625,0.4405517578125,-0.800048828125,0.394287109375,-292.0,147.0,-149.0,101693.0,-3.065000057220459,0,0
1.1979995000001509,0.37255859375,-0.45245361328125,0.311798095703125,-0.747802734375,0.06103515625,0.0,-0.06103515625,0.4405517578125,-0.800048828125,0.394287109375,-292.0,147.0,-149.0,101693.0,-3.065000057220459,0,0
1.1980731999938143,0.37237548828125,-0.452392578125,0.311920166015625,-0.747894287109375,-0.1220703125,-0.30517578125,-0.18310546875,0.443603515625,-0.802490234375,0.3939208984375,-293.0,146.0,-149.0,101693.0,-3.065000057220459,0,0
1.198140099993907,0.37237548828125,-0.452392578125,0.311920166015625,-0.747894287109375,-0.244140625,-0.244140625,0.06103515625,0.446044921875,-0.8043212890625,0.3944091796875,-293.0,146.0,-149.0,101693.0,-3.065000057220459,0,0
1.1982014999957755,0.37237548828125,-0.452392578125,0.311920166015625,-0.747894287109375,-0.06103515625,0.0,-0.1220703125,0.443115234375,-0.8016357421875,0.39404296875,-293.0,146.0,-149.0,101693.0,-3.065000057220459,0,0
1.1982628999976441,0.37237548828125,-0.452392578125,0.311920166015625,-0.747894287109375,0.0,-0.1220703125,-0.06103515625,0.4442138671875,-0.802001953125,0.3951416015625,-293.0,146.0,-149.0,101693.0,-3.065000057220459,0,0
1.1983234999934211,0.37237548828125,-0.452392578125,0.311920166015625,-0.747894287109375,0.30517578125,0.06103515625,0.06103515625,0.4439697265625,-0.8028564453125,0.396484375,-293.0,146.0,-149.0,101693.0,-3.065000057220459,0,0
1.2605309999926249,0.37237548828125,-0.452392578125,0.311920166015625,-0.747894287109375,0.0,0.06103515625,0.06103515625,0.44287109375,-0.8037109375,0.3948974609375,-293.0,146.0,-149.0,101693.0,-3.065000057220459,0,0
1.2605963999958476,0.37237548828125,-0.452362060546875,0.31195068359375,-0.747894287109375,-0.18310546875,-0.1220703125,0.06103515625,0.4407958984375,-0.8031005859375,0.396484375,-293.0,146.0,-149.0,101693.0,-3.065000057220459,0,0
1.2606568000046536,0.37237548828125,-0.452362060546875,0.31195068359375,-0.747894287109375,-0.18310546875,-0.1220703125,0.06103515625,0.4407958984375,-0.8031005859375,0.396484375,-293.0,146.0,-149.0,101693.0,-3.065000057220459,0,0
1.260712399991462,0.37237548828125,-0.452362060546875,0.31195068359375,-0.747894287109375,0.06103515625,0.06103515625,-0.18310546875,0.443603515625,-0.8040771484375,0.3958740234375,-293.0,146.0,-149.0,101693.0,-3.065000057220459,0,0
1.2618713999981992,0.37237548828125,-0.452362060546875,0.31195068359375,-0.747894287109375,0.3662109375,0.06103515625,0.06103515625,0.4425048828125,-0.80224609375,0.39453125,-293.0,146.0,-149.0,101693.0,-3.065000057220459,0,0
1.2619381999975303,0.37237548828125,-0.452362060546875,0.31195068359375,-0.747894287109375,0.18310546875,0.0,-0.06103515625,0.4434814453125,-0.80126953125,0.3963623046875,-293.0,146.0,-149.0,101693.0,-3.065000057220459,0,0
1.2619974999979604,0.37237548828125,-0.452362060546875,0.311920166015625,-0.747894287109375,0.06103515625,-0.18310546875,0.0,0.446533203125,-0.8028564453125,0.3968505859375,-293.0,146.0,-149.0,101693.0,-3.065000057220459,0,0
1.262054699996952,0.37237548828125,-0.452362060546875,0.311920166015625,-0.747894287109375,0.18310546875,-0.1220703125,-0.06103515625,0.4451904296875,-0.802490234375,0.3973388671875,-293.0,146.0,-149.0,101693.0,-3.065000057220459,0,0
1.2621116999944206,0.37237548828125,-0.452392578125,0.311920166015625,-0.747894287109375,0.06103515625,-0.1220703125,-0.30517578125,0.4449462890625,-0.803466796875,0.3931884765625,-293.0,146.0,-149.0,101693.0,-3.065000057220459,0,0
1.2621685000049183,0.37237548828125,-0.452392578125,0.311920166015625,-0.747894287109375,0.06103515625,-0.1220703125,-0.06103515625,0.44140625,-0.8017578125,0.394775390625,-293.0,146.0,-149.0,101693.0,-3.065000057220459,0,0
1.2622241999924881,0.37237548828125,-0.452392578125,0.311920166015625,-0.747894287109375,0.06103515625,0.0,0.0,0.4449462890625,-0.8023681640625,0.3955078125,-293.0,146.0,-149.0,101693.0,-3.065000057220459,0,0
1.323319299990544,0.3720703125,-0.4522705078125,0.312103271484375,-0.748046875,0.244140625,0.0,-0.06103515625,0.4443359375,-0.801513671875,0.3958740234375,-292.0,147.0,-150.0,101693.0,-3.065000057220459,0,0
1.3233929999987595,0.3720703125,-0.4522705078125,0.312103271484375,-0.748046875,-0.732421875,0.06103515625,0.06103515625,0.44482421875,-0.803955078125,0.396240234375,-292.0,147.0,-150.0,101693.0,-3.065000057220459,0,0
1.3234648999932688,0.3720703125,-0.4522705078125,0.312103271484375,-0.748046875,0.06103515625,-0.06103515625,0.244140625,0.444580078125,-0.80126953125,0.3946533203125,-292.0,147.0,-150.0,101693.0,-3.065000057220459,0,0
1.323521800004528,0.3720703125,-0.4522705078125,0.312103271484375,-0.748046875,0.1220703125,-0.06103515625,0.244140625,0.4434814453125,-0.8045654296875,0.395263671875,-292.0,147.0,-150.0,101693.0,-3.065000057220459,0,0
1.3235773999913363,0.3720703125,-0.4522705078125,0.312103271484375,-0.748046875,0.1220703125,0.06103515625,0.1220703125,0.4447021484375,-0.8021240234375,0.3966064453125,-292.0,147.0,-150.0,101693.0,-3.065000057220459,0,0
1.3236535000032745,0.3720703125,-0.4522705078125,0.312103271484375,-0.748046875,0.06103515625,0.0,-0.18310546875,0.44580078125,-0.8023681640625,0.3961181640625,-292.0,147.0,-150.0,101693.0,-3.065000057220459,0,0
1.3237071000039577,0.3720703125,-0.4522705078125,0.312103271484375,-0.748046875,0.06103515625,0.0,-0.18310546875,0.44580078125,-0.8023681640625,0.3961181640625,-292.0,147.0,-150.0,101693.0,-3.06600022315979,0,0
1.3237616999977035,0.3720703125,-0.4522705078125,0.312103271484375,-0.748046875,0.0,-0.1220703125,0.0,0.444091796875,-0.802978515625,0.3968505859375,-292.0,147.0,-150.0,101693.0,-3.06600022315979,0,0
1.3238145999930566,0.3720703125,-0.4522705078125,0.312103271484375,-0.748046875,0.0,-0.1220703125,0.0,0.444091796875,-0.802978515625,0.3968505859375,-292.0,147.0,-150.0,101693.0,-3.06600022315979,0,0
1.323867600003723,0.3720703125,-0.4522705078125,0.312103271484375,-0.748046875,-0.244140625,-0.1220703125,-0.42724609375,0.445068359375,-0.80419921875,0.39794921875,-292.0,147.0,-150.0,101693.0,-3.06600022315979,0,0
1.323921799994423,0.3720703125,-0.4522705078125,0.31207275390625,-0.748046875,-0.06103515625,0.0,-0.18310546875,0.443115234375,-0.8031005859375,0.3958740234375,-292.0,147.0,-150.0,101693.0,-3.06600022315979,0,0
1.3920652999950107,0.3720703125,-0.452239990234375,0.312103271484375,-0.748046875,-0.06103515625,-0.06103515625,-0.18310546875,0.44482421875,-0.802978515625,0.396240234375,-292.0,147.0,-150.0,101693.0,-3.06600022315979,0,0
1.3921487999905366,0.3720703125,-0.452239990234375,0.31207275390625,-0.748046875,0.42724609375,-0.1220703125,-0.06103515625,0.4437255859375,-0.802978515625,0.396240234375,-292.0,147.0,-150.0,101693.0,-3.06600022315979,0,0
1.3922327000036603,0.3720703125,-0.452239990234375,0.312103271484375,-0.748046875,0.30517578125,0.1220703125,-0.244140625,0.4447021484375,-0.801513671875,0.395751953125,-292.0,147.0,-150.0,101693.0,-3.06600022315979,0,0
1.392291900003329,0.3720703125,-0.452239990234375,0.312103271484375,-0.748046875,0.1220703125,-0.18310546875,0.0,0.4425048828125,-0.8050537109375,0.396484375,-292.0,147.0,-150.0,101693.0,-3.06600022315979,0,0
1.395824499995797,0.3720703125,-0.452239990234375,0.31207275390625,-0.748046875,0.244140625,0.06103515625,-0.06103515625,0.442626953125,-0.8009033203125,0.3975830078125,-292.0,147.0,-150.0,101693.0,-3.06600022315979,0,0
1.395902100004605,0.3720703125,-0.452239990234375,0.31207275390625,-0.748046875,0.0,-0.18310546875,-0.1220703125,0.44580078125,-0.8033447265625,0.395263671875,-292.0,147.0,-150.0,101693.0,-3.06600022315979,0,0
1.396040699997684,0.3720703125,-0.452239990234375,0.31207275390625,-0.748046875,0.0,-0.18310546875,-0.1220703125,0.44580078125,-0.8033447265625,0.395263671875,-292.0,147.0,-150.0,101693.0,-3.06600022315979,0,0
1.3967026000027545,0.3720703125,-0.452239990234375,0.31207275390625,-0.748077392578125,0.30517578125,0.06103515625,0.0,0.444580078125,-0.8006591796875,0.397216796875,-292.0,147.0,-150.0,101693.0,-3.06600022315979,0,0
1.396769500002847,0.3720703125,-0.452239990234375,0.31207275390625,-0.748077392578125,0.1220703125,-0.18310546875,0.1220703125,0.443115234375,-0.801513671875,0.3968505859375,-292.0,147.0,-150.0,101693.0,-3.06600022315979,0,0
1.3968587999988813,0.3720703125,-0.45220947265625,0.31207275390625,-0.748077392578125,-0.06103515625,-0.06103515625,-0.1220703125,0.443603515625,-0.799072265625,0.3980712890625,-292.0,147.0,-150.0,101693.0,-3.06600022315979,0,0
1.397074499996961,0.37176513671875,-0.45208740234375,0.312255859375,-0.74822998046875,0.0,0.06103515625,0.1220703125,0.441650390625,-0.8037109375,0.3958740234375,-292.0,147.0,-150.0,101693.0,-3.06600022315979,0,0
1.3971418000000995,0.37176513671875,-0.45208740234375,0.312255859375,-0.74822998046875,0.06103515625,-0.18310546875,-0.06103515625,0.442626953125,-0.8011474609375,0.396484375,-292.0,147.0,-150.0,101693.0,-3.06600022315979,0,0
1.3975001999933738,0.371795654296875,-0.45208740234375,0.312255859375,-0.74822998046875,0.0,-0.06103515625,0.06103515625,0.4429931640625,-0.802001953125,0.3961181640625,-292.0,147.0,-150.0,101693.0,-3.06600022315979,0,0
1.4497445000015432,0.371795654296875,-0.45208740234375,0.312255859375,-0.74822998046875,0.1220703125,0.0,-0.1220703125,0.44384765625,-0.801025390625,0.3955078125,-292.0,147.0,-150.0,101693.0,-3.06600022315979,0,0
1.4498158999922452,0.371795654296875,-0.45208740234375,0.312255859375,-0.74822998046875,0.1220703125,0.0,-0.1220703125,0.44384765625,-0.801025390625,0.3955078125,-292.0,147.0,-150.0,101693.0,-3.06600022315979,0,0
1.449874500001897,0.371795654296875,-0.45208740234375,0.312255859375,-0.74822998046875,-0.30517578125,-0.06103515625,-0.244140625,0.4449462890625,-0.8033447265625,0.396728515625,-292.0,147.0,-150.0,101693.0,-3.06600022315979,0,0
1.4499339000030886,0.371795654296875,-0.45208740234375,0.312255859375,-0.74822998046875,-0.1220703125,-0.244140625,-0.18310546875,0.4422607421875,-0.803955078125,0.3968505859375,-292.0,147.0,-150.0,101693.0,-3.06600022315979,0,0
1.4499923999974271,0.371795654296875,-0.452056884765625,0.312255859375,-0.74822998046875,0.1220703125,-0.18310546875,-0.18310546875,0.443359375,-0.8017578125,0.396240234375,-292.0,147.0,-150.0,101693.0,-3.06600022315979,0,0
1.450064199991175,0.371795654296875,-0.452056884765625,0.312255859375,-0.74822998046875,0.1220703125,0.06103515625,-0.1220703125,0.443115234375,-0.8023681640625,0.3961181640625,-292.0,147.0,-150.0,101693.0,-3.06600022315979,0,0
1.450116899999557,0.371795654296875,-0.452056884765625,0.312255859375,-0.74822998046875,0.06103515625,-0.244140625,-0.18310546875,0.444091796875,-0.8023681640625,0.396484375,-292.0,147.0,-150.0,101693.0,-3.06600022315979,0,0
1.4501696999941487,0.371795654296875,-0.452056884765625,0.312255859375,-0.74822998046875,0.18310546875,-0.1220703125,-0.244140625,0.441162109375,-0.802001953125,0.396240234375,-292.0,147.0,-150.0,101693.0,-3.06600022315979,0,0
1.4502231999940705,0.371795654296875,-0.452056884765625,0.312255859375,-0.74822998046875,-0.244140625,-0.06103515625,0.06103515625,0.4443359375,-0.8011474609375,0.396240234375,-292.0,147.0,-150.0,101693.0,-3.06600022315979,0,0
1.4502752999978838,0.371795654296875,-0.452056884765625,0.312255859375,-0.74822998046875,0.0,-0.244140625,0.06103515625,0.445068359375,-0.8004150390625,0.394775390625,-292.0,147.0,-150.0,101693.0,-3.06600022315979,0,0
1.450328199993237,0.371795654296875,-0.452056884765625,0.312255859375,-0.74822998046875,0.0,-0.244140625,0.06103515625,0.445068359375,-0.8004150390625,0.394775390625,-292.0,147.0,-150.0,101693.0,-3.06600022315979,0,0
1.5182040999934543,0.37176513671875,-0.45208740234375,0.312225341796875,-0.74822998046875,0.0,-0.06103515625,0.06103515625,0.4456787109375,-0.8026123046875,0.3944091796875,-292.0,147.0,-150.0,101693.0,-3.06600022315979,0,0
1.5182658999983687,0.37176513671875,-0.45208740234375,0.312225341796875,-0.74822998046875,0.0,0.1220703125,-0.30517578125,0.4427490234375,-0.804443359375,0.395263671875,-292.0,147.0,-150.0,101693.0,-3.06600022315979,0,0
1.5183233999996446,0.37158203125,-0.451995849609375,0.312347412109375,-0.748321533203125,-0.1220703125,-0.18310546875,-0.18310546875,0.4420166015625,-0.8018798828125,0.395751953125,-293.0,147.0,-150.0,101693.0,-3.06600022315979,0,0
1.518376799998805,0.37158203125,-0.451995849609375,0.312347412109375,-0.748321533203125,0.3662109375,0.0,0.1220703125,0.4442138671875,-0.80322265625,0.3963623046875,-293.0,147.0,-150.0,101693.0,-3.06600022315979,0,0
1.5184290000033798,0.37158203125,-0.451995849609375,0.312347412109375,-0.748321533203125,-0.244140625,-0.06103515625,0.0,0.4432373046875,-0.801513671875,0.3951416015625,-293.0,147.0,-150.0,101693.0,-3.06600022315979,0,0
1.520353600004455,0.37158203125,-0.451995849609375,0.312347412109375,-0.74835205078125,-0.18310546875,0.0,0.0,0.4429931640625,-0.8013916015625,0.3966064453125,-293.0,147.0,-150.0,101693.0,-3.06600022315979,0,0
1.520413499994902,0.37158203125,-0.451995849609375,0.312347412109375,-0.74835205078125,0.30517578125,-0.06103515625,-0.30517578125,0.4437255859375,-0.8016357421875,0.396484375,-293.0,147.0,-150.0,101693.0,-3.06600022315979,0,0
1.5204699000023538,0.37158203125,-0.451995849609375,0.312347412109375,-0.74835205078125,0.30517578125,-0.06103515625,-0.30517578125,0.4437255859375,-0.8016357421875,0.396484375,-293.0,147.0,-150.0,101693.0,-3.06600022315979,0,0
1.5205224999954225,0.37158203125,-0.451995849609375,0.312347412109375,-0.748321533203125,0.1220703125,-0.18310546875,-0.06103515625,0.44140625,-0.8009033203125,0.394287109375,-293.0,147.0,-150.0,101693.0,-3.06600022315979,0,0
1.5205753999907756,0.37158203125,-0.451995849609375,0.312347412109375,-0.748321533203125,0.18310546875,-0.06103515625,-0.06103515625,0.444091796875,-0.802734375,0.3939208984375,-293.0,147.0,-150.0,101693.0,-3.06600022315979,0,0
1.5206288999906974,0.37158203125,-0.451995849609375,0.312347412109375,-0.748321533203125,0.1220703125,0.06103515625,0.06103515625,0.4439697265625,-0.802490234375,0.3955078125,-293.0,147.0,-150.0,101693.0,-3.06600022315979,0,0
1.5844498999940697,0.37158203125,-0.451995849609375,0.312347412109375,-0.74835205078125,0.1220703125,-0.1220703125,-0.244140625,0.4449462890625,-0.8043212890625,0.39794921875,-293.0,147.0,-150.0,101693.0,-3.06600022315979,0,0
1.584514999995008,0.37158203125,-0.451995849609375,0.312347412109375,-0.748321533203125,0.18310546875,-0.06103515625,0.06103515625,0.442626953125,-0.8035888671875,0.3958740234375,-293.0,147.0,-150.0,101693.0,-3.06600022315979,0,0
1.5845728999993298,0.37158203125,-0.451995849609375,0.312347412109375,-0.74835205078125,0.06103515625,-0.06103515625,0.0,0.4439697265625,-0.8026123046875,0.3966064453125,-293.0,147.0,-150.0,101693.0,-3.06600022315979,0,0
1.5846280999976443,0.37158203125,-0.451995849609375,0.312347412109375,-0.74835205078125,0.18310546875,0.18310546875,-0.1220703125,0.442138671875,-0.80322265625,0.3973388671875,-293.0,147.0,-150.0,101693.0,-3.06600022315979,0,0
1.584683099994436,0.37158203125,-0.451995849609375,0.312347412109375,-0.74835205078125,0.18310546875,0.06103515625,0.244140625,0.446044921875,-0.8028564453125,0.3955078125,-293.0,147.0,-150.0,101693.0,-3.06600022315979,0,0
1.5847364999935962,0.37158203125,-0.451995849609375,0.312347412109375,-0.74835205078125,0.18310546875,0.06103515625,0.244140625,0.446044921875,-0.8028564453125,0.3955078125,-293.0,147.0,-150.0,101693.0,-3.06600022315979,0,0
1.5847915000049397,0.37158203125,-0.451995849609375,0.3123779296875,-0.748321533203125,0.0,-0.06103515625,0.06103515625,0.44287109375,-0.803955078125,0.3944091796875,-293.0,147.0,-150.0,101693.0,-3.06600022315979,0,0
1.5863156999985222,0.37158203125,-0.451995849609375,0.3123779296875,-0.748321533203125,0.1220703125,0.0,-0.244140625,0.4444580078125,-0.805419921875,0.395263671875,-293.0,147.0,-150.0,101693.0,-3.065000057220459,0,0
1.586376699997345,0.37158203125,-0.451995849609375,0.3123779296875,-0.748321533203125,-0.18310546875,-0.06103515625,0.0,0.4456787109375,-0.802978515625,0.3944091796875,-293.0,147.0,-150.0,101693.0,-3.065000057220459,0,0
1.586435999997775,0.37158203125,-0.451995849609375,0.3123779296875,-0.748321533203125,0.18310546875,0.0,-0.06103515625,0.4415283203125,-0.8046875,0.3961181640625,-293.0,147.0,-150.0,101693.0,-3.065000057220459,0,0
1.5864919000014197,0.37158203125,-0.451995849609375,0.3123779296875,-0.748321533203125,0.06103515625,0.06103515625,0.06103515625,0.4423828125,-0.8031005859375,0.394287109375,-293.0,147.0,-150.0,101693.0,-3.065000057220459,0,0
1.5865479999920353,0.37158203125,-0.451995849609375,0.3123779296875,-0.748321533203125,0.18310546875,-0.1220703125,-0.1220703125,0.4434814453125,-0.8017578125,0.3939208984375,-294.0,147.0,-149.0,101693.0,-3.065000057220459,0,0
1.5866030000033788,0.37139892578125,-0.451904296875,0.3125,-0.7484130859375,0.244140625,-0.18310546875,-0.3662109375,0.4443359375,-0.8040771484375,0.3953857421875,-294.0,147.0,-149.0,101693.0,-3.065000057220459,0,0
1.644926499997382,0.37139892578125,-0.451904296875,0.3125,-0.7484130859375,0.1220703125,0.0,0.0,0.4420166015625,-0.802001953125,0.3961181640625,-294.0,147.0,-149.0,101693.0,-3.065000057220459,0,0
1.6449896999984048,0.37139892578125,-0.451904296875,0.3125,-0.7484130859375,0.0,0.0,0.06103515625,0.4420166015625,-0.8016357421875,0.394775390625,-294.0,147.0,-149.0,101693.0,-3.065000057220459,0,0
1.6450459000043338,0.37139892578125,-0.451904296875,0.3125,-0.7484130859375,0.18310546875,0.1220703125,-0.06103515625,0.4427490234375,-0.8013916015625,0.3961181640625,-294.0,147.0,-149.0,101693.0,-3.065000057220459,0,0
1.645099899993511,0.37139892578125,-0.451904296875,0.3125,-0.7484130859375,0.1220703125,0.06103515625,0.06103515625,0.444091796875,-0.80224609375,0.396240234375,-294.0,147.0,-149.0,101693.0,-3.065000057220459,0,0
1.64515240000037,0.37139892578125,-0.451904296875,0.3125,-0.7484130859375,-0.30517578125,0.06103515625,-0.06103515625,0.4437255859375,-0.803955078125,0.394775390625,-294.0,147.0,-149.0,101693.0,-3.065000057220459,0,0
1.6452581999910763,0.37139892578125,-0.451904296875,0.3125,-0.7484130859375,0.0,-0.244140625,0.06103515625,0.443115234375,-0.8004150390625,0.3946533203125,-294.0,147.0,-149.0,101693.0,-3.065000057220459,0,0
1.645311899992521,0.37139892578125,-0.451904296875,0.3125,-0.7484130859375,-0.1220703125,-0.06103515625,-0.06103515625,0.442138671875,-0.8023681640625,0.3953857421875,-294.0,147.0,-149.0,101693.0,-3.065000057220459,0,0
1.6453641999978572,0.37139892578125,-0.451904296875,0.3125,-0.7484130859375,0.244140625,-0.244140625,0.0,0.4443359375,-0.802001953125,0.395263671875,-294.0,147.0,-149.0,101693.0,-3.065000057220459,0,0
1.6454181000008248,0.37139892578125,-0.451904296875,0.3125,-0.7484130859375,0.1220703125,0.06103515625,-0.30517578125,0.4437255859375,-0.8011474609375,0.3955078125,-294.0,147.0,-149.0,101693.0,-3.065000057220459,0,0
1.6454704999923706,0.37139892578125,-0.451904296875,0.3125,-0.7484130859375,0.1220703125,0.06103515625,-0.30517578125,0.4437255859375,-0.8011474609375,0.3955078125,-294.0,147.0,-149.0,101693.0,-3.065000057220459,0,0
1.6455228999984683,0.37139892578125,-0.451904296875,0.3125,-0.7484130859375,0.06103515625,0.06103515625,0.0,0.4453125,-0.80322265625,0.3946533203125,-294.0,147.0,-149.0,101693.0,-3.065000057220459,0,0
1.7056589999992866,0.37139892578125,-0.451904296875,0.3125,-0.7484130859375,0.244140625,-0.18310546875,-0.30517578125,0.4432373046875,-0.8016357421875,0.3953857421875,-294.0,147.0,-149.0,101693.0,-3.06600022315979,0,0
1.7057206000026781,0.37139892578125,-0.451904296875,0.3125,-0.7484130859375,-0.1220703125,0.06103515625,0.1220703125,0.44189453125,-0.8021240234375,0.394775390625,-294.0,147.0,-149.0,101693.0,-3.06600022315979,0,0
1.7057763000047999,0.37139892578125,-0.451904296875,0.3125,-0.7484130859375,0.06103515625,0.06103515625,-0.1220703125,0.44189453125,-0.8040771484375,0.3946533203125,-294.0,147.0,-149.0,101693.0,-3.06600022315979,0,0
1.7058307999977842,0.37139892578125,-0.451904296875,0.3125,-0.7484130859375,0.0,-0.1220703125,0.1220703125,0.4444580078125,-0.802001953125,0.39453125,-294.0,147.0,-149.0,101693.0,-3.06600022315979,0,0
1.7058839999954216,0.371185302734375,-0.45184326171875,0.3126220703125,-0.748504638671875,0.06103515625,0.1220703125,-0.06103515625,0.445068359375,-0.8023681640625,0.396728515625,-295.0,148.0,-150.0,101693.0,-3.06600022315979,0,0
1.7061247999954503,0.371185302734375,-0.45184326171875,0.3126220703125,-0.748504638671875,0.0,0.06103515625,0.06103515625,0.4439697265625,-0.802490234375,0.3955078125,-295.0,148.0,-150.0,101693.0,-3.06600022315979,0,0
1.7061778999923263,0.371185302734375,-0.45184326171875,0.3126220703125,-0.748504638671875,0.0,0.06103515625,0.06103515625,0.4439697265625,-0.802490234375,0.3955078125,-295.0,148.0,-150.0,101693.0,-3.06600022315979,0,0
1.706229399991571,0.371185302734375,-0.45184326171875,0.3126220703125,-0.748504638671875,-0.1220703125,-0.244140625,-0.1220703125,0.445556640625,-0.8016357421875,0.3958740234375,-295.0,148.0,-150.0,101693.0,-3.06600022315979,0,0
1.7062834999960614,0.371185302734375,-0.45184326171875,0.3126220703125,-0.748504638671875,-0.1220703125,-0.18310546875,-0.1220703125,0.4432373046875,-0.80224609375,0.394775390625,-295.0,148.0,-150.0,101693.0,-3.06600022315979,0,0
1.7063360000029206,0.371185302734375,-0.45184326171875,0.3126220703125,-0.748504638671875,0.06103515625,-0.06103515625,-0.18310546875,0.443359375,-0.80029296875,0.3953857421875,-295.0,148.0,-150.0,101693.0,-3.06600022315979,0,0
1.7063886999967508,0.371185302734375,-0.45184326171875,0.3126220703125,-0.748504638671875,0.06103515625,-0.06103515625,-0.18310546875,0.443359375,-0.80029296875,0.3953857421875,-295.0,148.0,-150.0,101693.0,-3.06600022315979,0,0
1.7766537999996217,0.371185302734375,-0.45184326171875,0.3126220703125,-0.748504638671875,-0.1220703125,-0.06103515625,0.0,0.442138671875,-0.8028564453125,0.3966064453125,-295.0,148.0,-150.0,101693.0,-3.06600022315979,0,0
1.7767280999978539,0.371185302734375,-0.45184326171875,0.3126220703125,-0.748504638671875,-0.18310546875,0.06103515625,-0.18310546875,0.443115234375,-0.8013916015625,0.39599609375,-295.0,148.0,-150.0,101693.0,-3.06600022315979,0,0
1.7767858000006527,0.371185302734375,-0.45184326171875,0.3126220703125,-0.748504638671875,0.06103515625,0.0,-0.1220703125,0.443603515625,-0.8028564453125,0.395263671875,-295.0,148.0,-150.0,101693.0,-3.06600022315979,0,0
1.776842499995837,0.371185302734375,-0.45184326171875,0.3126220703125,-0.748504638671875,0.18310546875,0.244140625,0.0,0.442626953125,-0.8031005859375,0.394287109375,-295.0,148.0,-150.0,101693.0,-3.06600022315979,0,0
1.7768980999971973,0.371185302734375,-0.45184326171875,0.3126220703125,-0.748504638671875,0.18310546875,0.244140625,0.0,0.442626953125,-0.8031005859375,0.394287109375,-295.0,148.0,-150.0,101693.0,-3.06600022315979,0,0
1.7769523000024492,0.37115478515625,-0.45184326171875,0.3126220703125,-0.748504638671875,0.06103515625,-0.1220703125,-0.244140625,0.445556640625,-0.8021240234375,0.3966064453125,-295.0,148.0,-150.0,101693.0,-3.06600022315979,0,0
1.7770067999954335,0.371185302734375,-0.45184326171875,0.3126220703125,-0.748504638671875,0.244140625,-0.06103515625,0.0,0.445068359375,-0.802490234375,0.396728515625,-295.0,148.0,-150.0,101693.0,-3.06600022315979,0,0
1.7770839000004344,0.371185302734375,-0.45184326171875,0.3126220703125,-0.748504638671875,-0.06103515625,-0.06103515625,-0.06103515625,0.4432373046875,-0.80322265625,0.3975830078125,-295.0,148.0,-150.0,101693.0,-3.06600022315979,0,0
1.7771381999918958,0.371185302734375,-0.45184326171875,0.3126220703125,-0.74853515625,0.30517578125,-0.18310546875,-0.1220703125,0.443359375,-0.8017578125,0.395751953125,-295.0,148.0,-150.0,101693.0,-3.06600022315979,0,0
1.7771922999963863,0.371185302734375,-0.45184326171875,0.3126220703125,-0.74853515625,0.18310546875,-0.1220703125,-0.1220703125,0.4443359375,-0.8023681640625,0.3961181640625,-295.0,148.0,-150.0,101693.0,-3.064000129699707,0,0
1.7772460999985924,0.371185302734375,-0.45184326171875,0.3126220703125,-0.74853515625,0.18310546875,0.06103515625,0.30517578125,0.44482421875,-0.8018798828125,0.3953857421875,-295.0,148.0,-150.0,101693.0,-3.064000129699707,0,0
1.7772994999977527,0.371185302734375,-0.45184326171875,0.3126220703125,-0.748504638671875,-0.244140625,-0.1220703125,-0.244140625,0.444091796875,-0.8023681640625,0.394287109375,-295.0,148.0,-150.0,101693.0,-3.064000129699707,0,0
1.7773529999976745,0.371185302734375,-0.45184326171875,0.3126220703125,-0.748504638671875,-0.06103515625,-0.1220703125,-0.1220703125,0.4403076171875,-0.8013916015625,0.394775390625,-295.0,148.0,-150.0,101693.0,-3.064000129699707,0,0
1.835178299996187,0.371063232421875,-0.451812744140625,0.31268310546875,-0.748565673828125,0.18310546875,0.06103515625,-0.06103515625,0.4443359375,-0.8028564453125,0.3951416015625,-295.0,147.0,-149.0,101693.0,-3.064000129699707,0,0
1.835246200003894,0.371063232421875,-0.451812744140625,0.31268310546875,-0.748565673828125,0.1220703125,0.1220703125,-0.244140625,0.4453125,-0.8035888671875,0.39599609375,-295.0,147.0,-149.0,101693.0,-3.064000129699707,0,0
1.8353050000005169,0.371063232421875,-0.451812744140625,0.312652587890625,-0.748565673828125,0.1220703125,-0.18310546875,0.06103515625,0.4443359375,-0.8018798828125,0.396484375,-295.0,147.0,-149.0,101693.0,-3.064000129699707,0,0
1.835363199992571,0.371063232421875,-0.451812744140625,0.312652587890625,-0.748565673828125,0.06103515625,-0.1220703125,0.06103515625,0.4461669921875,-0.8011474609375,0.395263671875,-295.0,147.0,-149.0,101693.0,-3.064000129699707,0,0
1.8354192999977386,0.371063232421875,-0.451812744140625,0.312652587890625,-0.748565673828125,-0.244140625,-0.1220703125,-0.18310546875,0.4451904296875,-0.8028564453125,0.3955078125,-295.0,147.0,-149.0,101693.0,-3.064000129699707,0,0
1.8355387999908999,0.371063232421875,-0.451812744140625,0.312652587890625,-0.748565673828125,-0.06103515625,-0.1220703125,0.1220703125,0.4464111328125,-0.8021240234375,0.396728515625,-295.0,147.0,-149.0,101693.0,-3.064000129699707,0,0
1.8355924999923445,0.371063232421875,-0.451812744140625,0.312652587890625,-0.748565673828125,-0.1220703125,0.1220703125,0.1220703125,0.440673828125,-0.7998046875,0.39697265625,-295.0,147.0,-149.0,101693.0,-3.064000129699707,0,0
1.835644599996158,0.371063232421875,-0.451812744140625,0.312652587890625,-0.748565673828125,0.1220703125,-0.1220703125,-0.1220703125,0.4432373046875,-0.8013916015625,0.396728515625,-295.0,147.0,-149.0,101693.0,-3.064000129699707,0,0
1.8356972000037786,0.371063232421875,-0.451812744140625,0.312652587890625,-0.748565673828125,0.1220703125,-0.1220703125,-0.1220703125,0.4432373046875,-0.8013916015625,0.396728515625,-295.0,147.0,-149.0,101693.0,-3.064000129699707,0,0
1.8357493999938015,0.371063232421875,-0.451812744140625,0.312652587890625,-0.74859619140625,-0.1220703125,0.0,-0.06103515625,0.4437255859375,-0.80029296875,0.39599609375,-295.0,147.0,-149.0,101693.0,-3.064000129699707,0,0
1.8358016999991378,0.371063232421875,-0.451812744140625,0.312652587890625,-0.74859619140625,0.244140625,0.0,-0.1220703125,0.4439697265625,-0.8018798828125,0.39794921875,-295.0,147.0,-149.0,101693.0,-3.064000129699707,0,0
1.8974133000010625,0.371063232421875,-0.451812744140625,0.3126220703125,-0.74859619140625,0.3662109375,0.0,0.06103515625,0.4423828125,-0.799072265625,0.3973388671875,-295.0,147.0,-149.0,101693.0,-3.064000129699707,0,0
1.8974786000035238,0.371063232421875,-0.4517822265625,0.3126220703125,-0.74859619140625,0.0,0.06103515625,-0.06103515625,0.445556640625,-0.802490234375,0.3966064453125,-295.0,147.0,-149.0,101693.0,-3.063000202178955,0,0
1.8975421999930404,0.371063232421875,-0.4517822265625,0.3126220703125,-0.74859619140625,0.48828125,0.06103515625,-0.1220703125,0.4442138671875,-0.8037109375,0.3975830078125,-295.0,147.0,-149.0,101693.0,-3.063000202178955,0,0
1.8976036999956705,0.371063232421875,-0.4517822265625,0.312652587890625,-0.74859619140625,0.0,-0.1220703125,-0.1220703125,0.4404296875,-0.80224609375,0.3956298828125,-295.0,147.0,-149.0,101693.0,-3.063000202178955,0,0
1.8976605999923777,0.371063232421875,-0.4517822265625,0.312652587890625,-0.74859619140625,0.0,-0.1220703125,-0.1220703125,0.4404296875,-0.80224609375,0.3956298828125,-295.0,147.0,-149.0,101693.0,-3.063000202178955,0,0
1.897973600003752,0.371063232421875,-0.4517822265625,0.3126220703125,-0.74859619140625,-0.18310546875,-0.30517578125,-0.18310546875,0.4442138671875,-0.80224609375,0.3975830078125,-294.0,148.0,-148.0,101693.0,-3.063000202178955,0,0
1.8980391999939457,0.37127685546875,-0.451873779296875,0.3125,-0.748504638671875,0.0,-0.18310546875,-0.06103515625,0.4434814453125,-0.802001953125,0.3978271484375,-294.0,148.0,-148.0,101693.0,-3.063000202178955,0,0
1.8980970999982674,0.37127685546875,-0.451873779296875,0.312530517578125,-0.748504638671875,0.0,0.0,0.06103515625,0.4425048828125,-0.8035888671875,0.395751953125,-294.0,148.0,-148.0,101693.0,-3.063000202178955,0,0
1.8981548000010662,0.37127685546875,-0.451873779296875,0.312530517578125,-0.748504638671875,-0.1220703125,-0.06103515625,-0.06103515625,0.4434814453125,-0.8016357421875,0.3961181640625,-294.0,148.0,-148.0,101693.0,-3.063000202178955,0,0
1.8982107000047108,0.37127685546875,-0.45184326171875,0.312530517578125,-0.748504638671875,0.18310546875,0.06103515625,-0.18310546875,0.4425048828125,-0.802001953125,0.3956298828125,-294.0,148.0,-148.0,101693.0,-3.063000202178955,0,0
1.8982658000022639,0.37127685546875,-0.45184326171875,0.312530517578125,-0.748504638671875,-0.1220703125,-0.06103515625,-0.06103515625,0.4420166015625,-0.8017578125,0.3968505859375,-294.0,148.0,-148.0,101693.0,-3.063000202178955,0,0
1.9628950999904191,0.37127685546875,-0.45184326171875,0.312530517578125,-0.748504638671875,0.1220703125,-0.06103515625,0.06103515625,0.4417724609375,-0.80126953125,0.3974609375,-294.0,148.0,-148.0,101693.0,-3.063000202178955,0,0
1.9629638999904273,0.37127685546875,-0.45184326171875,0.312530517578125,-0.748504638671875,0.1220703125,-0.06103515625,0.06103515625,0.4417724609375,-0.80126953125,0.3974609375,-294.0,148.0,-148.0,101693.0,-3.063000202178955,0,0
1.9630212999909418,0.37127685546875,-0.45184326171875,0.3125,-0.748504638671875,0.18310546875,0.06103515625,-0.1220703125,0.44140625,-0.802734375,0.39794921875,-294.0,148.0,-148.0,101693.0,-3.063000202178955,0,0
1.9630786999914562,0.37127685546875,-0.45184326171875,0.3125,-0.748504638671875,0.18310546875,0.06103515625,-0.1220703125,0.44140625,-0.802734375,0.39794921875,-294.0,148.0,-148.0,101693.0,-3.063000202178955,0,0
1.96315670000331,0.371307373046875,-0.451812744140625,0.3125,-0.748504638671875,0.30517578125,-0.244140625,0.0,0.4443359375,-0.802978515625,0.3983154296875,-294.0,148.0,-148.0,101693.0,-3.063000202178955,0,0
1.9632128999946872,0.371307373046875,-0.451812744140625,0.3125,-0.74853515625,-0.06103515625,-0.18310546875,-0.06103515625,0.44189453125,-0.8018798828125,0.3978271484375,-294.0,148.0,-148.0,101693.0,-3.063000202178955,0,0
1.9632715999905486,0.371307373046875,-0.451812744140625,0.3125,-0.74853515625,0.0,-0.1220703125,-0.1220703125,0.4439697265625,-0.80224609375,0.39697265625,-294.0,148.0,-148.0,101693.0,-3.063000202178955,0,0
1.9634685999917565,0.371307373046875,-0.451812744140625,0.3125,-0.74853515625,0.30517578125,-0.06103515625,-0.06103515625,0.44384765625,-0.8026123046875,0.3980712890625,-294.0,148.0,-148.0,101693.0,-3.063000202178955,0,0
1.9635318999935407,0.371307373046875,-0.451812744140625,0.3125,-0.74853515625,0.06103515625,-0.06103515625,0.0,0.443359375,-0.7994384765625,0.3975830078125,-294.0,148.0,-148.0,101693.0,-3.063000202178955,0,0
1.9635915999970166,0.371307373046875,-0.451812744140625,0.3125,-0.74853515625,-0.1220703125,-0.06103515625,0.0,0.444091796875,-0.8021240234375,0.3973388671875,-294.0,148.0,-148.0,101693.0,-3.063000202178955,0,0
1.9636488999967696,0.371307373046875,-0.4517822265625,0.3125,-0.74853515625,0.1220703125,0.06103515625,-0.18310546875,0.444091796875,-0.8028564453125,0.39599609375,-294.0,148.0,-148.0,101693.0,-3.063000202178955,0,0
1.9637049000011757,0.371307373046875,-0.4517822265625,0.312469482421875,-0.74853515625,0.0,0.0,0.0,0.4427490234375,-0.803466796875,0.3968505859375,-294.0,148.0,-148.0,101693.0,-3.062000036239624,0,0
1.9637604000017745,0.371307373046875,-0.4517822265625,0.312469482421875,-0.74853515625,0.0,0.0,0.0,0.4427490234375,-0.803466796875,0.3968505859375,-294.0,148.0,-148.0,101693.0,-3.062000036239624,0,0
2.027537599991774,0.371307373046875,-0.4517822265625,0.312469482421875,-0.74853515625,0.244140625,-0.1220703125,-0.1220703125,0.44482421875,-0.8038330078125,0.396240234375,-295.0,149.0,-149.0,101693.0,-3.062000036239624,0,0
2.027610699995421,0.371307373046875,-0.4517822265625,0.312469482421875,-0.74853515625,-0.244140625,-0.1220703125,0.0,0.4442138671875,-0.8023681640625,0.3955078125,-295.0,149.0,-149.0,101693.0,-3.062000036239624,0,0
2.027672900003381,0.371307373046875,-0.4517822265625,0.312469482421875,-0.74853515625,0.1220703125,0.0,-0.1220703125,0.445068359375,-0.8023681640625,0.3973388671875,-295.0,149.0,-149.0,101693.0,-3.062000036239624,0,0
2.027730000001611,0.371307373046875,-0.4517822265625,0.312469482421875,-0.748565673828125,0.1220703125,0.0,0.0,0.4443359375,-0.8011474609375,0.39892578125,-295.0,149.0,-149.0,101693.0,-3.062000036239624,0,0
2.0277864999952726,0.371307373046875,-0.4517822265625,0.312469482421875,-0.748565673828125,-0.06103515625,-0.18310546875,-0.244140625,0.44482421875,-0.8043212890625,0.3994140625,-295.0,149.0,-149.0,101693.0,-3.062000036239624,0,0
2.028767700001481,0.371307373046875,-0.451751708984375,0.312469482421875,-0.748565673828125,0.1220703125,0.06103515625,-0.30517578125,0.4420166015625,-0.801513671875,0.3985595703125,-295.0,149.0,-149.0,101693.0,-3.062000036239624,0,0
2.028834500000812,0.371307373046875,-0.451751708984375,0.312469482421875,-0.748565673828125,-0.1220703125,0.1220703125,0.0,0.44091796875,-0.8013916015625,0.3975830078125,-295.0,149.0,-149.0,101693.0,-3.062000036239624,0,0
2.028893299997435,0.371307373046875,-0.451751708984375,0.312469482421875,-0.748565673828125,-0.1220703125,0.1220703125,0.0,0.44091796875,-0.8013916015625,0.3975830078125,-295.0,149.0,-149.0,101693.0,-3.062000036239624,0,0
2.0289502999949036,0.371307373046875,-0.451751708984375,0.31243896484375,-0.748565673828125,0.06103515625,0.1220703125,0.18310546875,0.4442138671875,-0.8016357421875,0.3984375,-295.0,149.0,-149.0,101693.0,-3.062000036239624,0,0
2.029006800003117,0.371307373046875,-0.451751708984375,0.31243896484375,-0.748565673828125,0.0,0.06103515625,0.0,0.443115234375,-0.802490234375,0.39794921875,-295.0,149.0,-149.0,101693.0,-3.062000036239624,0,0
2.0290628999937326,0.371337890625,-0.451751708984375,0.31243896484375,-0.748565673828125,0.18310546875,0.0,0.0,0.443359375,-0.802978515625,0.3985595703125,-295.0,149.0,-149.0,101693.0,-3.062000036239624,0,0
2.0936323999922024,0.371337890625,-0.45172119140625,0.31243896484375,-0.74859619140625,-0.06103515625,0.0,-0.06103515625,0.4459228515625,-0.8023681640625,0.3966064453125,-295.0,149.0,-149.0,101693.0,-3.062000036239624,0,0
2.0936958999955095,0.371337890625,-0.45172119140625,0.31243896484375,-0.74859619140625,-0.06103515625,0.18310546875,-0.06103515625,0.445556640625,-0.80224609375,0.3968505859375,-295.0,149.0,-149.0,101693.0,-3.062000036239624,0,0
2.0937523000029614,0.371337890625,-0.45172119140625,0.31243896484375,-0.74859619140625,0.06103515625,0.1220703125,-0.06103515625,0.4449462890625,-0.8023681640625,0.399169921875,-295.0,149.0,-149.0,101693.0,-3.062000036239624,0,0
2.093807500001276,0.371337890625,-0.45172119140625,0.31243896484375,-0.74859619140625,0.06103515625,0.1220703125,-0.06103515625,0.4449462890625,-0.8023681640625,0.399169921875,-295.0,149.0,-149.0,101693.0,-3.062000036239624,0,0
2.0938639999949373,0.371337890625,-0.45172119140625,0.312408447265625,-0.74859619140625,-0.1220703125,-0.1220703125,-0.1220703125,0.4434814453125,-0.8043212890625,0.3983154296875,-295.0,149.0,-149.0,101693.0,-3.065000057220459,0,0
2.093938599995454,0.371337890625,-0.45172119140625,0.312408447265625,-0.74859619140625,0.06103515625,-0.30517578125,-0.06103515625,0.4437255859375,-0.8031005859375,0.3980712890625,-295.0,149.0,-149.0,101693.0,-3.065000057220459,0,0
2.0939944999990985,0.371337890625,-0.45172119140625,0.312408447265625,-0.74859619140625,0.0,0.0,-0.244140625,0.4437255859375,-0.8017578125,0.396728515625,-295.0,149.0,-149.0,101693.0,-3.065000057220459,0,0
2.094051499996567,0.371337890625,-0.451690673828125,0.312408447265625,-0.748626708984375,0.30517578125,-0.1220703125,-0.30517578125,0.442138671875,-0.8006591796875,0.3995361328125,-295.0,150.0,-147.0,101693.0,-3.065000057220459,0,0
2.0941075000009732,0.371551513671875,-0.4517822265625,0.312286376953125,-0.748504638671875,-0.06103515625,-0.18310546875,-0.244140625,0.4447021484375,-0.8017578125,0.3988037109375,-295.0,150.0,-147.0,101693.0,-3.065000057220459,0,0
2.0941599999932805,0.371551513671875,-0.4517822265625,0.312286376953125,-0.74853515625,0.18310546875,0.0,0.06103515625,0.4422607421875,-0.8021240234375,0.3988037109375,-295.0,150.0,-147.0,101693.0,-3.065000057220459,0,0
2.09421100000327,0.371551513671875,-0.451751708984375,0.312255859375,-0.74853515625,0.0,0.0,0.0,0.4451904296875,-0.801513671875,0.3983154296875,-295.0,150.0,-147.0,101693.0,-3.065000057220459,0,0
2.156209199994919,0.371551513671875,-0.451751708984375,0.312255859375,-0.74853515625,0.30517578125,-0.1220703125,0.1220703125,0.44482421875,-0.8031005859375,0.39697265625,-295.0,150.0,-147.0,101693.0,-3.065000057220459,0,0
2.1562711000005947,0.371551513671875,-0.451751708984375,0.312255859375,-0.74853515625,0.30517578125,0.18310546875,0.06103515625,0.4439697265625,-0.8011474609375,0.398193359375,-295.0,150.0,-147.0,101693.0,-3.065000057220459,0,0
2.156325799995102,0.371551513671875,-0.451751708984375,0.312255859375,-0.74853515625,0.30517578125,0.18310546875,0.06103515625,0.4439697265625,-0.8011474609375,0.398193359375,-295.0,150.0,-147.0,101693.0,-3.065000057220459,0,0
2.1563792999950238,0.371551513671875,-0.451751708984375,0.312255859375,-0.74853515625,-0.06103515625,0.06103515625,-0.1220703125,0.4437255859375,-0.8018798828125,0.3975830078125,-295.0,150.0,-147.0,101693.0,-3.065000057220459,0,0
2.1564790999982506,0.371551513671875,-0.451751708984375,0.312255859375,-0.748565673828125,0.1220703125,0.0,-0.1220703125,0.44482421875,-0.801513671875,0.4010009765625,-295.0,150.0,-147.0,101693.0,-3.065000057220459,0,0
2.156535999994958,0.371551513671875,-0.451751708984375,0.312225341796875,-0.748565673828125,-0.06103515625,0.0,-0.06103515625,0.4461669921875,-0.802978515625,0.3966064453125,-295.0,150.0,-147.0,101693.0,-3.065000057220459,0,0
2.156610099991667,0.371551513671875,-0.451751708984375,0.312225341796875,-0.748565673828125,0.1220703125,0.0,-0.1220703125,0.4456787109375,-0.80322265625,0.39990234375,-295.0,150.0,-147.0,101693.0,-3.065000057220459,0,0
2.1566803000023356,0.371551513671875,-0.45172119140625,0.312225341796875,-0.748565673828125,0.06103515625,-0.18310546875,0.06103515625,0.4437255859375,-0.80322265625,0.39990234375,-295.0,150.0,-147.0,101693.0,-3.065000057220459,0,0
2.156734399992274,0.371551513671875,-0.45172119140625,0.312225341796875,-0.748565673828125,0.06103515625,-0.1220703125,0.244140625,0.4437255859375,-0.80322265625,0.3988037109375,-295.0,150.0,-147.0,101693.0,-3.065000057220459,0,0
2.156785899991519,0.371551513671875,-0.45172119140625,0.312225341796875,-0.748565673828125,0.06103515625,-0.1220703125,0.244140625,0.4437255859375,-0.80322265625,0.3988037109375,-295.0,150.0,-147.0,101693.0,-3.065000057220459,0,0
2.1568380999960937,0.371551513671875,-0.45172119140625,0.312225341796875,-0.748565673828125,0.18310546875,0.06103515625,0.0,0.44384765625,-0.8016357421875,0.398681640625,-295.0,150.0,-147.0,101693.0,-3.065000057220459,0,0
2.156890600002953,0.371551513671875,-0.45172119140625,0.312225341796875,-0.748565673828125,0.18310546875,0.06103515625,0.0,0.44384765625,-0.8016357421875,0.398681640625,-295.0,150.0,-147.0,101693.0,-3.065000057220459,0,0
2.156942400004482,0.371551513671875,-0.45172119140625,0.31219482421875,-0.74859619140625,0.1220703125,0.1220703125,-0.1220703125,0.4429931640625,-0.8017578125,0.39794921875,-295.0,150.0,-147.0,101693.0,-3.065000057220459,0,0
2.2238849999994272,0.371551513671875,-0.45172119140625,0.31219482421875,-0.74859619140625,0.0,-0.18310546875,-0.1220703125,0.444580078125,-0.8033447265625,0.3990478515625,-295.0,150.0,-147.0,101693.0,-3.062000036239624,0,0
2.223945799996727,0.371551513671875,-0.45172119140625,0.31219482421875,-0.74859619140625,0.0,0.0,-0.18310546875,0.444091796875,-0.803955078125,0.3978271484375,-294.0,151.0,-148.0,101693.0,-3.062000036239624,0,0
2.2240023000049405,0.371551513671875,-0.451690673828125,0.31219482421875,-0.74859619140625,-0.1220703125,0.1220703125,-0.06103515625,0.44384765625,-0.8013916015625,0.398681640625,-294.0,151.0,-148.0,101693.0,-3.062000036239624,0,0
2.224057700004778,0.37176513671875,-0.4517822265625,0.31207275390625,-0.748504638671875,-0.244140625,-0.06103515625,0.06103515625,0.44287109375,-0.802490234375,0.3997802734375,-294.0,151.0,-148.0,101693.0,-3.062000036239624,0,0
2.2241129000030924,0.37176513671875,-0.451751708984375,0.31207275390625,-0.748504638671875,0.3662109375,0.18310546875,0.1220703125,0.4432373046875,-0.80224609375,0.3980712890625,-294.0,151.0,-148.0,101693.0,-3.062000036239624,0,0
2.2744143000018084,0.37176513671875,-0.451751708984375,0.312042236328125,-0.748504638671875,-0.1220703125,0.1220703125,-0.06103515625,0.443359375,-0.8035888671875,0.3978271484375,-294.0,151.0,-148.0,101693.0,-3.062000036239624,0,0
2.2744768999982625,0.37176513671875,-0.451751708984375,0.312042236328125,-0.748504638671875,-0.1220703125,0.1220703125,-0.06103515625,0.443359375,-0.8035888671875,0.3978271484375,-294.0,151.0,-148.0,101693.0,-3.062000036239624,0,0
2.274532499999623,0.37176513671875,-0.451751708984375,0.312042236328125,-0.748504638671875,0.06103515625,0.0,-0.244140625,0.4443359375,-0.8011474609375,0.3983154296875,-294.0,151.0,-148.0,101693.0,-3.062000036239624,0,0
2.2745864000025904,0.37176513671875,-0.451751708984375,0.312042236328125,-0.748504638671875,-0.1220703125,0.1220703125,0.0,0.445068359375,-0.8023681640625,0.398193359375,-294.0,151.0,-148.0,101693.0,-3.062000036239624,0,0
2.2746402000047965,0.37176513671875,-0.451751708984375,0.312042236328125,-0.74853515625,0.0,-0.1220703125,0.06103515625,0.44482421875,-0.8028564453125,0.400146484375,-294.0,151.0,-148.0,101693.0,-3.062000036239624,0,0
2.2746938999916892,0.37176513671875,-0.451751708984375,0.312042236328125,-0.74853515625,0.18310546875,-0.1220703125,0.30517578125,0.44482421875,-0.8037109375,0.3975830078125,-294.0,151.0,-148.0,101693.0,-3.062000036239624,0,0
2.277342999994289,0.37176513671875,-0.451751708984375,0.31201171875,-0.74853515625,0.1220703125,0.0,0.06103515625,0.4471435546875,-0.803466796875,0.3975830078125,-294.0,151.0,-148.0,101693.0,-3.062000036239624,0,0
2.2774038999923505,0.37176513671875,-0.451751708984375,0.31201171875,-0.74853515625,-0.1220703125,-0.1220703125,-0.06103515625,0.4459228515625,-0.80224609375,0.3985595703125,-294.0,151.0,-148.0,101693.0,-3.062000036239624,0,0
2.277458199998364,0.37176513671875,-0.451751708984375,0.31201171875,-0.74853515625,-0.1220703125,-0.1220703125,-0.06103515625,0.4459228515625,-0.80224609375,0.3985595703125,-294.0,151.0,-148.0,101693.0,-3.062000036239624,0,0
2.2775124000036158,0.37176513671875,-0.45172119140625,0.31201171875,-0.74853515625,-0.18310546875,-0.06103515625,-0.1220703125,0.44482421875,-0.80322265625,0.3975830078125,-294.0,151.0,-148.0,101693.0,-3.062000036239624,0,0
2.2775662999920314,0.37176513671875,-0.45172119140625,0.311981201171875,-0.748565673828125,-0.06103515625,-0.06103515625,0.0,0.445068359375,-0.800048828125,0.40087890625,-294.0,151.0,-148.0,101693.0,-3.062000036239624,0,0
2.2795560999948066,0.37176513671875,-0.45172119140625,0.311981201171875,-0.748565673828125,0.3662109375,-0.1220703125,0.0,0.4432373046875,-0.80224609375,0.3992919921875,-294.0,151.0,-148.0,101693.0,-3.062000036239624,0,0
2.2796162000013283,0.37176513671875,-0.45172119140625,0.311981201171875,-0.748565673828125,-0.06103515625,-0.3662109375,0.0,0.4422607421875,-0.803466796875,0.3980712890625,-294.0,151.0,-148.0,101693.0,-3.065000057220459,0,0
2.2796892000042135,0.37176513671875,-0.45172119140625,0.311981201171875,-0.748565673828125,-0.1220703125,-0.06103515625,-0.1220703125,0.4442138671875,-0.8009033203125,0.398681640625,-294.0,151.0,-148.0,101693.0,-3.065000057220459,0,0
2.2797463000024436,0.37176513671875,-0.45172119140625,0.311981201171875,-0.748565673828125,0.06103515625,0.0,-0.244140625,0.446044921875,-0.804443359375,0.3992919921875,-294.0,151.0,-148.0,101693.0,-3.065000057220459,0,0
2.2798021999915363,0.37176513671875,-0.45172119140625,0.311981201171875,-0.748565673828125,-0.06103515625,-0.1220703125,-0.30517578125,0.4461669921875,-0.8004150390625,0.3990478515625,-294.0,151.0,-148.0,101693.0,-3.065000057220459,0,0
2.2798686000023736,0.371978759765625,-0.4517822265625,0.311859130859375,-0.74847412109375,0.3662109375,-0.18310546875,-0.06103515625,0.445556640625,-0.802978515625,0.4002685546875,-294.0,151.0,-148.0,101693.0,-3.065000057220459,0,0
2.2799363999947673,0.371978759765625,-0.4517822265625,0.31182861328125,-0.74847412109375,0.18310546875,0.06103515625,-0.244140625,0.4434814453125,-0.8021240234375,0.3997802734375,-294.0,151.0,-148.0,101693.0,-3.065000057220459,0,0
2.3458910000044852,0.371978759765625,-0.4517822265625,0.31182861328125,-0.74847412109375,0.18310546875,0.06103515625,-0.244140625,0.4434814453125,-0.8021240234375,0.3997802734375,-294.0,151.0,-148.0,101693.0,-3.065000057220459,0,0
2.3459613000013633,0.371978759765625,-0.4517822265625,0.31182861328125,-0.74847412109375,0.3662109375,0.1220703125,0.06103515625,0.4447021484375,-0.8013916015625,0.3975830078125,-294.0,151.0,-148.0,101693.0,-3.065000057220459,0,0
2.346020299999509,0.371978759765625,-0.451751708984375,0.31182861328125,-0.74847412109375,-0.244140625,-0.244140625,0.06103515625,0.44091796875,-0.8013916015625,0.396728515625,-294.0,151.0,-148.0,101693.0,-3.065000057220459,0,0
2.3460736999986693,0.371978759765625,-0.451751708984375,0.31182861328125,-0.74847412109375,0.30517578125,0.18310546875,0.06103515625,0.4434814453125,-0.8031005859375,0.396728515625,-294.0,151.0,-148.0,101693.0,-3.065000057220459,0,0
2.3461280999908922,0.371978759765625,-0.451751708984375,0.31182861328125,-0.748504638671875,0.1220703125,-0.06103515625,0.244140625,0.44580078125,-0.8033447265625,0.3995361328125,-294.0,151.0,-148.0,101693.0,-3.065000057220459,0,0
2.34618199999386,0.371978759765625,-0.451751708984375,0.31182861328125,-0.748504638671875,0.06103515625,0.0,-0.06103515625,0.4451904296875,-0.80126953125,0.398681640625,-294.0,151.0,-148.0,101693.0,-3.065000057220459,0,0
2.346875599992927,0.371978759765625,-0.451751708984375,0.31182861328125,-0.748504638671875,0.06103515625,-0.244140625,-0.1220703125,0.44482421875,-0.80224609375,0.396728515625,-294.0,151.0,-148.0,101693.0,-3.065000057220459,0,0
2.346969699996407,0.371978759765625,-0.451751708984375,0.31182861328125,-0.748504638671875,-0.244140625,-0.06103515625,-0.1220703125,0.4432373046875,-0.8037109375,0.3973388671875,-294.0,151.0,-148.0,101693.0,-3.065000057220459,0,0
2.3471306999999797,0.371978759765625,-0.451751708984375,0.31182861328125,-0.748504638671875,-0.1220703125,-0.1220703125,0.18310546875,0.44482421875,-0.8017578125,0.3985595703125,-294.0,151.0,-148.0,101693.0,-3.065000057220459,0,0
2.3471947999933036,0.371978759765625,-0.451751708984375,0.31182861328125,-0.748504638671875,-0.1220703125,-0.1220703125,0.18310546875,0.44482421875,-0.8017578125,0.3985595703125,-294.0,151.0,-148.0,101693.0,-3.065000057220459,0,0
2.3480839999974705,0.371978759765625,-0.451751708984375,0.31182861328125,-0.748504638671875,-0.1220703125,-0.06103515625,-0.1220703125,0.4423828125,-0.8026123046875,0.398193359375,-294.0,151.0,-148.0,101693.0,-3.065000057220459,0,0
2.3481540999928256,0.371978759765625,-0.451751708984375,0.31182861328125,-0.748504638671875,-0.18310546875,0.06103515625,-0.18310546875,0.4451904296875,-0.803466796875,0.3980712890625,-294.0,151.0,-148.0,101693.0,-3.065000057220459,0,0
2.4083260000043083,0.371978759765625,-0.451751708984375,0.31182861328125,-0.748504638671875,0.0,0.0,-0.18310546875,0.444091796875,-0.8013916015625,0.3980712890625,-294.0,151.0,-148.0,101693.0,-3.061000108718872,0,0
2.4083894999930635,0.371978759765625,-0.451751708984375,0.31182861328125,-0.748504638671875,-0.1220703125,0.0,-0.3662109375,0.443359375,-0.800537109375,0.398681640625,-294.0,151.0,-148.0,101693.0,-3.061000108718872,0,0
2.408446300003561,0.371978759765625,-0.451751708984375,0.311798095703125,-0.748504638671875,0.18310546875,-0.06103515625,-0.244140625,0.4456787109375,-0.8017578125,0.398193359375,-294.0,151.0,-148.0,101693.0,-3.061000108718872,0,0
2.408501300000353,0.371978759765625,-0.45172119140625,0.311798095703125,-0.748504638671875,0.18310546875,0.0,0.0,0.4444580078125,-0.7996826171875,0.3997802734375,-295.0,151.0,-147.0,101693.0,-3.061000108718872,0,0
2.408556900001713,0.372100830078125,-0.4517822265625,0.311737060546875,-0.74847412109375,0.0,0.0,0.42724609375,0.4453125,-0.8037109375,0.399169921875,-295.0,151.0,-147.0,101693.0,-3.061000108718872,0,0
2.4116994999931194,0.372100830078125,-0.4517822265625,0.311737060546875,-0.74847412109375,0.0,0.0,0.42724609375,0.4453125,-0.8037109375,0.399169921875,-295.0,151.0,-147.0,101693.0,-3.061000108718872,0,0
2.4117633999994723,0.372100830078125,-0.4517822265625,0.311737060546875,-0.74847412109375,-0.06103515625,0.18310546875,0.1220703125,0.445068359375,-0.80419921875,0.3980712890625,-295.0,151.0,-147.0,101693.0,-3.061000108718872,0,0
2.411818399996264,0.372100830078125,-0.451751708984375,0.311737060546875,-0.74847412109375,0.244140625,0.06103515625,-0.06103515625,0.443115234375,-0.802978515625,0.3970947265625,-295.0,151.0,-147.0,101693.0,-3.061000108718872,0,0
2.411871999996947,0.372100830078125,-0.451751708984375,0.311737060546875,-0.74847412109375,-0.06103515625,-0.42724609375,-0.244140625,0.4442138671875,-0.802978515625,0.39990234375,-295.0,151.0,-147.0,101693.0,-3.061000108718872,0,0
2.4119255999976303,0.372100830078125,-0.451751708984375,0.311737060546875,-0.74847412109375,-0.18310546875,-0.244140625,-0.244140625,0.4447021484375,-0.8035888671875,0.3978271484375,-295.0,151.0,-147.0,101693.0,-3.061000108718872,0,0
2.411979299999075,0.372100830078125,-0.451751708984375,0.311737060546875,-0.74847412109375,-0.6103515625,-0.30517578125,-0.1220703125,0.4443359375,-0.8026123046875,0.3992919921875,-295.0,151.0,-147.0,101693.0,-3.061000108718872,0,0
2.4120309999998426,0.372100830078125,-0.451751708984375,0.311737060546875,-0.74847412109375,0.0,0.06103515625,0.06103515625,0.44482421875,-0.8065185546875,0.3994140625,-295.0,151.0,-147.0,101693.0,-3.061000108718872,0,0
2.4741489000007277,0.372100830078125,-0.451751708984375,0.311737060546875,-0.74847412109375,0.30517578125,0.1220703125,0.244140625,0.447265625,-0.8067626953125,0.400390625,-295.0,151.0,-147.0,101693.0,-3.061000108718872,0,0
2.4742123000032734,0.372100830078125,-0.451751708984375,0.311737060546875,-0.74847412109375,0.06103515625,-0.18310546875,-0.06103515625,0.4410400390625,-0.8037109375,0.3985595703125,-295.0,151.0,-147.0,101693.0,-3.061000108718872,0,0
2.474270599996089,0.372100830078125,-0.45172119140625,0.311737060546875,-0.74847412109375,0.1220703125,-0.18310546875,-0.244140625,0.4403076171875,-0.801513671875,0.3975830078125,-295.0,151.0,-147.0,101693.0,-3.061000108718872,0,0
2.4743259999959264,0.372100830078125,-0.451751708984375,0.311737060546875,-0.74847412109375,0.0,-0.244140625,-0.3662109375,0.4451904296875,-0.7998046875,0.3961181640625,-295.0,151.0,-147.0,101693.0,-3.061000108718872,0,0
2.4744716999994125,0.372100830078125,-0.451751708984375,0.311737060546875,-0.74847412109375,0.1220703125,-0.30517578125,-0.6103515625,0.440673828125,-0.799072265625,0.3956298828125,-295.0,151.0,-147.0,101693.0,-3.061000108718872,0,0
2.47452780000458,0.372100830078125,-0.451751708984375,0.311737060546875,-0.74847412109375,-0.18310546875,-0.06103515625,-0.48828125,0.4432373046875,-0.7987060546875,0.3966064453125,-295.0,151.0,-147.0,101693.0,-3.061000108718872,0,0
2.4745812000037404,0.372100830078125,-0.451751708984375,0.311737060546875,-0.74847412109375,0.244140625,0.06103515625,-0.244140625,0.445068359375,-0.802001953125,0.3983154296875,-295.0,151.0,-147.0,101693.0,-3.063000202178955,0,0
2.4746369999920717,0.372100830078125,-0.451751708984375,0.311737060546875,-0.74847412109375,0.3662109375,0.06103515625,0.1220703125,0.4454345703125,-0.8017578125,0.3956298828125,-295.0,151.0,-147.0,101693.0,-3.063000202178955,0,0
2.4746909999958007,0.372100830078125,-0.451751708984375,0.311737060546875,-0.74847412109375,-0.244140625,-0.06103515625,0.1220703125,0.445556640625,-0.8035888671875,0.39794921875,-295.0,151.0,-147.0,101693.0,-3.063000202178955,0,0
2.4747452000010526,0.372100830078125,-0.45172119140625,0.311737060546875,-0.748504638671875,-0.244140625,-0.06103515625,0.30517578125,0.4443359375,-0.8026123046875,0.40185546875,-294.0,151.0,-148.0,101693.0,-3.063000202178955,0,0
2.4747982999979286,0.372100830078125,-0.45172119140625,0.311737060546875,-0.748504638671875,-0.244140625,-0.06103515625,0.30517578125,0.4443359375,-0.8026123046875,0.40185546875,-294.0,151.0,-148.0,101693.0,-3.063000202178955,0,0
2.5358975999988616,0.372314453125,-0.451812744140625,0.311614990234375,-0.748382568359375,0.0,-0.18310546875,-0.1220703125,0.44189453125,-0.7999267578125,0.3956298828125,-294.0,151.0,-148.0,101693.0,-3.063000202178955,0,0
2.535971999997855,0.372314453125,-0.451812744140625,0.311614990234375,-0.748382568359375,0.1220703125,0.06103515625,-0.244140625,0.44189453125,-0.800537109375,0.397216796875,-294.0,151.0,-148.0,101693.0,-3.063000202178955,0,0
2.5360302999906708,0.372314453125,-0.451812744140625,0.311614990234375,-0.748382568359375,-0.244140625,0.06103515625,-0.18310546875,0.444091796875,-0.80322265625,0.3980712890625,-294.0,151.0,-148.0,101693.0,-3.063000202178955,0,0
2.536085500003537,0.372314453125,-0.451812744140625,0.311614990234375,-0.748382568359375,0.42724609375,-0.1220703125,0.1220703125,0.443359375,-0.8035888671875,0.3978271484375,-294.0,151.0,-148.0,101693.0,-3.063000202178955,0,0
2.5361414999933913,0.372314453125,-0.451812744140625,0.311614990234375,-0.748382568359375,0.18310546875,0.18310546875,0.30517578125,0.443603515625,-0.8043212890625,0.3988037109375,-294.0,151.0,-148.0,101693.0,-3.063000202178955,0,0
2.536198300003889,0.372314453125,-0.4517822265625,0.311614990234375,-0.748382568359375,0.91552734375,0.18310546875,0.18310546875,0.4425048828125,-0.8037109375,0.3997802734375,-294.0,151.0,-148.0,101693.0,-3.063000202178955,0,0
2.549560300001758,0.372344970703125,-0.4517822265625,0.311614990234375,-0.7484130859375,0.0,-0.06103515625,-0.18310546875,0.4437255859375,-0.8017578125,0.3984375,-294.0,151.0,-148.0,101693.0,-3.063000202178955,0,0
2.5496226999966893,0.372314453125,-0.4517822265625,0.311614990234375,-0.7484130859375,-0.1220703125,0.0,-0.48828125,0.4453125,-0.8016357421875,0.3974609375,-294.0,151.0,-148.0,101693.0,-3.063000202178955,0,0
2.5496779999957653,0.372314453125,-0.4517822265625,0.311614990234375,-0.7484130859375,-0.1220703125,0.0,-0.48828125,0.4453125,-0.8016357421875,0.3974609375,-294.0,151.0,-148.0,101693.0,-3.063000202178955,0,0
2.549733699997887,0.372344970703125,-0.4517822265625,0.311614990234375,-0.7484130859375,0.1220703125,0.06103515625,-0.18310546875,0.44384765625,-0.8016357421875,0.398193359375,-294.0,151.0,-148.0,101693.0,-3.063000202178955,0,0
2.549788599993917,0.372344970703125,-0.4517822265625,0.31158447265625,-0.7484130859375,0.18310546875,-0.06103515625,0.1220703125,0.4427490234375,-0.8016357421875,0.399169921875,-294.0,151.0,-148.0,101693.0,-3.063000202178955,0,0
2.5498437999922317,0.372344970703125,-0.4517822265625,0.311614990234375,-0.7484130859375,0.18310546875,-0.06103515625,0.06103515625,0.4429931640625,-0.802978515625,0.398193359375,-294.0,151.0,-148.0,101693.0,-3.063000202178955,0,0
2.597692499999539,0.372344970703125,-0.451751708984375,0.31158447265625,-0.7484130859375,0.06103515625,0.06103515625,0.18310546875,0.443115234375,-0.803466796875,0.3963623046875,-294.0,151.0,-148.0,101693.0,-3.063000202178955,0,0
2.597756000002846,0.372344970703125,-0.451751708984375,0.31158447265625,-0.7484130859375,-0.06103515625,-0.06103515625,0.0,0.4443359375,-0.80224609375,0.3985595703125,-294.0,151.0,-148.0,101693.0,-3.063000202178955,0,0
2.5978124999965075,0.372344970703125,-0.451751708984375,0.31158447265625,-0.7484130859375,-0.06103515625,-0.06103515625,0.0,0.4443359375,-0.80224609375,0.3985595703125,-294.0,151.0,-148.0,101693.0,-3.064000129699707,0,0
2.597868099997868,0.372344970703125,-0.451751708984375,0.31158447265625,-0.7484130859375,-0.18310546875,-0.244140625,-0.18310546875,0.4422607421875,-0.803466796875,0.3970947265625,-294.0,151.0,-148.0,101693.0,-3.064000129699707,0,0
2.5979210999939824,0.372344970703125,-0.451751708984375,0.31158447265625,-0.7484130859375,-0.18310546875,-0.244140625,-0.18310546875,0.4422607421875,-0.803466796875,0.3970947265625,-294.0,151.0,-148.0,101693.0,-3.064000129699707,0,0
2.598020599994925,0.372344970703125,-0.451751708984375,0.31158447265625,-0.7484130859375,0.0,0.0,-0.1220703125,0.4439697265625,-0.8021240234375,0.3980712890625,-295.0,151.0,-149.0,101693.0,-3.064000129699707,0,0
2.598074199995608,0.3724365234375,-0.451812744140625,0.3115234375,-0.74835205078125,0.0,-0.42724609375,0.0,0.4453125,-0.801513671875,0.3975830078125,-295.0,151.0,-149.0,101693.0,-3.064000129699707,0,0
2.5981270000047516,0.3724365234375,-0.451812744140625,0.3115234375,-0.748382568359375,0.244140625,-0.1220703125,-0.18310546875,0.447998046875,-0.8017578125,0.397216796875,-295.0,151.0,-149.0,101693.0,-3.064000129699707,0,0
2.5981781000009505,0.3724365234375,-0.451812744140625,0.3115234375,-0.748382568359375,0.06103515625,-0.18310546875,0.0,0.4454345703125,-0.8028564453125,0.398681640625,-295.0,151.0,-149.0,101693.0,-3.064000129699707,0,0
2.5982307999947807,0.3724365234375,-0.451812744140625,0.3115234375,-0.748382568359375,-0.06103515625,-0.06103515625,0.1220703125,0.4429931640625,-0.802490234375,0.3994140625,-295.0,151.0,-149.0,101693.0,-3.064000129699707,0,0
2.598285100000794,0.3724365234375,-0.451812744140625,0.3115234375,-0.748382568359375,-0.1220703125,0.0,0.06103515625,0.4454345703125,-0.8046875,0.3983154296875,-295.0,151.0,-149.0,101693.0,-3.064000129699707,0,0
2.660776299991994,0.3724365234375,-0.451812744140625,0.3115234375,-0.748382568359375,0.18310546875,-0.1220703125,-0.06103515625,0.4459228515625,-0.802490234375,0.3974609375,-295.0,151.0,-149.0,101693.0,-3.064000129699707,0,0
2.6608368000015616,0.3724365234375,-0.451812744140625,0.3115234375,-0.748382568359375,0.06103515625,0.1220703125,-0.18310546875,0.4427490234375,-0.802490234375,0.3980712890625,-295.0,151.0,-149.0,101693.0,-3.064000129699707,0,0
2.660893299995223,0.3724365234375,-0.451812744140625,0.3115234375,-0.748382568359375,-0.1220703125,-0.1220703125,-0.06103515625,0.4425048828125,-0.80419921875,0.3978271484375,-295.0,151.0,-149.0,101693.0,-3.064000129699707,0,0
2.660946799995145,0.3724365234375,-0.451812744140625,0.3115234375,-0.74835205078125,-0.18310546875,-0.30517578125,-0.1220703125,0.4423828125,-0.803466796875,0.3961181640625,-295.0,151.0,-149.0,101693.0,-3.064000129699707,0,0
2.6659936999931233,0.3724365234375,-0.451812744140625,0.3115234375,-0.74835205078125,0.244140625,-0.1220703125,0.0,0.443603515625,-0.8037109375,0.3980712890625,-295.0,151.0,-149.0,101693.0,-3.064000129699707,0,0
2.666054899993469,0.3724365234375,-0.451812744140625,0.3115234375,-0.74835205078125,0.18310546875,-0.3662109375,-0.18310546875,0.4425048828125,-0.802001953125,0.3961181640625,-295.0,151.0,-149.0,101693.0,-3.064000129699707,0,0
2.6661114000016823,0.3724365234375,-0.451812744140625,0.3115234375,-0.74835205078125,0.18310546875,-0.3662109375,-0.18310546875,0.4425048828125,-0.802001953125,0.3961181640625,-295.0,151.0,-149.0,101693.0,-3.064000129699707,0,0
2.6661650000023656,0.3724365234375,-0.451812744140625,0.3115234375,-0.74835205078125,0.3662109375,-0.1220703125,-0.1220703125,0.4447021484375,-0.80078125,0.3955078125,-295.0,151.0,-149.0,101693.0,-3.064000129699707,0,0
2.666218200000003,0.3724365234375,-0.451812744140625,0.3115234375,-0.74835205078125,0.1220703125,0.1220703125,-0.06103515625,0.4459228515625,-0.8017578125,0.39599609375,-295.0,151.0,-149.0,101693.0,-3.065000057220459,0,0
2.6662706999923103,0.3724365234375,-0.451812744140625,0.3115234375,-0.74835205078125,0.1220703125,0.1220703125,-0.06103515625,0.4459228515625,-0.8017578125,0.39599609375,-295.0,151.0,-149.0,101693.0,-3.065000057220459,0,0
2.7335160999937216,0.3724365234375,-0.45184326171875,0.311553955078125,-0.74835205078125,0.0,0.18310546875,0.06103515625,0.4447021484375,-0.8038330078125,0.3944091796875,-295.0,150.0,-148.0,101693.0,-3.065000057220459,0,0
2.73357969999779,0.3724365234375,-0.45184326171875,0.311553955078125,-0.74835205078125,0.18310546875,-0.1220703125,-0.06103515625,0.44140625,-0.801025390625,0.396240234375,-295.0,150.0,-148.0,101693.0,-3.065000057220459,0,0
2.7336350999976275,0.3724365234375,-0.45184326171875,0.311553955078125,-0.74835205078125,-0.1220703125,0.1220703125,-0.1220703125,0.43896484375,-0.801513671875,0.3963623046875,-295.0,150.0,-148.0,101693.0,-3.065000057220459,0,0
2.7336919999943348,0.3724365234375,-0.45184326171875,0.311553955078125,-0.748321533203125,-0.18310546875,0.0,0.18310546875,0.4432373046875,-0.8043212890625,0.3955078125,-295.0,150.0,-148.0,101693.0,-3.065000057220459,0,0
2.733747999998741,0.3724365234375,-0.45184326171875,0.31158447265625,-0.748321533203125,0.0,-0.06103515625,-0.1220703125,0.4464111328125,-0.8038330078125,0.3951416015625,-295.0,150.0,-148.0,101693.0,-3.065000057220459,0,0
2.733909799993853,0.3724365234375,-0.45184326171875,0.311553955078125,-0.748321533203125,-0.1220703125,0.1220703125,0.18310546875,0.4462890625,-0.8037109375,0.39794921875,-295.0,150.0,-148.0,101693.0,-3.065000057220459,0,0
2.7339636999968207,0.3724365234375,-0.45184326171875,0.311553955078125,-0.748321533203125,-0.1220703125,0.1220703125,0.18310546875,0.4462890625,-0.8037109375,0.39794921875,-295.0,150.0,-148.0,101693.0,-3.065000057220459,0,0
2.7340189999958966,0.3724365234375,-0.45184326171875,0.31158447265625,-0.748321533203125,0.18310546875,0.0,0.18310546875,0.4437255859375,-0.8045654296875,0.3966064453125,-295.0,150.0,-148.0,101693.0,-3.065000057220459,0,0
2.7340720999927726,0.3724365234375,-0.45184326171875,0.31158447265625,-0.748321533203125,-0.1220703125,-0.1220703125,-0.18310546875,0.4449462890625,-0.8026123046875,0.3970947265625,-295.0,150.0,-148.0,101693.0,-3.065000057220459,0,0
2.7341270000033546,0.3724365234375,-0.451873779296875,0.311553955078125,-0.748321533203125,0.1220703125,-0.30517578125,-0.30517578125,0.44384765625,-0.800048828125,0.3958740234375,-295.0,150.0,-148.0,101693.0,-3.065000057220459,0,0
2.734179999999469,0.372406005859375,-0.451873779296875,0.31158447265625,-0.748321533203125,0.1220703125,-0.18310546875,-0.48828125,0.443115234375,-0.8001708984375,0.3944091796875,-295.0,150.0,-148.0,101693.0,-3.065000057220459,0,0
2.7931375999905868,0.372406005859375,-0.451873779296875,0.31158447265625,-0.748321533203125,-0.1220703125,-0.18310546875,-0.06103515625,0.4427490234375,-0.7987060546875,0.3958740234375,-295.0,150.0,-148.0,101693.0,-3.065000057220459,0,0
2.793199599997024,0.372406005859375,-0.451873779296875,0.31158447265625,-0.748321533203125,-0.06103515625,-0.1220703125,0.0,0.44482421875,-0.8006591796875,0.39306640625,-295.0,150.0,-148.0,101693.0,-3.065000057220459,0,0
2.7932542999915313,0.372406005859375,-0.451873779296875,0.31158447265625,-0.748321533203125,0.0,-0.3662109375,0.18310546875,0.443603515625,-0.79931640625,0.3939208984375,-295.0,150.0,-148.0,101693.0,-3.065000057220459,0,0
2.7933087999990676,0.372406005859375,-0.451873779296875,0.31158447265625,-0.748321533203125,0.0,-0.3662109375,0.18310546875,0.443603515625,-0.79931640625,0.3939208984375,-295.0,150.0,-148.0,101693.0,-3.065000057220459,0,0
2.7933618999959435,0.372406005859375,-0.451904296875,0.31158447265625,-0.748321533203125,0.0,0.0,0.18310546875,0.444580078125,-0.801025390625,0.3958740234375,-295.0,150.0,-148.0,101693.0,-3.065000057220459,0,0
2.7934574999962933,0.372406005859375,-0.451904296875,0.31158447265625,-0.748291015625,0.244140625,0.244140625,0.06103515625,0.443603515625,-0.8043212890625,0.3956298828125,-295.0,150.0,-148.0,101693.0,-3.065000057220459,0,0
2.793509900002391,0.372406005859375,-0.451904296875,0.31158447265625,-0.748291015625,0.18310546875,0.1220703125,0.3662109375,0.4447021484375,-0.804443359375,0.3948974609375,-295.0,150.0,-148.0,101693.0,-3.065000057220459,0,0
2.7935626999969827,0.37249755859375,-0.45196533203125,0.311553955078125,-0.74822998046875,-0.1220703125,0.06103515625,0.06103515625,0.4432373046875,-0.803955078125,0.3953857421875,-295.0,151.0,-147.0,101693.0,-3.065000057220459,0,0
2.7936144999985117,0.37249755859375,-0.45196533203125,0.311553955078125,-0.74822998046875,0.244140625,-0.18310546875,0.0,0.443115234375,-0.8037109375,0.395263671875,-295.0,151.0,-147.0,101693.0,-3.065000057220459,0,0
2.793666099998518,0.37249755859375,-0.45196533203125,0.311553955078125,-0.74822998046875,-0.244140625,0.0,-0.18310546875,0.4422607421875,-0.8026123046875,0.3944091796875,-295.0,151.0,-147.0,101693.0,-3.065000057220459,0,0
2.793717199994717,0.37249755859375,-0.45196533203125,0.311553955078125,-0.74822998046875,0.1220703125,-0.1220703125,-0.42724609375,0.4427490234375,-0.8016357421875,0.395263671875,-295.0,151.0,-147.0,101693.0,-3.065000057220459,0,0
2.793769900003099,0.37249755859375,-0.45196533203125,0.311553955078125,-0.74822998046875,-0.06103515625,-0.30517578125,-0.30517578125,0.445068359375,-0.802001953125,0.39599609375,-295.0,151.0,-147.0,101693.0,-3.065000057220459,0,0
2.854603200001293,0.37249755859375,-0.45196533203125,0.311553955078125,-0.74822998046875,-0.06103515625,-0.30517578125,-0.30517578125,0.445068359375,-0.802001953125,0.39599609375,-295.0,151.0,-147.0,101693.0,-3.065000057220459,0,0
2.854673299996648,0.37249755859375,-0.45196533203125,0.311553955078125,-0.74822998046875,0.1220703125,-0.1220703125,-0.1220703125,0.4453125,-0.8043212890625,0.39404296875,-295.0,151.0,-147.0,101693.0,-3.065000057220459,0,0
2.8547284999949625,0.37249755859375,-0.45196533203125,0.311553955078125,-0.74822998046875,-0.06103515625,-0.1220703125,-0.18310546875,0.4443359375,-0.802978515625,0.395751953125,-295.0,151.0,-147.0,101693.0,-3.063000202178955,0,0
2.854781300004106,0.37249755859375,-0.45196533203125,0.311553955078125,-0.74822998046875,0.0,-0.1220703125,-0.18310546875,0.4466552734375,-0.8004150390625,0.3968505859375,-295.0,151.0,-147.0,101693.0,-3.063000202178955,0,0
2.8548335999948904,0.37249755859375,-0.45196533203125,0.311553955078125,-0.74822998046875,0.18310546875,0.1220703125,0.06103515625,0.443115234375,-0.8038330078125,0.3963623046875,-295.0,151.0,-147.0,101693.0,-3.063000202178955,0,0
2.8548879000009038,0.37249755859375,-0.451995849609375,0.311553955078125,-0.74822998046875,-0.06103515625,-0.06103515625,0.06103515625,0.4449462890625,-0.802490234375,0.396240234375,-295.0,151.0,-147.0,101693.0,-3.063000202178955,0,0
2.8549571000039577,0.37249755859375,-0.451995849609375,0.311553955078125,-0.74822998046875,-0.30517578125,0.06103515625,0.30517578125,0.4466552734375,-0.802001953125,0.395263671875,-295.0,151.0,-147.0,101693.0,-3.063000202178955,0,0
2.855039999994915,0.37249755859375,-0.451995849609375,0.311553955078125,-0.74822998046875,0.06103515625,0.0,0.0,0.4443359375,-0.8055419921875,0.3953857421875,-295.0,151.0,-147.0,101693.0,-3.063000202178955,0,0
2.8550933999940753,0.37249755859375,-0.451995849609375,0.311553955078125,-0.74822998046875,-0.244140625,0.0,-0.06103515625,0.4432373046875,-0.802490234375,0.39697265625,-295.0,151.0,-147.0,101693.0,-3.063000202178955,0,0
2.8551442000025418,0.37249755859375,-0.451995849609375,0.31158447265625,-0.748199462890625,0.06103515625,-0.1220703125,-0.06103515625,0.439697265625,-0.8021240234375,0.3958740234375,-295.0,151.0,-147.0,101693.0,-3.063000202178955,0,0
2.855196699994849,0.37249755859375,-0.451995849609375,0.31158447265625,-0.748199462890625,0.06103515625,-0.1220703125,-0.06103515625,0.439697265625,-0.8021240234375,0.3958740234375,-295.0,151.0,-147.0,101693.0,-3.063000202178955,0,0
2.8552487999986624,0.37249755859375,-0.451995849609375,0.31158447265625,-0.748199462890625,0.3662109375,-0.1220703125,-0.3662109375,0.4454345703125,-0.8028564453125,0.396728515625,-295.0,151.0,-147.0,101693.0,-3.063000202178955,0,0
