Time stamp(sec),quaternion_0,quaternion_1,quaternion_2,quaternion_3,roll_angular_rate,pitch_angular_rate,yaw_angular_rate,acc_X,acc_Y,acc_Z,mag_X,mag_Y,mag_Z,pressure,altitude
1467.825018,-0.018310546875,0.78314208984375,-0.602325439453125,0.15325927734375,0.18310546875,0.18310546875,-0.06103515625,0.2139892578125,-0.2076416015625,-0.92822265625,-401.0,-25.0,260.0,101923.0,-4.9720001220703125,0,0
1467.83105,-0.018310546875,0.78314208984375,-0.602325439453125,0.15325927734375,0.18310546875,0.18310546875,-0.06103515625,0.2139892578125,-0.2076416015625,-0.92822265625,-401.0,-25.0,260.0,101923.0,-4.9720001220703125,0,0
1467.837998,-0.018310546875,0.78314208984375,-0.602325439453125,0.15325927734375,0.0,0.244140625,-0.06103515625,0.2130126953125,-0.2073974609375,-0.930908203125,-401.0,-25.0,260.0,101923.0,-4.9720001220703125,0,0
1467.845018,-0.018310546875,0.78314208984375,-0.602325439453125,0.15325927734375,-0.18310546875,0.18310546875,-0.30517578125,0.2113037109375,-0.20556640625,-0.930419921875,-401.0,-25.0,260.0,101923.0,-4.9720001220703125,0,0
1467.852002,-0.018310546875,0.78314208984375,-0.602325439453125,0.15325927734375,0.1220703125,0.06103515625,0.0,0.2109375,-0.2069091796875,-0.9281005859375,-401.0,-25.0,260.0,101923.0,-4.9720001220703125,0,0
1467.859018,-0.018310546875,0.78314208984375,-0.602325439453125,0.15325927734375,-0.1220703125,0.1220703125,0.06103515625,0.21142578125,-0.2076416015625,-0.9285888671875,-401.0,-25.0,260.0,101923.0,-4.9720001220703125,0,0
1467.865996,-0.018310546875,0.78314208984375,-0.602325439453125,0.15325927734375,0.06103515625,-0.1220703125,0.0,0.212158203125,-0.2073974609375,-0.928955078125,-401.0,-25.0,260.0,101923.0,-4.9720001220703125,0,0
1467.872995,-0.018310546875,0.78314208984375,-0.602325439453125,0.15325927734375,0.06103515625,0.06103515625,-0.06103515625,0.21337890625,-0.207275390625,-0.93017578125,-401.0,-25.0,260.0,101923.0,-4.9720001220703125,0,0
1467.880016,-0.018310546875,0.78314208984375,-0.602325439453125,0.15325927734375,-0.244140625,0.06103515625,-0.1220703125,0.2147216796875,-0.20849609375,-0.9300537109375,-401.0,-25.0,260.0,101923.0,-4.9720001220703125,0,0
1467.887004,-0.018310546875,0.78314208984375,-0.602325439453125,0.15325927734375,0.0,0.18310546875,-0.1220703125,0.2122802734375,-0.2064208984375,-0.927734375,-401.0,-25.0,260.0,101923.0,-4.9720001220703125,0,0
1467.894019,-0.018310546875,0.78314208984375,-0.602325439453125,0.15325927734375,0.06103515625,0.244140625,-0.06103515625,0.2135009765625,-0.21044921875,-0.9296875,-401.0,-25.0,260.0,101923.0,-4.9720001220703125,0,0
1467.900998,-0.018310546875,0.783203125,-0.602264404296875,0.15325927734375,0.18310546875,0.1220703125,0.06103515625,0.2110595703125,-0.2078857421875,-0.9266357421875,-402.0,-25.0,262.0,101923.0,-4.9710001945495605,0,0
1467.907998,-0.018310546875,0.783203125,-0.602264404296875,0.15325927734375,0.0,-0.06103515625,0.06103515625,0.216064453125,-0.209228515625,-0.9281005859375,-402.0,-25.0,262.0,101923.0,-4.9710001945495605,0,0
1467.915018,-0.018310546875,0.783203125,-0.602264404296875,0.15325927734375,-0.06103515625,0.18310546875,0.0,0.2125244140625,-0.209228515625,-0.9285888671875,-402.0,-25.0,262.0,101923.0,-4.9710001945495605,0,0
1467.92105,-0.018310546875,0.783203125,-0.602264404296875,0.15325927734375,-0.06103515625,0.18310546875,0.0,0.2125244140625,-0.209228515625,-0.9285888671875,-402.0,-25.0,262.0,101923.0,-4.9710001945495605,0,0
1467.927998,-0.018310546875,0.783203125,-0.602264404296875,0.15325927734375,0.06103515625,-0.06103515625,-0.06103515625,0.21435546875,-0.20703125,-0.9287109375,-402.0,-25.0,262.0,101923.0,-4.9710001945495605,0,0
1467.935019,-0.018310546875,0.783203125,-0.602264404296875,0.15325927734375,0.0,0.1220703125,-0.06103515625,0.21142578125,-0.207275390625,-0.929931640625,-402.0,-25.0,262.0,101923.0,-4.9710001945495605,0,0
1467.942002,-0.018310546875,0.783203125,-0.602264404296875,0.15325927734375,-0.18310546875,0.30517578125,0.30517578125,0.2135009765625,-0.206787109375,-0.927978515625,-402.0,-25.0,262.0,101923.0,-4.9710001945495605,0,0
1467.949018,-0.018310546875,0.783203125,-0.602264404296875,0.15325927734375,-0.06103515625,0.30517578125,0.06103515625,0.211181640625,-0.2091064453125,-0.9285888671875,-402.0,-25.0,262.0,101923.0,-4.9710001945495605,0,0
1467.955996,-0.018310546875,0.783203125,-0.602264404296875,0.15325927734375,0.18310546875,0.0,-0.244140625,0.21337890625,-0.208740234375,-0.9296875,-402.0,-25.0,262.0,101923.0,-4.9710001945495605,0,0
1467.962996,-0.018310546875,0.783203125,-0.602264404296875,0.15325927734375,-0.06103515625,0.06103515625,-0.06103515625,0.212646484375,-0.2081298828125,-0.928466796875,-402.0,-25.0,262.0,101923.0,-4.9710001945495605,0,0
1467.97002,-0.018310546875,0.783203125,-0.602264404296875,0.15325927734375,-0.06103515625,-0.06103515625,-0.06103515625,0.212890625,-0.2071533203125,-0.929931640625,-402.0,-25.0,262.0,101923.0,-4.9710001945495605,0,0
1467.977004,-0.018310546875,0.783203125,-0.602264404296875,0.15325927734375,0.0,0.18310546875,0.18310546875,0.2125244140625,-0.2081298828125,-0.9281005859375,-402.0,-25.0,262.0,101923.0,-4.9710001945495605,0,0
1467.997998,-0.018310546875,0.783203125,-0.602264404296875,0.153289794921875,0.18310546875,0.42724609375,0.0,0.213134765625,-0.2098388671875,-0.928955078125,-402.0,-25.0,262.0,101923.0,-4.970000267028809,0,0
1468.005018,-0.018341064453125,0.78326416015625,-0.602142333984375,0.153289794921875,0.18310546875,0.06103515625,-0.06103515625,0.2127685546875,-0.21044921875,-0.9296875,-402.0,-26.0,262.0,101923.0,-4.970000267028809,0,0
1468.011051,-0.018341064453125,0.78326416015625,-0.602142333984375,0.153289794921875,0.18310546875,0.06103515625,-0.06103515625,0.2127685546875,-0.21044921875,-0.9296875,-402.0,-26.0,262.0,101923.0,-4.970000267028809,0,0
1468.017998,-0.01837158203125,0.78326416015625,-0.6021728515625,0.153289794921875,0.06103515625,0.1220703125,0.1220703125,0.2109375,-0.207275390625,-0.92822265625,-402.0,-26.0,262.0,101923.0,-4.970000267028809,0,0
1468.025023,-0.018341064453125,0.78326416015625,-0.602142333984375,0.153289794921875,-0.06103515625,0.30517578125,0.06103515625,0.212890625,-0.2098388671875,-0.9290771484375,-402.0,-26.0,262.0,101923.0,-4.970000267028809,0,0
1468.032002,-0.018341064453125,0.78326416015625,-0.602142333984375,0.153289794921875,0.18310546875,0.3662109375,-0.1220703125,0.2120361328125,-0.208740234375,-0.9281005859375,-402.0,-26.0,262.0,101923.0,-4.970000267028809,0,0
1468.039018,-0.018341064453125,0.78326416015625,-0.602142333984375,0.1533203125,-0.1220703125,0.06103515625,-0.06103515625,0.2137451171875,-0.20849609375,-0.9246826171875,-402.0,-26.0,262.0,101923.0,-4.970000267028809,0,0
1468.045996,-0.01837158203125,0.78326416015625,-0.602142333984375,0.1533203125,-0.06103515625,0.1220703125,-0.06103515625,0.21142578125,-0.210205078125,-0.9267578125,-402.0,-26.0,262.0,101923.0,-4.970000267028809,0,0
1468.052995,-0.01837158203125,0.78326416015625,-0.602142333984375,0.1533203125,0.0,0.244140625,-0.06103515625,0.2105712890625,-0.20849609375,-0.9287109375,-402.0,-26.0,262.0,101923.0,-4.970000267028809,0,0
1468.060016,-0.01837158203125,0.78326416015625,-0.6021728515625,0.153289794921875,-0.06103515625,0.06103515625,0.244140625,0.2113037109375,-0.2071533203125,-0.92822265625,-402.0,-26.0,262.0,101923.0,-4.970000267028809,0,0
1468.080998,-0.018341064453125,0.78326416015625,-0.6021728515625,0.153289794921875,0.42724609375,0.244140625,0.18310546875,0.211669921875,-0.206298828125,-0.927490234375,-402.0,-26.0,262.0,101923.0,-4.970000267028809,0,0
1468.087998,-0.01837158203125,0.78326416015625,-0.6021728515625,0.153289794921875,-0.06103515625,0.18310546875,-0.1220703125,0.211669921875,-0.208740234375,-0.9283447265625,-402.0,-26.0,262.0,101923.0,-4.970000267028809,0,0
1468.095018,-0.018341064453125,0.783294677734375,-0.602142333984375,0.153289794921875,-0.06103515625,0.18310546875,-0.1220703125,0.2135009765625,-0.205078125,-0.9306640625,-402.0,-26.0,262.0,101923.0,-4.970000267028809,0,0
1468.102001,-0.018341064453125,0.783355712890625,-0.60205078125,0.153289794921875,-0.06103515625,0.18310546875,-0.1220703125,0.2135009765625,-0.205078125,-0.9306640625,-402.0,-26.0,261.0,101923.0,-4.970000267028809,0,0
1468.108034,-0.018341064453125,0.783355712890625,-0.60205078125,0.153289794921875,-0.06103515625,0.18310546875,-0.1220703125,0.2135009765625,-0.205078125,-0.9306640625,-402.0,-26.0,261.0,101923.0,-4.970000267028809,0,0
1468.115018,-0.018341064453125,0.783355712890625,-0.60205078125,0.15325927734375,0.06103515625,0.18310546875,-0.1220703125,0.212890625,-0.206787109375,-0.9283447265625,-402.0,-26.0,261.0,101923.0,-4.970000267028809,0,0
1468.122002,-0.018341064453125,0.783355712890625,-0.60205078125,0.15325927734375,0.1220703125,0.30517578125,-0.18310546875,0.2120361328125,-0.20654296875,-0.927490234375,-402.0,-26.0,261.0,101923.0,-4.970000267028809,0,0
1468.129018,-0.018341064453125,0.78338623046875,-0.60205078125,0.15325927734375,0.06103515625,0.06103515625,0.0,0.2135009765625,-0.2080078125,-0.9300537109375,-402.0,-26.0,261.0,101923.0,-4.970000267028809,0,0
1468.135996,-0.018341064453125,0.78338623046875,-0.60205078125,0.15325927734375,0.06103515625,0.0,-0.18310546875,0.210205078125,-0.2086181640625,-0.92919921875,-402.0,-26.0,261.0,101923.0,-4.970000267028809,0,0
1468.142995,-0.018341064453125,0.78338623046875,-0.60205078125,0.15325927734375,0.18310546875,0.18310546875,-0.244140625,0.211669921875,-0.2080078125,-0.927734375,-402.0,-26.0,261.0,101923.0,-4.970000267028809,0,0
1468.150016,-0.018341064453125,0.78338623046875,-0.60205078125,0.15325927734375,0.0,0.42724609375,0.0,0.2130126953125,-0.20947265625,-0.929931640625,-402.0,-26.0,261.0,101923.0,-4.970000267028809,0,0
1468.157004,-0.018341064453125,0.78338623046875,-0.60205078125,0.15325927734375,0.0,0.1220703125,-0.1220703125,0.212890625,-0.208740234375,-0.927978515625,-402.0,-26.0,261.0,101923.0,-4.970000267028809,0,0
1468.164018,-0.018341064453125,0.783355712890625,-0.60205078125,0.15325927734375,-0.1220703125,0.06103515625,0.06103515625,0.2115478515625,-0.2091064453125,-0.9287109375,-402.0,-26.0,261.0,101923.0,-4.970000267028809,0,0
1468.170998,-0.018341064453125,0.783355712890625,-0.60205078125,0.15325927734375,0.1220703125,0.18310546875,0.06103515625,0.21142578125,-0.210693359375,-0.9290771484375,-402.0,-26.0,261.0,101923.0,-4.970000267028809,0,0
1468.177998,-0.018341064453125,0.783355712890625,-0.60205078125,0.15325927734375,0.1220703125,0.06103515625,-0.1220703125,0.2119140625,-0.20654296875,-0.9287109375,-402.0,-26.0,261.0,101923.0,-4.970000267028809,0,0
1468.185018,-0.018341064453125,0.783355712890625,-0.60205078125,0.15325927734375,-0.06103515625,0.06103515625,0.244140625,0.2099609375,-0.2081298828125,-0.9263916015625,-402.0,-26.0,261.0,101923.0,-4.970000267028809,0,0
1468.192001,-0.01837158203125,0.783355712890625,-0.60205078125,0.15325927734375,-0.06103515625,0.244140625,0.1220703125,0.2093505859375,-0.21044921875,-0.9278564453125,-402.0,-26.0,261.0,101923.0,-4.970000267028809,0,0
1468.198034,-0.01837158203125,0.783355712890625,-0.60205078125,0.15325927734375,-0.06103515625,0.244140625,0.1220703125,0.2093505859375,-0.21044921875,-0.9278564453125,-402.0,-26.0,261.0,101923.0,-4.970000267028809,0,0
1468.205018,-0.01837158203125,0.783355712890625,-0.60205078125,0.15325927734375,-0.1220703125,0.244140625,-0.06103515625,0.2130126953125,-0.2088623046875,-0.92822265625,-403.0,-26.0,261.0,101923.0,-4.970000267028809,0,0
1468.212002,-0.01837158203125,0.783355712890625,-0.60205078125,0.15325927734375,0.0,0.1220703125,0.1220703125,0.2127685546875,-0.2064208984375,-0.9293212890625,-403.0,-26.0,261.0,101923.0,-4.970000267028809,0,0
1468.219018,-0.01837158203125,0.783355712890625,-0.60205078125,0.15325927734375,-0.18310546875,0.1220703125,0.18310546875,0.21240234375,-0.207763671875,-0.9287109375,-403.0,-26.0,261.0,101923.0,-4.970000267028809,0,0
1468.225996,-0.01837158203125,0.783355712890625,-0.60205078125,0.15325927734375,-0.244140625,0.30517578125,0.06103515625,0.2139892578125,-0.2083740234375,-0.929931640625,-403.0,-26.0,261.0,101923.0,-4.970000267028809,0,0
1468.232995,-0.01837158203125,0.783355712890625,-0.60205078125,0.153289794921875,0.0,0.06103515625,-0.06103515625,0.216796875,-0.210205078125,-0.9298095703125,-403.0,-26.0,261.0,101923.0,-4.970000267028809,0,0
1468.254018,-0.018402099609375,0.783355712890625,-0.60205078125,0.1533203125,0.1220703125,0.06103515625,0.1220703125,0.2122802734375,-0.2108154296875,-0.925537109375,-403.0,-26.0,261.0,101923.0,-4.9720001220703125,0,0
1468.260998,-0.01837158203125,0.783355712890625,-0.60205078125,0.153350830078125,0.06103515625,0.0,0.1220703125,0.21728515625,-0.2088623046875,-0.9285888671875,-403.0,-26.0,261.0,101923.0,-4.9720001220703125,0,0
1468.267998,-0.01837158203125,0.783355712890625,-0.60205078125,0.153350830078125,0.1220703125,-0.06103515625,0.0,0.2139892578125,-0.2066650390625,-0.9298095703125,-403.0,-26.0,261.0,101923.0,-4.9720001220703125,0,0
1468.275018,-0.01837158203125,0.783355712890625,-0.60205078125,0.153350830078125,0.06103515625,-0.1220703125,0.18310546875,0.213134765625,-0.2086181640625,-0.9278564453125,-403.0,-26.0,261.0,101923.0,-4.9720001220703125,0,0
1468.282001,-0.01837158203125,0.783355712890625,-0.60205078125,0.153350830078125,0.06103515625,0.1220703125,-0.06103515625,0.2142333984375,-0.20654296875,-0.9293212890625,-403.0,-26.0,261.0,101923.0,-4.9720001220703125,0,0
1468.289019,-0.01837158203125,0.783355712890625,-0.60205078125,0.153350830078125,-0.1220703125,0.244140625,-0.244140625,0.2138671875,-0.2086181640625,-0.931396484375,-403.0,-26.0,261.0,101923.0,-4.9720001220703125,0,0
1468.295054,-0.01837158203125,0.783355712890625,-0.60205078125,0.153350830078125,-0.1220703125,0.244140625,-0.244140625,0.2138671875,-0.2086181640625,-0.931396484375,-403.0,-26.0,261.0,101923.0,-4.9720001220703125,0,0
1468.302002,-0.01837158203125,0.783355712890625,-0.60205078125,0.1533203125,0.3662109375,0.18310546875,0.1220703125,0.2120361328125,-0.2083740234375,-0.93017578125,-403.0,-26.0,261.0,101923.0,-4.9720001220703125,0,0
1468.309018,-0.01837158203125,0.783355712890625,-0.60205078125,0.1533203125,0.1220703125,0.244140625,-0.1220703125,0.212890625,-0.20849609375,-0.927978515625,-403.0,-26.0,261.0,101923.0,-4.9720001220703125,0,0
1468.315996,-0.01837158203125,0.783355712890625,-0.60205078125,0.1533203125,0.18310546875,0.06103515625,0.1220703125,0.21044921875,-0.2080078125,-0.92919921875,-403.0,-26.0,261.0,101923.0,-4.9720001220703125,0,0
1468.322996,-0.01837158203125,0.783355712890625,-0.60205078125,0.1533203125,-0.18310546875,0.18310546875,0.06103515625,0.2127685546875,-0.209228515625,-0.9283447265625,-403.0,-26.0,261.0,101923.0,-4.9720001220703125,0,0
1468.344018,-0.01837158203125,0.783355712890625,-0.60205078125,0.1533203125,0.0,0.244140625,0.0,0.2138671875,-0.208984375,-0.9296875,-403.0,-26.0,261.0,101923.0,-4.9720001220703125,0,0
1468.350998,-0.01837158203125,0.783355712890625,-0.60205078125,0.1533203125,-0.06103515625,0.1220703125,0.06103515625,0.212158203125,-0.208251953125,-0.92822265625,-403.0,-26.0,261.0,101923.0,-4.9720001220703125,0,0
1468.357998,-0.01837158203125,0.783355712890625,-0.60205078125,0.1533203125,-0.244140625,0.244140625,-0.06103515625,0.2108154296875,-0.2115478515625,-0.929443359375,-403.0,-26.0,261.0,101923.0,-4.9720001220703125,0,0
1468.365018,-0.01837158203125,0.783355712890625,-0.60205078125,0.1533203125,-0.18310546875,0.0,0.0,0.213134765625,-0.2073974609375,-0.9322509765625,-403.0,-26.0,261.0,101923.0,-4.9720001220703125,0,0
1468.372001,-0.018402099609375,0.783355712890625,-0.60205078125,0.1533203125,0.06103515625,0.06103515625,-0.18310546875,0.2113037109375,-0.20849609375,-0.9273681640625,-403.0,-26.0,261.0,101923.0,-4.9720001220703125,0,0
1468.379018,-0.01837158203125,0.783355712890625,-0.60205078125,0.153289794921875,0.18310546875,0.244140625,0.18310546875,0.2125244140625,-0.207763671875,-0.9293212890625,-403.0,-26.0,261.0,101923.0,-4.9720001220703125,0,0
1468.385049,-0.01837158203125,0.783355712890625,-0.60205078125,0.153289794921875,0.18310546875,0.244140625,0.18310546875,0.2125244140625,-0.207763671875,-0.9293212890625,-403.0,-26.0,261.0,101923.0,-4.9720001220703125,0,0
1468.392002,-0.01837158203125,0.783355712890625,-0.60205078125,0.153289794921875,0.30517578125,0.18310546875,-0.3662109375,0.2127685546875,-0.20556640625,-0.9285888671875,-403.0,-26.0,261.0,101923.0,-4.9720001220703125,0,0
1468.399018,-0.018341064453125,0.783355712890625,-0.60205078125,0.153289794921875,-0.244140625,0.244140625,-0.18310546875,0.214111328125,-0.2049560546875,-0.9290771484375,-404.0,-26.0,261.0,101923.0,-4.9720001220703125,0,0
1468.405996,-0.01837158203125,0.783447265625,-0.6019287109375,0.153289794921875,0.1220703125,0.0,0.1220703125,0.21337890625,-0.20654296875,-0.9285888671875,-404.0,-26.0,261.0,101923.0,-4.9720001220703125,0,0
1468.412995,-0.01837158203125,0.783447265625,-0.6019287109375,0.153289794921875,0.1220703125,0.244140625,0.1220703125,0.2120361328125,-0.20458984375,-0.9266357421875,-404.0,-26.0,261.0,101923.0,-4.9720001220703125,0,0
1468.420016,-0.018341064453125,0.783447265625,-0.6019287109375,0.153289794921875,0.18310546875,0.18310546875,0.244140625,0.212646484375,-0.207275390625,-0.92919921875,-404.0,-26.0,261.0,101923.0,-4.9720001220703125,0,0
1468.427004,-0.018341064453125,0.783447265625,-0.6019287109375,0.153289794921875,-0.1220703125,0.06103515625,0.1220703125,0.21435546875,-0.2091064453125,-0.9281005859375,-404.0,-26.0,261.0,101923.0,-4.9720001220703125,0,0
1468.434018,-0.018341064453125,0.783447265625,-0.6019287109375,0.153289794921875,0.0,0.06103515625,0.244140625,0.21240234375,-0.207275390625,-0.9298095703125,-404.0,-26.0,261.0,101923.0,-4.9720001220703125,0,0
1468.440998,-0.018341064453125,0.783447265625,-0.6019287109375,0.153289794921875,0.1220703125,0.06103515625,0.1220703125,0.212890625,-0.2059326171875,-0.9287109375,-404.0,-26.0,261.0,101923.0,-4.9720001220703125,0,0
1468.447997,-0.018341064453125,0.783447265625,-0.6019287109375,0.153289794921875,0.3662109375,0.1220703125,0.0,0.21240234375,-0.20947265625,-0.9278564453125,-404.0,-26.0,261.0,101923.0,-4.9710001945495605,0,0
1468.455018,-0.01837158203125,0.783447265625,-0.6019287109375,0.153289794921875,-0.06103515625,0.18310546875,-0.06103515625,0.2125244140625,-0.2093505859375,-0.9271240234375,-404.0,-26.0,261.0,101923.0,-4.9710001945495605,0,0
1468.462001,-0.01837158203125,0.783447265625,-0.6019287109375,0.153289794921875,0.1220703125,0.30517578125,-0.18310546875,0.211669921875,-0.2066650390625,-0.9302978515625,-404.0,-26.0,261.0,101923.0,-4.9710001945495605,0,0
1468.469018,-0.01837158203125,0.783447265625,-0.6019287109375,0.153289794921875,0.18310546875,-0.1220703125,-0.06103515625,0.211181640625,-0.207275390625,-0.9278564453125,-404.0,-26.0,261.0,101923.0,-4.9710001945495605,0,0
1468.475995,-0.01837158203125,0.783447265625,-0.6019287109375,0.153289794921875,-0.06103515625,0.244140625,-0.18310546875,0.2109375,-0.2103271484375,-0.9285888671875,-404.0,-26.0,261.0,101923.0,-4.9710001945495605,0,0
1468.482028,-0.01837158203125,0.783447265625,-0.6019287109375,0.153289794921875,-0.06103515625,0.244140625,-0.18310546875,0.2109375,-0.2103271484375,-0.9285888671875,-404.0,-26.0,261.0,101923.0,-4.9710001945495605,0,0
1468.489018,-0.018402099609375,0.783447265625,-0.6019287109375,0.1533203125,-0.06103515625,0.0,0.06103515625,0.2113037109375,-0.2105712890625,-0.92822265625,-404.0,-26.0,261.0,101923.0,-4.9710001945495605,0,0
1468.495996,-0.018402099609375,0.783447265625,-0.6019287109375,0.1533203125,0.06103515625,0.0,-0.1220703125,0.2108154296875,-0.207275390625,-0.9287109375,-404.0,-26.0,261.0,101923.0,-4.9710001945495605,0,0
1468.517004,-0.018402099609375,0.783447265625,-0.6019287109375,0.1533203125,0.244140625,-0.18310546875,-0.06103515625,0.21240234375,-0.2078857421875,-0.931396484375,-403.0,-27.0,261.0,101923.0,-4.9710001945495605,0,0
1468.524018,-0.018402099609375,0.783447265625,-0.6019287109375,0.1533203125,0.1220703125,0.1220703125,0.244140625,0.2138671875,-0.2064208984375,-0.9273681640625,-403.0,-27.0,261.0,101923.0,-4.9710001945495605,0,0
1468.530998,-0.018402099609375,0.783447265625,-0.6019287109375,0.1533203125,-0.06103515625,-0.18310546875,0.0,0.212646484375,-0.2060546875,-0.9298095703125,-403.0,-27.0,261.0,101923.0,-4.9710001945495605,0,0
1468.537998,-0.018402099609375,0.783447265625,-0.6019287109375,0.1533203125,0.06103515625,0.0,0.0,0.2130126953125,-0.2071533203125,-0.9298095703125,-403.0,-27.0,261.0,101923.0,-4.9710001945495605,0,0
1468.545018,-0.01837158203125,0.783447265625,-0.6019287109375,0.1533203125,-0.06103515625,0.18310546875,0.06103515625,0.21337890625,-0.20703125,-0.9296875,-403.0,-27.0,261.0,101923.0,-4.9710001945495605,0,0
1468.552001,-0.01837158203125,0.783447265625,-0.6019287109375,0.153289794921875,0.06103515625,0.244140625,-0.1220703125,0.212158203125,-0.206298828125,-0.930908203125,-403.0,-27.0,261.0,101923.0,-4.9720001220703125,0,0
1468.559018,-0.01837158203125,0.783447265625,-0.6019287109375,0.153289794921875,0.0,0.06103515625,-0.18310546875,0.2132568359375,-0.20947265625,-0.9267578125,-403.0,-27.0,261.0,101923.0,-4.9720001220703125,0,0
1468.565996,-0.01837158203125,0.783447265625,-0.6019287109375,0.1533203125,0.1220703125,0.244140625,-0.06103515625,0.2139892578125,-0.2091064453125,-0.9281005859375,-403.0,-27.0,261.0,101923.0,-4.9720001220703125,0,0
1468.572029,-0.01837158203125,0.783447265625,-0.6019287109375,0.1533203125,0.1220703125,0.244140625,-0.06103515625,0.2139892578125,-0.2091064453125,-0.9281005859375,-403.0,-27.0,261.0,101923.0,-4.9720001220703125,0,0
1468.579018,-0.01837158203125,0.783447265625,-0.6019287109375,0.153289794921875,-0.06103515625,0.0,0.1220703125,0.2127685546875,-0.2080078125,-0.9296875,-403.0,-27.0,261.0,101923.0,-4.9720001220703125,0,0
1468.585996,-0.01837158203125,0.783447265625,-0.6019287109375,0.153289794921875,-0.06103515625,0.1220703125,0.0,0.2132568359375,-0.2066650390625,-0.9290771484375,-403.0,-27.0,261.0,101923.0,-4.9720001220703125,0,0
1468.607004,-0.018341064453125,0.783447265625,-0.6019287109375,0.153289794921875,0.06103515625,0.0,0.0,0.2127685546875,-0.2073974609375,-0.9285888671875,-403.0,-26.0,261.0,101923.0,-4.9720001220703125,0,0
1468.614018,-0.018341064453125,0.783447265625,-0.6019287109375,0.153289794921875,0.1220703125,0.42724609375,0.06103515625,0.2122802734375,-0.2071533203125,-0.928955078125,-403.0,-26.0,261.0,101923.0,-4.9720001220703125,0,0
1468.620998,-0.01837158203125,0.783447265625,-0.6019287109375,0.153289794921875,-0.06103515625,0.30517578125,0.06103515625,0.2109375,-0.2100830078125,-0.9296875,-403.0,-26.0,261.0,101923.0,-4.9720001220703125,0,0
1468.627998,-0.01837158203125,0.783447265625,-0.6019287109375,0.153289794921875,0.0,0.1220703125,0.1220703125,0.21044921875,-0.2086181640625,-0.930419921875,-403.0,-26.0,261.0,101923.0,-4.9720001220703125,0,0
1468.635018,-0.01837158203125,0.783447265625,-0.6019287109375,0.153289794921875,0.06103515625,0.244140625,-0.06103515625,0.2142333984375,-0.2076416015625,-0.9267578125,-403.0,-26.0,261.0,101923.0,-4.9720001220703125,0,0
1468.642001,-0.01837158203125,0.783447265625,-0.6019287109375,0.153289794921875,-0.06103515625,0.244140625,0.1220703125,0.214111328125,-0.2081298828125,-0.9285888671875,-403.0,-26.0,261.0,101923.0,-4.9720001220703125,0,0
1468.649018,-0.01837158203125,0.783447265625,-0.6019287109375,0.153289794921875,-0.18310546875,0.0,0.06103515625,0.2132568359375,-0.2099609375,-0.9302978515625,-403.0,-26.0,261.0,101923.0,-4.9710001945495605,0,0
1468.655995,-0.01837158203125,0.783447265625,-0.6019287109375,0.153289794921875,0.1220703125,0.1220703125,0.06103515625,0.21533203125,-0.209716796875,-0.92919921875,-403.0,-26.0,261.0,101923.0,-4.9710001945495605,0,0
1468.662995,-0.01837158203125,0.783447265625,-0.6019287109375,0.153289794921875,0.244140625,-0.06103515625,-0.1220703125,0.2132568359375,-0.207763671875,-0.9268798828125,-403.0,-26.0,261.0,101923.0,-4.9710001945495605,0,0
1468.669027,-0.01837158203125,0.783447265625,-0.6019287109375,0.153289794921875,0.244140625,-0.06103515625,-0.1220703125,0.2132568359375,-0.207763671875,-0.9268798828125,-403.0,-26.0,261.0,101923.0,-4.9710001945495605,0,0
1468.675996,-0.01837158203125,0.783447265625,-0.6019287109375,0.1533203125,0.0,0.1220703125,-0.18310546875,0.2135009765625,-0.207763671875,-0.9281005859375,-403.0,-26.0,261.0,101923.0,-4.9710001945495605,0,0
1468.725018,-0.018402099609375,0.783538818359375,-0.601806640625,0.153350830078125,0.1220703125,0.06103515625,0.1220703125,0.2138671875,-0.20947265625,-0.92822265625,-404.0,-26.0,260.0,101923.0,-4.9710001945495605,0,0
1468.732001,-0.018402099609375,0.783538818359375,-0.601806640625,0.153350830078125,0.18310546875,0.06103515625,0.06103515625,0.2122802734375,-0.2078857421875,-0.927978515625,-404.0,-26.0,260.0,101923.0,-4.9710001945495605,0,0
1468.739018,-0.018402099609375,0.783538818359375,-0.601806640625,0.153350830078125,0.0,0.1220703125,-0.1220703125,0.2125244140625,-0.2076416015625,-0.928466796875,-404.0,-26.0,260.0,101923.0,-4.9710001945495605,0,0
1468.745995,-0.018402099609375,0.783538818359375,-0.601806640625,0.153350830078125,0.06103515625,0.06103515625,-0.18310546875,0.212890625,-0.2086181640625,-0.9285888671875,-404.0,-26.0,260.0,101923.0,-4.9710001945495605,0,0
1468.752995,-0.018402099609375,0.783538818359375,-0.601806640625,0.153350830078125,0.06103515625,0.0,0.0,0.2115478515625,-0.2073974609375,-0.9296875,-404.0,-26.0,260.0,101923.0,-4.9720001220703125,0,0
1468.759027,-0.018402099609375,0.783538818359375,-0.601806640625,0.153350830078125,0.06103515625,0.0,0.0,0.2115478515625,-0.2073974609375,-0.9296875,-404.0,-26.0,260.0,101923.0,-4.9720001220703125,0,0
1468.780016,-0.0184326171875,0.783538818359375,-0.601806640625,0.1533203125,-0.06103515625,0.18310546875,0.1220703125,0.2122802734375,-0.20947265625,-0.9288330078125,-404.0,-26.0,260.0,101923.0,-4.9720001220703125,0,0
1468.787004,-0.0184326171875,0.783538818359375,-0.601806640625,0.1533203125,0.244140625,0.18310546875,-0.18310546875,0.210693359375,-0.20947265625,-0.9276123046875,-404.0,-26.0,260.0,101923.0,-4.9720001220703125,0,0
1468.794019,-0.0184326171875,0.783538818359375,-0.601806640625,0.1533203125,-0.1220703125,0.30517578125,0.06103515625,0.211669921875,-0.2080078125,-0.930419921875,-404.0,-26.0,260.0,101923.0,-4.9720001220703125,0,0
1468.800998,-0.0184326171875,0.783538818359375,-0.601806640625,0.1533203125,0.1220703125,0.18310546875,0.18310546875,0.21240234375,-0.20556640625,-0.9281005859375,-403.0,-28.0,261.0,101923.0,-4.9720001220703125,0,0
1468.807997,-0.018463134765625,0.783660888671875,-0.601654052734375,0.1533203125,-0.1220703125,0.06103515625,-0.1220703125,0.2138671875,-0.207275390625,-0.9310302734375,-403.0,-28.0,261.0,101923.0,-4.9720001220703125,0,0
1468.815018,-0.018463134765625,0.783660888671875,-0.601654052734375,0.1533203125,-0.06103515625,0.30517578125,0.06103515625,0.214599609375,-0.2060546875,-0.9285888671875,-403.0,-28.0,261.0,101923.0,-4.9720001220703125,0,0
1468.822001,-0.018463134765625,0.783660888671875,-0.601654052734375,0.1533203125,-0.18310546875,0.1220703125,-0.244140625,0.21337890625,-0.20703125,-0.9290771484375,-403.0,-28.0,261.0,101923.0,-4.9720001220703125,0,0
1468.829018,-0.018463134765625,0.783660888671875,-0.601654052734375,0.1533203125,0.06103515625,0.06103515625,0.06103515625,0.212890625,-0.20751953125,-0.9287109375,-403.0,-28.0,261.0,101923.0,-4.9720001220703125,0,0
1468.835995,-0.018463134765625,0.783660888671875,-0.601654052734375,0.1533203125,0.0,0.1220703125,0.18310546875,0.2147216796875,-0.20703125,-0.9267578125,-403.0,-28.0,261.0,101923.0,-4.9720001220703125,0,0
1468.843,-0.018463134765625,0.783660888671875,-0.601654052734375,0.1533203125,-0.06103515625,0.244140625,0.0,0.2113037109375,-0.206787109375,-0.928955078125,-403.0,-28.0,261.0,101923.0,-4.9720001220703125,0,0
1468.85002,-0.018463134765625,0.783660888671875,-0.601654052734375,0.1533203125,0.0,0.06103515625,-0.06103515625,0.2105712890625,-0.2069091796875,-0.927490234375,-403.0,-28.0,261.0,101923.0,-4.970000267028809,0,0
1468.87002,-0.018463134765625,0.783660888671875,-0.601654052734375,0.1533203125,-0.1220703125,0.1220703125,-0.06103515625,0.2119140625,-0.207275390625,-0.9288330078125,-403.0,-28.0,261.0,101923.0,-4.970000267028809,0,0
1468.877004,-0.018463134765625,0.783660888671875,-0.601654052734375,0.1533203125,-0.06103515625,0.06103515625,0.0,0.212158203125,-0.208984375,-0.927978515625,-403.0,-28.0,261.0,101923.0,-4.970000267028809,0,0
1468.884018,-0.018463134765625,0.783660888671875,-0.601654052734375,0.1533203125,0.06103515625,0.244140625,-0.06103515625,0.2137451171875,-0.2120361328125,-0.9266357421875,-403.0,-28.0,261.0,101923.0,-4.970000267028809,0,0
1468.890998,-0.018463134765625,0.783660888671875,-0.601654052734375,0.1533203125,0.30517578125,0.30517578125,0.1220703125,0.2132568359375,-0.2076416015625,-0.9293212890625,-403.0,-28.0,261.0,101923.0,-4.970000267028809,0,0
1468.897998,-0.018463134765625,0.783660888671875,-0.601654052734375,0.153350830078125,-0.18310546875,0.18310546875,-0.06103515625,0.2130126953125,-0.209228515625,-0.928955078125,-403.0,-28.0,261.0,101923.0,-4.970000267028809,0,0
1468.905018,-0.01849365234375,0.78375244140625,-0.601531982421875,0.1533203125,-0.18310546875,0.0,0.0,0.2119140625,-0.2086181640625,-0.927001953125,-402.0,-27.0,259.0,101923.0,-4.970000267028809,0,0
1468.912001,-0.01849365234375,0.78375244140625,-0.601531982421875,0.1533203125,0.244140625,-0.1220703125,-0.1220703125,0.2130126953125,-0.2086181640625,-0.93017578125,-402.0,-27.0,259.0,101923.0,-4.970000267028809,0,0
1468.919018,-0.01849365234375,0.78375244140625,-0.601531982421875,0.153350830078125,-0.1220703125,0.18310546875,0.244140625,0.215087890625,-0.2095947265625,-0.9296875,-402.0,-27.0,259.0,101923.0,-4.970000267028809,0,0
1468.925996,-0.01849365234375,0.78375244140625,-0.601531982421875,0.153350830078125,0.0,0.30517578125,-0.06103515625,0.213134765625,-0.20703125,-0.9288330078125,-402.0,-27.0,259.0,101923.0,-4.970000267028809,0,0
1468.933,-0.01849365234375,0.78375244140625,-0.601531982421875,0.153350830078125,-0.1220703125,0.244140625,-0.244140625,0.212646484375,-0.209716796875,-0.928466796875,-402.0,-27.0,259.0,101923.0,-4.970000267028809,0,0
1468.94002,-0.018524169921875,0.78375244140625,-0.601531982421875,0.153350830078125,0.0,0.244140625,-0.1220703125,0.2108154296875,-0.2093505859375,-0.9298095703125,-402.0,-27.0,259.0,101923.0,-4.970000267028809,0,0
1468.946052,-0.018524169921875,0.78375244140625,-0.601531982421875,0.153350830078125,0.0,0.244140625,-0.1220703125,0.2108154296875,-0.2093505859375,-0.9298095703125,-402.0,-27.0,259.0,101923.0,-4.970000267028809,0,0
1468.952995,-0.018524169921875,0.78375244140625,-0.601531982421875,0.153350830078125,-0.244140625,0.18310546875,-0.1220703125,0.2139892578125,-0.2081298828125,-0.9300537109375,-402.0,-27.0,259.0,101923.0,-4.9710001945495605,0,0
1468.960016,-0.01849365234375,0.78375244140625,-0.601531982421875,0.153350830078125,0.1220703125,0.1220703125,0.0,0.2117919921875,-0.20654296875,-0.9307861328125,-402.0,-27.0,259.0,101923.0,-4.9710001945495605,0,0
1468.967004,-0.01849365234375,0.78375244140625,-0.601531982421875,0.153350830078125,-0.18310546875,-0.06103515625,-0.1220703125,0.2117919921875,-0.2078857421875,-0.9296875,-402.0,-27.0,259.0,101923.0,-4.9710001945495605,0,0
1468.974018,-0.01849365234375,0.78375244140625,-0.601531982421875,0.153350830078125,0.244140625,0.06103515625,0.18310546875,0.213623046875,-0.2081298828125,-0.929931640625,-402.0,-27.0,259.0,101923.0,-4.9710001945495605,0,0
1468.980998,-0.01849365234375,0.78375244140625,-0.601531982421875,0.1533203125,0.3662109375,0.1220703125,0.0,0.210693359375,-0.2081298828125,-0.927734375,-402.0,-27.0,259.0,101923.0,-4.9710001945495605,0,0
1468.987998,-0.01849365234375,0.78375244140625,-0.601531982421875,0.1533203125,0.244140625,0.30517578125,-0.06103515625,0.212158203125,-0.20654296875,-0.9307861328125,-402.0,-27.0,259.0,101923.0,-4.9710001945495605,0,0
1468.995018,-0.01849365234375,0.78375244140625,-0.601531982421875,0.1533203125,0.18310546875,0.06103515625,0.18310546875,0.212890625,-0.2083740234375,-0.9281005859375,-402.0,-27.0,259.0,101923.0,-4.9710001945495605,0,0
1469.002001,-0.018524169921875,0.783843994140625,-0.601409912109375,0.1533203125,-0.06103515625,0.18310546875,-0.1220703125,0.213623046875,-0.207763671875,-0.9287109375,-402.0,-27.0,260.0,101923.0,-4.9710001945495605,0,0
1469.009018,-0.018524169921875,0.783843994140625,-0.601409912109375,0.1533203125,0.06103515625,0.244140625,0.1220703125,0.2113037109375,-0.2064208984375,-0.93017578125,-402.0,-27.0,260.0,101923.0,-4.9710001945495605,0,0
1469.015995,-0.018524169921875,0.783843994140625,-0.601409912109375,0.1533203125,0.06103515625,0.18310546875,-0.1220703125,0.2115478515625,-0.208251953125,-0.9266357421875,-402.0,-27.0,260.0,101923.0,-4.9710001945495605,0,0
1469.022995,-0.018524169921875,0.783843994140625,-0.601409912109375,0.1533203125,0.1220703125,0.0,-0.06103515625,0.2130126953125,-0.208984375,-0.9322509765625,-402.0,-27.0,260.0,101923.0,-4.9710001945495605,0,0
1469.043031,-0.018524169921875,0.783843994140625,-0.601409912109375,0.1533203125,-0.06103515625,0.1220703125,0.1220703125,0.211669921875,-0.207275390625,-0.9287109375,-402.0,-27.0,260.0,101923.0,-4.9710001945495605,0,0
1469.050016,-0.018524169921875,0.783843994140625,-0.601409912109375,0.1533203125,-0.1220703125,0.18310546875,0.1220703125,0.213134765625,-0.2091064453125,-0.92919921875,-402.0,-27.0,260.0,101923.0,-4.9720001220703125,0,0
1469.057004,-0.018524169921875,0.783843994140625,-0.6014404296875,0.153289794921875,0.06103515625,0.06103515625,-0.06103515625,0.2083740234375,-0.206298828125,-0.9293212890625,-402.0,-27.0,260.0,101923.0,-4.9720001220703125,0,0
1469.064018,-0.018524169921875,0.783843994140625,-0.6014404296875,0.153289794921875,-0.06103515625,0.244140625,0.0,0.21337890625,-0.2080078125,-0.9306640625,-402.0,-27.0,260.0,101923.0,-4.9720001220703125,0,0
1469.070998,-0.018524169921875,0.783843994140625,-0.6014404296875,0.15325927734375,-0.1220703125,0.06103515625,0.0,0.2113037109375,-0.208251953125,-0.9285888671875,-402.0,-27.0,260.0,101923.0,-4.9720001220703125,0,0
1469.077998,-0.018524169921875,0.783843994140625,-0.6014404296875,0.15325927734375,0.0,0.1220703125,-0.30517578125,0.2105712890625,-0.206787109375,-0.9302978515625,-402.0,-27.0,260.0,101923.0,-4.9720001220703125,0,0
1469.085018,-0.018524169921875,0.783843994140625,-0.6014404296875,0.15325927734375,0.0,0.30517578125,-0.1220703125,0.21142578125,-0.2098388671875,-0.9288330078125,-402.0,-27.0,260.0,101923.0,-4.9720001220703125,0,0
1469.092001,-0.018524169921875,0.783843994140625,-0.6014404296875,0.153289794921875,-0.06103515625,-0.1220703125,-0.06103515625,0.214111328125,-0.209716796875,-0.9296875,-402.0,-27.0,260.0,101923.0,-4.9720001220703125,0,0
1469.099018,-0.018524169921875,0.783843994140625,-0.6014404296875,0.153289794921875,0.1220703125,0.1220703125,0.06103515625,0.21337890625,-0.2098388671875,-0.9296875,-402.0,-27.0,260.0,101923.0,-4.9720001220703125,0,0
1469.105995,-0.018524169921875,0.783843994140625,-0.6014404296875,0.153289794921875,0.18310546875,0.06103515625,0.1220703125,0.214599609375,-0.2086181640625,-0.928955078125,-403.0,-27.0,260.0,101923.0,-4.9720001220703125,0,0
1469.112995,-0.018524169921875,0.783843994140625,-0.6014404296875,0.153289794921875,-0.1220703125,0.06103515625,0.1220703125,0.2138671875,-0.2073974609375,-0.9273681640625,-403.0,-27.0,260.0,101923.0,-4.9720001220703125,0,0
1469.133031,-0.018524169921875,0.783843994140625,-0.6014404296875,0.153289794921875,0.0,0.1220703125,0.06103515625,0.2110595703125,-0.208740234375,-0.9276123046875,-403.0,-27.0,260.0,101923.0,-4.9720001220703125,0,0
1469.14002,-0.0185546875,0.783843994140625,-0.6014404296875,0.153289794921875,0.06103515625,0.18310546875,-0.1220703125,0.214111328125,-0.210205078125,-0.92919921875,-403.0,-27.0,260.0,101923.0,-4.9720001220703125,0,0
1469.147004,-0.0185546875,0.783843994140625,-0.6014404296875,0.153289794921875,-0.06103515625,0.18310546875,-0.06103515625,0.2152099609375,-0.209228515625,-0.9296875,-403.0,-27.0,260.0,101923.0,-4.9720001220703125,0,0
1469.154018,-0.018524169921875,0.783843994140625,-0.6014404296875,0.153289794921875,-0.06103515625,0.18310546875,0.06103515625,0.2137451171875,-0.2066650390625,-0.9287109375,-403.0,-27.0,260.0,101923.0,-4.9720001220703125,0,0
1469.160998,-0.018524169921875,0.783843994140625,-0.6014404296875,0.153289794921875,0.06103515625,0.18310546875,0.0,0.212890625,-0.2081298828125,-0.9296875,-403.0,-27.0,260.0,101923.0,-4.9720001220703125,0,0
1469.167998,-0.018524169921875,0.783843994140625,-0.601409912109375,0.1533203125,0.30517578125,0.18310546875,0.1220703125,0.21533203125,-0.209716796875,-0.9263916015625,-403.0,-27.0,260.0,101923.0,-4.9720001220703125,0,0
1469.175018,-0.018524169921875,0.783843994140625,-0.601409912109375,0.1533203125,0.0,0.0,0.0,0.2158203125,-0.2093505859375,-0.9268798828125,-403.0,-27.0,260.0,101923.0,-4.9720001220703125,0,0
1469.182001,-0.018524169921875,0.783843994140625,-0.601409912109375,0.1533203125,0.0,0.244140625,-0.06103515625,0.2125244140625,-0.20849609375,-0.929443359375,-403.0,-27.0,260.0,101923.0,-4.9720001220703125,0,0
1469.189018,-0.018524169921875,0.783843994140625,-0.601409912109375,0.1533203125,0.0,0.18310546875,0.0,0.2108154296875,-0.2081298828125,-0.9296875,-403.0,-27.0,260.0,101923.0,-4.9720001220703125,0,0
1469.195996,-0.018524169921875,0.783843994140625,-0.601409912109375,0.1533203125,0.0,0.1220703125,-0.244140625,0.212890625,-0.207275390625,-0.9296875,-403.0,-27.0,260.0,101923.0,-4.9720001220703125,0,0
1469.203,-0.018524169921875,0.783843994140625,-0.6014404296875,0.153289794921875,0.1220703125,0.0,0.0,0.2098388671875,-0.2081298828125,-0.9283447265625,-403.0,-26.0,260.0,101923.0,-4.9720001220703125,0,0
1469.21002,-0.018524169921875,0.783843994140625,-0.6014404296875,0.153289794921875,0.18310546875,0.0,0.06103515625,0.2113037109375,-0.2078857421875,-0.9298095703125,-403.0,-26.0,260.0,101923.0,-4.9720001220703125,0,0
1469.216999,-0.018524169921875,0.783843994140625,-0.6014404296875,0.153289794921875,-0.1220703125,0.06103515625,-0.1220703125,0.2110595703125,-0.2069091796875,-0.9288330078125,-403.0,-26.0,260.0,101923.0,-4.9720001220703125,0,0
1469.224016,-0.018524169921875,0.783843994140625,-0.6014404296875,0.15325927734375,0.0,0.1220703125,0.06103515625,0.2109375,-0.2052001953125,-0.9278564453125,-403.0,-26.0,260.0,101923.0,-4.9720001220703125,0,0
1469.230051,-0.018524169921875,0.783843994140625,-0.6014404296875,0.15325927734375,0.0,0.1220703125,0.06103515625,0.2109375,-0.2052001953125,-0.9278564453125,-403.0,-26.0,260.0,101923.0,-4.9720001220703125,0,0
1469.237004,-0.018524169921875,0.783843994140625,-0.6014404296875,0.15325927734375,-0.18310546875,0.06103515625,0.06103515625,0.2125244140625,-0.2080078125,-0.928955078125,-403.0,-26.0,260.0,101923.0,-4.9720001220703125,0,0
1469.244018,-0.018524169921875,0.783843994140625,-0.6014404296875,0.15325927734375,0.06103515625,0.1220703125,0.06103515625,0.2117919921875,-0.208740234375,-0.927490234375,-403.0,-26.0,260.0,101923.0,-4.9720001220703125,0,0
1469.250998,-0.018524169921875,0.783843994140625,-0.6014404296875,0.15325927734375,0.18310546875,0.06103515625,-0.1220703125,0.2122802734375,-0.20361328125,-0.9273681640625,-403.0,-26.0,260.0,101923.0,-4.9710001945495605,0,0
1469.257997,-0.018524169921875,0.783843994140625,-0.6014404296875,0.15325927734375,0.244140625,0.1220703125,0.1220703125,0.2138671875,-0.2095947265625,-0.9305419921875,-403.0,-26.0,260.0,101923.0,-4.9710001945495605,0,0
1469.265018,-0.01849365234375,0.783843994140625,-0.6014404296875,0.15325927734375,0.244140625,0.244140625,-0.244140625,0.213623046875,-0.204833984375,-0.9302978515625,-403.0,-26.0,260.0,101923.0,-4.9710001945495605,0,0
1469.272001,-0.01849365234375,0.783843994140625,-0.6014404296875,0.15325927734375,0.06103515625,0.18310546875,0.1220703125,0.212646484375,-0.207763671875,-0.9310302734375,-403.0,-26.0,260.0,101923.0,-4.9710001945495605,0,0
1469.279018,-0.01849365234375,0.783843994140625,-0.6014404296875,0.15325927734375,0.06103515625,0.0,0.3662109375,0.2142333984375,-0.20654296875,-0.932373046875,-403.0,-26.0,260.0,101923.0,-4.9710001945495605,0,0
1469.285995,-0.01849365234375,0.783843994140625,-0.6014404296875,0.153228759765625,-0.1220703125,0.18310546875,0.0,0.21337890625,-0.2078857421875,-0.9312744140625,-403.0,-26.0,260.0,101923.0,-4.9710001945495605,0,0
1469.306999,-0.01849365234375,0.78387451171875,-0.60137939453125,0.15325927734375,0.06103515625,0.0,0.1220703125,0.213134765625,-0.2108154296875,-0.92919921875,-402.0,-26.0,259.0,101923.0,-4.9710001945495605,0,0
1469.314016,-0.01849365234375,0.78387451171875,-0.60137939453125,0.15325927734375,0.18310546875,0.1220703125,0.1220703125,0.213134765625,-0.20947265625,-0.9293212890625,-402.0,-26.0,259.0,101923.0,-4.9710001945495605,0,0
1469.320047,-0.01849365234375,0.78387451171875,-0.60137939453125,0.15325927734375,0.18310546875,0.1220703125,0.1220703125,0.213134765625,-0.20947265625,-0.9293212890625,-402.0,-26.0,259.0,101923.0,-4.9710001945495605,0,0
1469.327004,-0.018524169921875,0.78387451171875,-0.60137939453125,0.15325927734375,0.18310546875,0.244140625,-0.18310546875,0.210693359375,-0.2099609375,-0.92626953125,-402.0,-26.0,259.0,101923.0,-4.9710001945495605,0,0
1469.334018,-0.018524169921875,0.78387451171875,-0.60137939453125,0.15325927734375,-0.06103515625,0.244140625,0.1220703125,0.212158203125,-0.2098388671875,-0.9290771484375,-402.0,-26.0,259.0,101923.0,-4.9710001945495605,0,0
1469.340998,-0.018524169921875,0.78387451171875,-0.60137939453125,0.15325927734375,0.06103515625,0.30517578125,0.1220703125,0.2108154296875,-0.206787109375,-0.929443359375,-402.0,-26.0,259.0,101923.0,-4.9710001945495605,0,0
1469.347998,-0.018524169921875,0.78387451171875,-0.60137939453125,0.15325927734375,0.06103515625,0.244140625,-0.06103515625,0.2152099609375,-0.20947265625,-0.9283447265625,-402.0,-26.0,259.0,101923.0,-4.9720001220703125,0,0
1469.355018,-0.018524169921875,0.78387451171875,-0.60137939453125,0.15325927734375,0.06103515625,0.1220703125,0.1220703125,0.2135009765625,-0.20947265625,-0.9283447265625,-402.0,-26.0,259.0,101923.0,-4.9720001220703125,0,0
1469.362001,-0.018524169921875,0.78387451171875,-0.60137939453125,0.15325927734375,-0.1220703125,0.244140625,0.06103515625,0.2122802734375,-0.21044921875,-0.92822265625,-402.0,-26.0,259.0,101923.0,-4.9720001220703125,0,0
1469.369018,-0.018524169921875,0.78387451171875,-0.60137939453125,0.15325927734375,-0.06103515625,0.18310546875,-0.18310546875,0.2130126953125,-0.2099609375,-0.9287109375,-402.0,-26.0,259.0,101923.0,-4.9720001220703125,0,0
1469.39002,-0.018524169921875,0.78387451171875,-0.60137939453125,0.153289794921875,0.0,0.244140625,0.0,0.21337890625,-0.208251953125,-0.9285888671875,-402.0,-26.0,259.0,101923.0,-4.9720001220703125,0,0
1469.396999,-0.018524169921875,0.78387451171875,-0.60137939453125,0.153289794921875,0.18310546875,0.06103515625,-0.1220703125,0.2105712890625,-0.208740234375,-0.9305419921875,-402.0,-25.0,260.0,101923.0,-4.9720001220703125,0,0
1469.404016,-0.018524169921875,0.78387451171875,-0.60137939453125,0.153289794921875,-0.1220703125,0.18310546875,0.30517578125,0.2142333984375,-0.2091064453125,-0.9281005859375,-402.0,-25.0,260.0,101923.0,-4.9720001220703125,0,0
1469.410998,-0.018524169921875,0.78387451171875,-0.60137939453125,0.153289794921875,0.1220703125,0.1220703125,-0.30517578125,0.2122802734375,-0.20849609375,-0.9281005859375,-402.0,-25.0,260.0,101923.0,-4.9720001220703125,0,0
1469.41703,-0.018524169921875,0.78387451171875,-0.60137939453125,0.153289794921875,0.1220703125,0.1220703125,-0.30517578125,0.2122802734375,-0.20849609375,-0.9281005859375,-402.0,-25.0,260.0,101923.0,-4.9720001220703125,0,0
1469.424018,-0.018524169921875,0.78387451171875,-0.60137939453125,0.15325927734375,0.1220703125,0.1220703125,-0.1220703125,0.2120361328125,-0.206298828125,-0.9310302734375,-402.0,-25.0,260.0,101923.0,-4.9720001220703125,0,0
1469.430998,-0.018524169921875,0.78387451171875,-0.60137939453125,0.15325927734375,0.0,0.18310546875,0.06103515625,0.210693359375,-0.2056884765625,-0.931884765625,-402.0,-25.0,260.0,101923.0,-4.9720001220703125,0,0
1469.437998,-0.018524169921875,0.78387451171875,-0.60137939453125,0.153228759765625,-0.06103515625,0.0,0.06103515625,0.2125244140625,-0.2061767578125,-0.9298095703125,-402.0,-25.0,260.0,101923.0,-4.9720001220703125,0,0
1469.445018,-0.018524169921875,0.78387451171875,-0.60137939453125,0.15325927734375,0.0,0.1220703125,0.06103515625,0.212890625,-0.20849609375,-0.9276123046875,-402.0,-25.0,260.0,101923.0,-4.9720001220703125,0,0
1469.452001,-0.018524169921875,0.78387451171875,-0.60137939453125,0.153228759765625,-0.18310546875,0.0,0.06103515625,0.2113037109375,-0.2093505859375,-0.9312744140625,-402.0,-25.0,260.0,101923.0,-4.9720001220703125,0,0
1469.459018,-0.018524169921875,0.78387451171875,-0.60137939453125,0.153228759765625,0.06103515625,0.244140625,0.1220703125,0.2122802734375,-0.210693359375,-0.929931640625,-402.0,-25.0,260.0,101923.0,-4.9720001220703125,0,0
1469.48002,-0.018524169921875,0.78387451171875,-0.60137939453125,0.153228759765625,0.1220703125,0.06103515625,0.06103515625,0.211181640625,-0.2095947265625,-0.9287109375,-402.0,-25.0,260.0,101923.0,-4.9720001220703125,0,0
1469.486999,-0.018524169921875,0.78387451171875,-0.60137939453125,0.15325927734375,0.06103515625,0.0,0.18310546875,0.2125244140625,-0.20947265625,-0.927001953125,-402.0,-25.0,260.0,101923.0,-4.9720001220703125,0,0
1469.494016,-0.018524169921875,0.78387451171875,-0.60137939453125,0.153228759765625,-0.06103515625,0.1220703125,-0.18310546875,0.2130126953125,-0.2064208984375,-0.9283447265625,-402.0,-25.0,260.0,101923.0,-4.9720001220703125,0,0
1469.500998,-0.018524169921875,0.783843994140625,-0.6014404296875,0.153228759765625,-0.18310546875,0.244140625,-0.18310546875,0.211669921875,-0.208984375,-0.9288330078125,-401.0,-24.0,261.0,101923.0,-4.9710001945495605,0,0
1469.507031,-0.018524169921875,0.783843994140625,-0.6014404296875,0.153228759765625,-0.18310546875,0.244140625,-0.18310546875,0.211669921875,-0.208984375,-0.9288330078125,-401.0,-24.0,261.0,101923.0,-4.9710001945495605,0,0
1469.514018,-0.018524169921875,0.783843994140625,-0.6014404296875,0.153228759765625,-0.244140625,0.30517578125,0.0,0.213134765625,-0.2078857421875,-0.9298095703125,-401.0,-24.0,261.0,101923.0,-4.9710001945495605,0,0
1469.520998,-0.018524169921875,0.783843994140625,-0.6014404296875,0.153228759765625,0.18310546875,0.06103515625,0.1220703125,0.212158203125,-0.206787109375,-0.928466796875,-401.0,-24.0,261.0,101923.0,-4.9710001945495605,0,0
1469.527998,-0.018524169921875,0.783843994140625,-0.6014404296875,0.153228759765625,0.0,0.06103515625,-0.06103515625,0.2119140625,-0.2076416015625,-0.93115234375,-401.0,-24.0,261.0,101923.0,-4.9710001945495605,0,0
1469.535018,-0.018524169921875,0.783843994140625,-0.6014404296875,0.153228759765625,0.1220703125,0.18310546875,0.0,0.21142578125,-0.20654296875,-0.9300537109375,-401.0,-24.0,261.0,101923.0,-4.9710001945495605,0,0
1469.542001,-0.01849365234375,0.783843994140625,-0.6014404296875,0.153228759765625,-0.06103515625,0.06103515625,-0.06103515625,0.211669921875,-0.20556640625,-0.9287109375,-401.0,-24.0,261.0,101923.0,-4.9710001945495605,0,0
1469.562996,-0.01849365234375,0.783843994140625,-0.6014404296875,0.1531982421875,0.18310546875,0.1220703125,0.0,0.2122802734375,-0.2076416015625,-0.9296875,-401.0,-24.0,261.0,101923.0,-4.9710001945495605,0,0
1469.57002,-0.01849365234375,0.783843994140625,-0.6014404296875,0.153228759765625,0.06103515625,-0.06103515625,-0.18310546875,0.2119140625,-0.2078857421875,-0.9296875,-401.0,-24.0,261.0,101923.0,-4.9710001945495605,0,0
1469.576999,-0.01849365234375,0.783843994140625,-0.6014404296875,0.153228759765625,0.1220703125,0.18310546875,-0.06103515625,0.2137451171875,-0.20849609375,-0.9322509765625,-401.0,-24.0,261.0,101923.0,-4.9710001945495605,0,0
1469.584016,-0.01849365234375,0.783843994140625,-0.6014404296875,0.153228759765625,-0.06103515625,-0.1220703125,-0.06103515625,0.2149658203125,-0.20751953125,-0.930419921875,-401.0,-24.0,261.0,101923.0,-4.9710001945495605,0,0
1469.590997,-0.01849365234375,0.783843994140625,-0.6014404296875,0.153228759765625,-0.1220703125,0.06103515625,-0.18310546875,0.2127685546875,-0.2098388671875,-0.9305419921875,-401.0,-24.0,261.0,101923.0,-4.9710001945495605,0,0
1469.597997,-0.01849365234375,0.783843994140625,-0.6014404296875,0.15325927734375,0.244140625,0.18310546875,0.0,0.2117919921875,-0.2078857421875,-0.928466796875,-401.0,-24.0,261.0,101923.0,-4.9720001220703125,0,0
1469.604025,-0.01849365234375,0.783843994140625,-0.6014404296875,0.15325927734375,0.244140625,0.18310546875,0.0,0.2117919921875,-0.2078857421875,-0.928466796875,-401.0,-24.0,261.0,101923.0,-4.9720001220703125,0,0
1469.610998,-0.01849365234375,0.78375244140625,-0.601531982421875,0.15325927734375,0.1220703125,0.30517578125,0.0,0.2149658203125,-0.2099609375,-0.9300537109375,-400.0,-23.0,261.0,101923.0,-4.9720001220703125,0,0
1469.617997,-0.01849365234375,0.78375244140625,-0.601531982421875,0.15325927734375,0.06103515625,-0.18310546875,0.1220703125,0.211181640625,-0.20947265625,-0.9281005859375,-400.0,-23.0,261.0,101923.0,-4.9720001220703125,0,0
1469.625018,-0.01849365234375,0.78375244140625,-0.601531982421875,0.15325927734375,0.06103515625,0.244140625,-0.244140625,0.213134765625,-0.208740234375,-0.9293212890625,-400.0,-23.0,261.0,101923.0,-4.9720001220703125,0,0
1469.632001,-0.01849365234375,0.78375244140625,-0.601531982421875,0.15325927734375,0.18310546875,0.244140625,-0.06103515625,0.21484375,-0.2086181640625,-0.9307861328125,-400.0,-23.0,261.0,101923.0,-4.9720001220703125,0,0
1469.652995,-0.018463134765625,0.78375244140625,-0.601531982421875,0.15325927734375,-0.06103515625,0.0,-0.1220703125,0.21142578125,-0.2066650390625,-0.93017578125,-400.0,-23.0,261.0,101923.0,-4.9720001220703125,0,0
1469.66002,-0.018463134765625,0.78375244140625,-0.601531982421875,0.15325927734375,0.06103515625,0.1220703125,-0.1220703125,0.21435546875,-0.20849609375,-0.9317626953125,-400.0,-23.0,261.0,101923.0,-4.9720001220703125,0,0
1469.666999,-0.018463134765625,0.78375244140625,-0.601531982421875,0.15325927734375,0.06103515625,0.18310546875,-0.06103515625,0.2132568359375,-0.207275390625,-0.9273681640625,-400.0,-23.0,261.0,101923.0,-4.9720001220703125,0,0
1469.674016,-0.018463134765625,0.78375244140625,-0.601531982421875,0.15325927734375,0.1220703125,0.244140625,-0.1220703125,0.210693359375,-0.205322265625,-0.9296875,-400.0,-23.0,261.0,101923.0,-4.9720001220703125,0,0
1469.680997,-0.018463134765625,0.78375244140625,-0.601531982421875,0.15325927734375,0.0,0.0,0.06103515625,0.212890625,-0.2061767578125,-0.931640625,-400.0,-23.0,261.0,101923.0,-4.9720001220703125,0,0
1469.687997,-0.018463134765625,0.78375244140625,-0.601531982421875,0.15325927734375,0.06103515625,0.06103515625,0.1220703125,0.213134765625,-0.21044921875,-0.9287109375,-400.0,-23.0,261.0,101923.0,-4.9720001220703125,0,0
1469.694025,-0.018463134765625,0.78375244140625,-0.601531982421875,0.15325927734375,0.06103515625,0.06103515625,0.1220703125,0.213134765625,-0.21044921875,-0.9287109375,-400.0,-23.0,261.0,101923.0,-4.9720001220703125,0,0
1469.700998,-0.0184326171875,0.783721923828125,-0.601593017578125,0.15325927734375,0.06103515625,0.0,0.06103515625,0.21337890625,-0.2076416015625,-0.9302978515625,-400.0,-24.0,261.0,101923.0,-4.970000267028809,0,0
1469.707998,-0.0184326171875,0.783721923828125,-0.601593017578125,0.15325927734375,-0.1220703125,-0.06103515625,0.1220703125,0.21337890625,-0.2081298828125,-0.9293212890625,-400.0,-24.0,261.0,101923.0,-4.970000267028809,0,0
1469.715018,-0.0184326171875,0.783721923828125,-0.601593017578125,0.15325927734375,0.0,0.06103515625,-0.18310546875,0.213623046875,-0.206298828125,-0.9296875,-400.0,-24.0,261.0,101923.0,-4.970000267028809,0,0
1469.722001,-0.0184326171875,0.783721923828125,-0.601593017578125,0.15325927734375,0.0,0.0,0.06103515625,0.212890625,-0.209716796875,-0.9327392578125,-400.0,-24.0,261.0,101923.0,-4.970000267028809,0,0
1469.729018,-0.0184326171875,0.783721923828125,-0.601593017578125,0.153228759765625,0.06103515625,0.06103515625,-0.06103515625,0.21044921875,-0.208740234375,-0.9298095703125,-400.0,-24.0,261.0,101923.0,-4.970000267028809,0,0
1469.735996,-0.0184326171875,0.783721923828125,-0.601593017578125,0.153228759765625,0.06103515625,0.18310546875,0.0,0.2138671875,-0.2091064453125,-0.9287109375,-400.0,-24.0,261.0,101923.0,-4.970000267028809,0,0
1469.743,-0.0184326171875,0.783721923828125,-0.601593017578125,0.15325927734375,-0.244140625,-0.06103515625,0.1220703125,0.2127685546875,-0.20947265625,-0.930419921875,-400.0,-24.0,261.0,101923.0,-4.970000267028809,0,0
1469.75002,-0.018463134765625,0.783721923828125,-0.601593017578125,0.15325927734375,0.0,0.244140625,-0.1220703125,0.2135009765625,-0.2083740234375,-0.9300537109375,-400.0,-24.0,261.0,101923.0,-4.970000267028809,0,0
1469.756999,-0.018463134765625,0.783721923828125,-0.601593017578125,0.153228759765625,-0.1220703125,0.1220703125,-0.18310546875,0.212646484375,-0.206298828125,-0.9293212890625,-400.0,-24.0,261.0,101923.0,-4.970000267028809,0,0
1469.764016,-0.018463134765625,0.783721923828125,-0.601593017578125,0.153228759765625,0.1220703125,0.0,0.3662109375,0.2135009765625,-0.208740234375,-0.928466796875,-400.0,-24.0,261.0,101923.0,-4.970000267028809,0,0
1469.770998,-0.018463134765625,0.783721923828125,-0.601593017578125,0.15325927734375,0.06103515625,0.244140625,-0.06103515625,0.2137451171875,-0.210693359375,-0.9302978515625,-400.0,-24.0,261.0,101923.0,-4.970000267028809,0,0
1469.777997,-0.018463134765625,0.783721923828125,-0.601593017578125,0.153228759765625,-0.06103515625,0.30517578125,-0.06103515625,0.2127685546875,-0.20849609375,-0.9302978515625,-400.0,-24.0,261.0,101923.0,-4.970000267028809,0,0
1469.78403,-0.018463134765625,0.783721923828125,-0.601593017578125,0.153228759765625,-0.06103515625,0.30517578125,-0.06103515625,0.2127685546875,-0.20849609375,-0.9302978515625,-400.0,-24.0,261.0,101923.0,-4.970000267028809,0,0
1469.790998,-0.018463134765625,0.783721923828125,-0.601593017578125,0.15325927734375,-0.18310546875,0.30517578125,0.0,0.2130126953125,-0.208740234375,-0.930908203125,-400.0,-24.0,261.0,101923.0,-4.970000267028809,0,0
1469.797998,-0.018463134765625,0.783721923828125,-0.601593017578125,0.15325927734375,0.1220703125,0.18310546875,0.0,0.213134765625,-0.2059326171875,-0.92919921875,-400.0,-24.0,261.0,101923.0,-4.9710001945495605,0,0
1469.805018,-0.0184326171875,0.78363037109375,-0.601715087890625,0.15325927734375,-0.1220703125,0.244140625,0.06103515625,0.2154541015625,-0.207763671875,-0.9288330078125,-400.0,-23.0,261.0,101923.0,-4.9710001945495605,0,0
1469.825996,-0.018402099609375,0.78363037109375,-0.601715087890625,0.15325927734375,0.0,0.1220703125,-0.18310546875,0.216064453125,-0.2049560546875,-0.92822265625,-400.0,-23.0,261.0,101923.0,-4.9710001945495605,0,0
1469.833,-0.018402099609375,0.78363037109375,-0.601715087890625,0.153289794921875,-0.06103515625,0.1220703125,-0.18310546875,0.21826171875,-0.2099609375,-0.9296875,-400.0,-23.0,261.0,101923.0,-4.9710001945495605,0,0
1469.84002,-0.018402099609375,0.78363037109375,-0.601715087890625,0.153289794921875,0.1220703125,0.1220703125,0.1220703125,0.2142333984375,-0.209228515625,-0.927978515625,-400.0,-23.0,261.0,101923.0,-4.9710001945495605,0,0
1469.846999,-0.018402099609375,0.78363037109375,-0.601715087890625,0.153289794921875,0.0,0.06103515625,-0.18310546875,0.21435546875,-0.20947265625,-0.9290771484375,-400.0,-23.0,261.0,101923.0,-4.9710001945495605,0,0
1469.854016,-0.018402099609375,0.78363037109375,-0.601715087890625,0.153289794921875,0.1220703125,0.0,-0.30517578125,0.2119140625,-0.20703125,-0.9283447265625,-400.0,-23.0,261.0,101923.0,-4.9710001945495605,0,0
1469.860998,-0.018402099609375,0.78363037109375,-0.601715087890625,0.1533203125,0.1220703125,0.244140625,-0.1220703125,0.2135009765625,-0.2113037109375,-0.9293212890625,-400.0,-23.0,261.0,101923.0,-4.9710001945495605,0,0
1469.867997,-0.018402099609375,0.78363037109375,-0.601715087890625,0.1533203125,0.1220703125,0.06103515625,-0.06103515625,0.2138671875,-0.20849609375,-0.930419921875,-400.0,-23.0,261.0,101923.0,-4.9710001945495605,0,0
1469.875022,-0.018402099609375,0.78363037109375,-0.601715087890625,0.1533203125,-0.06103515625,-0.1220703125,-0.1220703125,0.2139892578125,-0.209716796875,-0.9300537109375,-400.0,-23.0,261.0,101923.0,-4.9710001945495605,0,0
1469.88105,-0.018402099609375,0.78363037109375,-0.601715087890625,0.1533203125,-0.06103515625,-0.1220703125,-0.1220703125,0.2139892578125,-0.209716796875,-0.9300537109375,-400.0,-23.0,261.0,101923.0,-4.9710001945495605,0,0
1469.887998,-0.018402099609375,0.78363037109375,-0.601715087890625,0.153289794921875,-0.1220703125,0.30517578125,0.0,0.212158203125,-0.2059326171875,-0.9317626953125,-400.0,-23.0,261.0,101923.0,-4.9710001945495605,0,0
1469.895018,-0.018402099609375,0.78363037109375,-0.601715087890625,0.153289794921875,0.18310546875,0.1220703125,0.18310546875,0.212158203125,-0.2071533203125,-0.930419921875,-400.0,-23.0,261.0,101923.0,-4.9720001220703125,0,0
1469.915995,-0.018402099609375,0.7835693359375,-0.601776123046875,0.153289794921875,-0.06103515625,0.06103515625,0.18310546875,0.2113037109375,-0.2083740234375,-0.928955078125,-400.0,-24.0,261.0,101923.0,-4.9720001220703125,0,0
1469.922996,-0.018402099609375,0.7835693359375,-0.601776123046875,0.153289794921875,0.0,0.3662109375,-0.1220703125,0.211181640625,-0.205810546875,-0.927978515625,-400.0,-24.0,261.0,101923.0,-4.9720001220703125,0,0
1469.93002,-0.018402099609375,0.7835693359375,-0.601776123046875,0.15325927734375,0.06103515625,0.1220703125,0.06103515625,0.21337890625,-0.2069091796875,-0.9276123046875,-400.0,-24.0,261.0,101923.0,-4.9720001220703125,0,0
1469.936999,-0.018402099609375,0.7835693359375,-0.601776123046875,0.153289794921875,-0.1220703125,0.30517578125,0.0,0.2156982421875,-0.2103271484375,-0.9296875,-400.0,-24.0,261.0,101923.0,-4.9720001220703125,0,0
1469.944016,-0.018402099609375,0.7835693359375,-0.601776123046875,0.153289794921875,-0.244140625,0.06103515625,0.30517578125,0.212890625,-0.2069091796875,-0.93017578125,-400.0,-24.0,261.0,101923.0,-4.9720001220703125,0,0
1469.950998,-0.01837158203125,0.7835693359375,-0.601776123046875,0.153289794921875,-0.06103515625,0.244140625,0.0,0.212158203125,-0.2078857421875,-0.9293212890625,-400.0,-24.0,261.0,101923.0,-4.9720001220703125,0,0
1469.957997,-0.01837158203125,0.7835693359375,-0.601776123046875,0.153289794921875,-0.06103515625,0.18310546875,0.18310546875,0.2149658203125,-0.20751953125,-0.928466796875,-400.0,-24.0,261.0,101923.0,-4.9720001220703125,0,0
1469.965022,-0.01837158203125,0.7835693359375,-0.601776123046875,0.15325927734375,0.1220703125,0.06103515625,-0.1220703125,0.2119140625,-0.20703125,-0.9298095703125,-400.0,-24.0,261.0,101923.0,-4.9720001220703125,0,0
1469.97105,-0.01837158203125,0.7835693359375,-0.601776123046875,0.15325927734375,0.1220703125,0.06103515625,-0.1220703125,0.2119140625,-0.20703125,-0.9298095703125,-400.0,-24.0,261.0,101923.0,-4.9720001220703125,0,0
1469.977998,-0.01837158203125,0.783599853515625,-0.601776123046875,0.15325927734375,-0.06103515625,0.06103515625,0.0,0.213134765625,-0.2078857421875,-0.9300537109375,-400.0,-24.0,261.0,101923.0,-4.9720001220703125,0,0
1469.985018,-0.018402099609375,0.7835693359375,-0.601776123046875,0.15325927734375,-0.06103515625,0.244140625,-0.244140625,0.214111328125,-0.2103271484375,-0.93017578125,-400.0,-24.0,261.0,101923.0,-4.9720001220703125,0,0
1469.992001,-0.018402099609375,0.7835693359375,-0.601776123046875,0.15325927734375,0.0,0.30517578125,0.18310546875,0.212158203125,-0.2078857421875,-0.9287109375,-400.0,-24.0,261.0,101923.0,-4.9720001220703125,0,0
1469.999018,-0.018402099609375,0.7835693359375,-0.601776123046875,0.15325927734375,-0.1220703125,0.1220703125,-0.06103515625,0.210693359375,-0.20947265625,-0.9283447265625,-400.0,-23.0,260.0,101923.0,-4.974000453948975,0,0
1470.005995,-0.01837158203125,0.78350830078125,-0.60186767578125,0.15325927734375,0.0,0.3662109375,0.1220703125,0.2105712890625,-0.2080078125,-0.9296875,-400.0,-23.0,260.0,101923.0,-4.974000453948975,0,0
1470.012995,-0.01837158203125,0.78350830078125,-0.60186767578125,0.15325927734375,0.3662109375,0.18310546875,0.06103515625,0.21435546875,-0.2098388671875,-0.92919921875,-400.0,-23.0,260.0,101923.0,-4.974000453948975,0,0
1470.02002,-0.018402099609375,0.78350830078125,-0.60186767578125,0.15325927734375,0.18310546875,0.06103515625,-0.1220703125,0.2130126953125,-0.208984375,-0.9296875,-400.0,-23.0,260.0,101923.0,-4.974000453948975,0,0
1470.026999,-0.01837158203125,0.78350830078125,-0.60186767578125,0.15325927734375,0.18310546875,0.3662109375,0.0,0.21484375,-0.2078857421875,-0.929443359375,-400.0,-23.0,260.0,101923.0,-4.974000453948975,0,0
1470.034016,-0.01837158203125,0.78350830078125,-0.60186767578125,0.153289794921875,0.0,-0.1220703125,0.30517578125,0.21484375,-0.208984375,-0.928955078125,-400.0,-23.0,260.0,101923.0,-4.974000453948975,0,0
1470.040998,-0.01837158203125,0.78350830078125,-0.60186767578125,0.153289794921875,0.244140625,0.1220703125,-0.06103515625,0.2149658203125,-0.2071533203125,-0.930419921875,-400.0,-23.0,260.0,101923.0,-4.974000453948975,0,0
1470.047997,-0.01837158203125,0.78350830078125,-0.60186767578125,0.153289794921875,-0.1220703125,0.244140625,0.1220703125,0.2138671875,-0.2080078125,-0.928955078125,-400.0,-23.0,260.0,101923.0,-4.974000453948975,0,0
1470.055022,-0.01837158203125,0.78350830078125,-0.60186767578125,0.153289794921875,-0.1220703125,0.18310546875,0.0,0.2149658203125,-0.2095947265625,-0.928466796875,-400.0,-23.0,260.0,101923.0,-4.974000453948975,0,0
1470.062001,-0.01837158203125,0.783477783203125,-0.60186767578125,0.153289794921875,0.1220703125,0.30517578125,-0.244140625,0.2142333984375,-0.208251953125,-0.9296875,-400.0,-23.0,260.0,101923.0,-4.974000453948975,0,0
1470.068034,-0.01837158203125,0.783477783203125,-0.60186767578125,0.153289794921875,0.1220703125,0.30517578125,-0.244140625,0.2142333984375,-0.208251953125,-0.9296875,-400.0,-23.0,260.0,101923.0,-4.974000453948975,0,0
1470.089019,-0.01837158203125,0.783477783203125,-0.60186767578125,0.1533203125,0.06103515625,0.06103515625,-0.18310546875,0.2127685546875,-0.208251953125,-0.929931640625,-400.0,-23.0,260.0,101923.0,-4.974000453948975,0,0
1470.095996,-0.01837158203125,0.783477783203125,-0.60186767578125,0.1533203125,0.30517578125,-0.1220703125,0.1220703125,0.211669921875,-0.206787109375,-0.9315185546875,-398.0,-24.0,260.0,101923.0,-4.970000267028809,0,0
1470.103,-0.01837158203125,0.783477783203125,-0.60186767578125,0.153289794921875,0.18310546875,0.06103515625,-0.244140625,0.2115478515625,-0.2069091796875,-0.9293212890625,-398.0,-24.0,260.0,101923.0,-4.970000267028809,0,0
1470.11002,-0.01837158203125,0.78350830078125,-0.60186767578125,0.153289794921875,0.244140625,0.18310546875,0.0,0.21142578125,-0.2078857421875,-0.93115234375,-398.0,-24.0,260.0,101923.0,-4.970000267028809,0,0
1470.116999,-0.01837158203125,0.78350830078125,-0.60186767578125,0.15325927734375,-0.1220703125,0.244140625,0.0,0.2105712890625,-0.2105712890625,-0.9300537109375,-398.0,-24.0,260.0,101923.0,-4.970000267028809,0,0
1470.124016,-0.01837158203125,0.78350830078125,-0.60186767578125,0.15325927734375,0.244140625,0.244140625,-0.30517578125,0.2113037109375,-0.20361328125,-0.9296875,-398.0,-24.0,260.0,101923.0,-4.970000267028809,0,0
1470.130998,-0.01837158203125,0.78350830078125,-0.60186767578125,0.15325927734375,0.244140625,0.244140625,-0.06103515625,0.21142578125,-0.203125,-0.928955078125,-398.0,-24.0,260.0,101923.0,-4.970000267028809,0,0
1470.137997,-0.01837158203125,0.78350830078125,-0.60186767578125,0.15325927734375,0.06103515625,0.30517578125,0.0,0.2117919921875,-0.2086181640625,-0.9288330078125,-398.0,-24.0,260.0,101923.0,-4.970000267028809,0,0
1470.145022,-0.01837158203125,0.78350830078125,-0.60186767578125,0.153228759765625,0.0,0.244140625,0.06103515625,0.2125244140625,-0.2060546875,-0.9300537109375,-398.0,-24.0,260.0,101923.0,-4.970000267028809,0,0
1470.152001,-0.01837158203125,0.78350830078125,-0.601898193359375,0.153228759765625,0.0,0.244140625,-0.18310546875,0.2125244140625,-0.2086181640625,-0.9310302734375,-398.0,-24.0,260.0,101923.0,-4.970000267028809,0,0
1470.158029,-0.01837158203125,0.78350830078125,-0.601898193359375,0.153228759765625,0.0,0.244140625,-0.18310546875,0.2125244140625,-0.2086181640625,-0.9310302734375,-398.0,-24.0,260.0,101923.0,-4.970000267028809,0,0
1470.179019,-0.01837158203125,0.78350830078125,-0.601898193359375,0.153228759765625,-0.1220703125,0.18310546875,0.18310546875,0.2132568359375,-0.2066650390625,-0.9293212890625,-398.0,-24.0,260.0,101923.0,-4.970000267028809,0,0
1470.185995,-0.01837158203125,0.78350830078125,-0.601898193359375,0.153228759765625,0.18310546875,0.06103515625,-0.06103515625,0.213623046875,-0.2064208984375,-0.93115234375,-398.0,-24.0,260.0,101923.0,-4.970000267028809,0,0
1470.192995,-0.01837158203125,0.78350830078125,-0.601898193359375,0.153228759765625,0.0,-0.06103515625,0.06103515625,0.212646484375,-0.2095947265625,-0.9290771484375,-398.0,-24.0,260.0,101923.0,-4.970000267028809,0,0
1470.20002,-0.01837158203125,0.78350830078125,-0.601898193359375,0.153228759765625,-0.06103515625,0.18310546875,0.0,0.2115478515625,-0.209716796875,-0.928466796875,-398.0,-23.0,260.0,101923.0,-4.970000267028809,0,0
1470.206999,-0.01837158203125,0.783447265625,-0.6019287109375,0.153228759765625,-0.1220703125,0.1220703125,0.0,0.210205078125,-0.20703125,-0.928466796875,-398.0,-23.0,260.0,101923.0,-4.970000267028809,0,0
1470.214016,-0.01837158203125,0.783447265625,-0.6019287109375,0.153228759765625,-0.1220703125,0.30517578125,-0.3662109375,0.212646484375,-0.2049560546875,-0.9305419921875,-398.0,-23.0,260.0,101923.0,-4.970000267028809,0,0
1470.220998,-0.01837158203125,0.783447265625,-0.601959228515625,0.1531982421875,0.06103515625,0.1220703125,0.1220703125,0.2108154296875,-0.2061767578125,-0.9283447265625,-398.0,-23.0,260.0,101923.0,-4.970000267028809,0,0
1470.227997,-0.01837158203125,0.783447265625,-0.601959228515625,0.1531982421875,-0.1220703125,0.06103515625,0.06103515625,0.2127685546875,-0.2080078125,-0.929443359375,-398.0,-23.0,260.0,101923.0,-4.970000267028809,0,0
1470.235022,-0.01837158203125,0.783447265625,-0.601959228515625,0.1531982421875,0.1220703125,0.06103515625,-0.06103515625,0.210693359375,-0.2095947265625,-0.9293212890625,-398.0,-23.0,260.0,101923.0,-4.970000267028809,0,0
1470.242001,-0.01837158203125,0.783447265625,-0.601959228515625,0.1531982421875,0.1220703125,0.0,0.18310546875,0.2144775390625,-0.209228515625,-0.9315185546875,-398.0,-23.0,260.0,101923.0,-4.970000267028809,0,0
1470.249015,-0.01837158203125,0.783447265625,-0.601959228515625,0.1531982421875,0.06103515625,0.18310546875,0.06103515625,0.2119140625,-0.2086181640625,-0.9302978515625,-398.0,-23.0,260.0,101923.0,-4.970000267028809,0,0
1470.255048,-0.01837158203125,0.783447265625,-0.601959228515625,0.1531982421875,0.06103515625,0.18310546875,0.06103515625,0.2119140625,-0.2086181640625,-0.9302978515625,-398.0,-23.0,260.0,101923.0,-4.970000267028809,0,0
1470.262001,-0.01837158203125,0.783447265625,-0.601959228515625,0.1531982421875,0.0,0.18310546875,0.30517578125,0.2130126953125,-0.20849609375,-0.9305419921875,-398.0,-23.0,260.0,101923.0,-4.970000267028809,0,0
1470.269018,-0.01837158203125,0.783447265625,-0.601959228515625,0.1531982421875,0.0,0.18310546875,-0.1220703125,0.21142578125,-0.2086181640625,-0.9307861328125,-398.0,-23.0,260.0,101923.0,-4.970000267028809,0,0
1470.275995,-0.01837158203125,0.783447265625,-0.601959228515625,0.1531982421875,0.0,0.30517578125,0.06103515625,0.2122802734375,-0.20703125,-0.927734375,-398.0,-23.0,260.0,101923.0,-4.970000267028809,0,0
1470.282995,-0.01837158203125,0.783447265625,-0.6019287109375,0.153228759765625,0.1220703125,0.244140625,-0.06103515625,0.2152099609375,-0.209716796875,-0.9273681640625,-398.0,-23.0,260.0,101923.0,-4.970000267028809,0,0
1470.29002,-0.01837158203125,0.783447265625,-0.6019287109375,0.153228759765625,-0.1220703125,0.18310546875,0.0,0.213134765625,-0.208740234375,-0.927978515625,-398.0,-23.0,260.0,101923.0,-4.970000267028809,0,0
1470.296999,-0.01837158203125,0.783447265625,-0.6019287109375,0.153228759765625,-0.1220703125,0.06103515625,0.0,0.2125244140625,-0.2095947265625,-0.93017578125,-400.0,-23.0,260.0,101923.0,-4.968000411987305,0,0
1470.304016,-0.01837158203125,0.783416748046875,-0.60198974609375,0.153228759765625,-0.244140625,0.06103515625,-0.06103515625,0.2137451171875,-0.208984375,-0.9298095703125,-400.0,-23.0,260.0,101923.0,-4.968000411987305,0,0
1470.310997,-0.01837158203125,0.783416748046875,-0.60198974609375,0.153228759765625,0.06103515625,0.30517578125,0.0,0.2139892578125,-0.2083740234375,-0.92724609375,-400.0,-23.0,260.0,101923.0,-4.968000411987305,0,0
1470.317997,-0.01837158203125,0.783416748046875,-0.60198974609375,0.153228759765625,0.0,0.1220703125,0.1220703125,0.212890625,-0.207763671875,-0.92919921875,-400.0,-23.0,260.0,101923.0,-4.968000411987305,0,0
1470.325022,-0.01837158203125,0.783416748046875,-0.60198974609375,0.153228759765625,-0.1220703125,0.18310546875,0.18310546875,0.2122802734375,-0.2069091796875,-0.9312744140625,-400.0,-23.0,260.0,101923.0,-4.968000411987305,0,0
1470.332001,-0.01837158203125,0.783416748046875,-0.60198974609375,0.153228759765625,0.3662109375,0.244140625,-0.18310546875,0.2130126953125,-0.2073974609375,-0.92919921875,-400.0,-23.0,260.0,101923.0,-4.968000411987305,0,0
1470.352001,-0.018341064453125,0.783416748046875,-0.60198974609375,0.153228759765625,0.06103515625,0.18310546875,-0.06103515625,0.2117919921875,-0.2073974609375,-0.9312744140625,-400.0,-23.0,260.0,101923.0,-4.968000411987305,0,0
1470.359018,-0.018341064453125,0.783416748046875,-0.60198974609375,0.1531982421875,-0.06103515625,0.1220703125,-0.30517578125,0.2113037109375,-0.2056884765625,-0.929931640625,-400.0,-23.0,260.0,101923.0,-4.968000411987305,0,0
1470.365996,-0.018341064453125,0.783416748046875,-0.60198974609375,0.1531982421875,0.06103515625,0.1220703125,0.06103515625,0.213623046875,-0.2061767578125,-0.92822265625,-400.0,-23.0,260.0,101923.0,-4.968000411987305,0,0
1470.373,-0.018341064453125,0.783416748046875,-0.60198974609375,0.1531982421875,0.18310546875,0.1220703125,0.1220703125,0.211181640625,-0.207763671875,-0.9305419921875,-400.0,-23.0,260.0,101923.0,-4.968000411987305,0,0
1470.38002,-0.018341064453125,0.783416748046875,-0.60198974609375,0.1531982421875,0.244140625,0.0,-0.06103515625,0.2127685546875,-0.208251953125,-0.92919921875,-400.0,-23.0,260.0,101923.0,-4.968000411987305,0,0
1470.386999,-0.018341064453125,0.783416748046875,-0.60198974609375,0.1531982421875,0.1220703125,0.0,0.30517578125,0.2138671875,-0.2086181640625,-0.9283447265625,-400.0,-23.0,260.0,101923.0,-4.968000411987305,0,0
1470.394016,-0.018341064453125,0.783416748046875,-0.60198974609375,0.1531982421875,0.244140625,0.18310546875,-0.06103515625,0.21240234375,-0.2080078125,-0.930419921875,-400.0,-23.0,260.0,101923.0,-4.968000411987305,0,0
1470.400998,-0.018341064453125,0.7833251953125,-0.60211181640625,0.1531982421875,0.18310546875,0.1220703125,0.0,0.2105712890625,-0.2098388671875,-0.9302978515625,-399.0,-23.0,260.0,101923.0,-4.969000339508057,0,0
1470.407997,-0.018341064453125,0.7833251953125,-0.60211181640625,0.1531982421875,0.1220703125,0.1220703125,-0.1220703125,0.212646484375,-0.20849609375,-0.9306640625,-399.0,-23.0,260.0,101923.0,-4.969000339508057,0,0
1470.415022,-0.018341064453125,0.7833251953125,-0.60211181640625,0.1531982421875,-0.06103515625,0.18310546875,-0.06103515625,0.2108154296875,-0.20654296875,-0.9296875,-399.0,-23.0,260.0,101923.0,-4.969000339508057,0,0
1470.422001,-0.018341064453125,0.7833251953125,-0.60211181640625,0.1531982421875,-0.06103515625,0.18310546875,0.06103515625,0.212646484375,-0.206298828125,-0.9300537109375,-399.0,-23.0,260.0,101923.0,-4.969000339508057,0,0
1470.442028,-0.01837158203125,0.7833251953125,-0.60211181640625,0.153167724609375,0.0,-0.1220703125,0.18310546875,0.2100830078125,-0.208251953125,-0.9310302734375,-399.0,-23.0,260.0,101923.0,-4.969000339508057,0,0
1470.449018,-0.01837158203125,0.7833251953125,-0.60211181640625,0.15313720703125,-0.18310546875,0.0,0.1220703125,0.2099609375,-0.2066650390625,-0.9300537109375,-399.0,-23.0,260.0,101923.0,-4.969000339508057,0,0
1470.455995,-0.01837158203125,0.7833251953125,-0.60211181640625,0.15313720703125,0.0,0.30517578125,0.1220703125,0.2108154296875,-0.20703125,-0.9285888671875,-399.0,-23.0,260.0,101923.0,-4.969000339508057,0,0
1470.462995,-0.01837158203125,0.7833251953125,-0.60211181640625,0.15313720703125,0.0,0.1220703125,0.244140625,0.2095947265625,-0.2071533203125,-0.9310302734375,-399.0,-23.0,260.0,101923.0,-4.969000339508057,0,0
1470.47002,-0.01837158203125,0.7833251953125,-0.60211181640625,0.15313720703125,-0.1220703125,0.1220703125,-0.06103515625,0.21142578125,-0.2080078125,-0.9296875,-399.0,-23.0,260.0,101923.0,-4.969000339508057,0,0
1470.476999,-0.018341064453125,0.7833251953125,-0.60211181640625,0.15313720703125,-0.244140625,0.18310546875,0.0,0.212646484375,-0.2071533203125,-0.928466796875,-399.0,-23.0,260.0,101923.0,-4.969000339508057,0,0
1470.484016,-0.01837158203125,0.7833251953125,-0.60211181640625,0.15313720703125,0.18310546875,0.06103515625,-0.1220703125,0.2125244140625,-0.210693359375,-0.9281005859375,-399.0,-23.0,260.0,101923.0,-4.969000339508057,0,0
1470.490998,-0.01837158203125,0.7833251953125,-0.60211181640625,0.15313720703125,0.18310546875,0.06103515625,0.0,0.2117919921875,-0.211181640625,-0.9296875,-399.0,-23.0,260.0,101923.0,-4.969000339508057,0,0
1470.497997,-0.01837158203125,0.7833251953125,-0.60211181640625,0.15313720703125,-0.1220703125,0.18310546875,0.0,0.2130126953125,-0.20849609375,-0.9290771484375,-399.0,-23.0,260.0,101923.0,-4.970000267028809,0,0
1470.505022,-0.018341064453125,0.783294677734375,-0.6021728515625,0.153167724609375,-0.1220703125,0.30517578125,0.18310546875,0.2152099609375,-0.208251953125,-0.9283447265625,-399.0,-23.0,260.0,101923.0,-4.970000267028809,0,0
1470.512001,-0.01837158203125,0.783294677734375,-0.6021728515625,0.153167724609375,-0.244140625,-0.06103515625,-0.06103515625,0.2139892578125,-0.2103271484375,-0.92822265625,-399.0,-23.0,260.0,101923.0,-4.970000267028809,0,0
1470.519015,-0.01837158203125,0.783294677734375,-0.6021728515625,0.1531982421875,0.1220703125,0.06103515625,0.18310546875,0.2147216796875,-0.209716796875,-0.9281005859375,-399.0,-23.0,260.0,101923.0,-4.970000267028809,0,0
1470.525996,-0.01837158203125,0.783294677734375,-0.6021728515625,0.1531982421875,0.0,0.18310546875,-0.06103515625,0.2139892578125,-0.2098388671875,-0.9300537109375,-399.0,-23.0,260.0,101923.0,-4.970000267028809,0,0
1470.532027,-0.01837158203125,0.783294677734375,-0.6021728515625,0.1531982421875,0.0,0.18310546875,-0.06103515625,0.2139892578125,-0.2098388671875,-0.9300537109375,-399.0,-23.0,260.0,101923.0,-4.970000267028809,0,0
1470.539019,-0.01837158203125,0.78326416015625,-0.6021728515625,0.153228759765625,0.3662109375,0.0,-0.06103515625,0.2132568359375,-0.2117919921875,-0.9290771484375,-399.0,-23.0,260.0,101923.0,-4.970000267028809,0,0
1470.545995,-0.01837158203125,0.78326416015625,-0.6021728515625,0.153228759765625,-0.06103515625,0.1220703125,0.06103515625,0.2142333984375,-0.207763671875,-0.929443359375,-399.0,-23.0,260.0,101923.0,-4.970000267028809,0,0
1470.552996,-0.01837158203125,0.78326416015625,-0.6021728515625,0.153228759765625,0.06103515625,0.1220703125,0.06103515625,0.212646484375,-0.205810546875,-0.9296875,-399.0,-23.0,260.0,101923.0,-4.970000267028809,0,0
1470.56002,-0.01837158203125,0.78326416015625,-0.6021728515625,0.153228759765625,0.0,-0.06103515625,0.0,0.2103271484375,-0.2081298828125,-0.9296875,-399.0,-23.0,260.0,101923.0,-4.970000267028809,0,0
1470.566999,-0.01837158203125,0.78326416015625,-0.6021728515625,0.1531982421875,0.1220703125,0.18310546875,0.0,0.210205078125,-0.207763671875,-0.931640625,-399.0,-23.0,260.0,101923.0,-4.970000267028809,0,0
1470.574016,-0.01837158203125,0.78326416015625,-0.6021728515625,0.1531982421875,-0.06103515625,0.06103515625,0.1220703125,0.213134765625,-0.2080078125,-0.9302978515625,-399.0,-23.0,260.0,101923.0,-4.970000267028809,0,0
1470.580998,-0.01837158203125,0.78326416015625,-0.6021728515625,0.1531982421875,0.244140625,0.0,0.1220703125,0.214111328125,-0.2071533203125,-0.928955078125,-399.0,-23.0,260.0,101923.0,-4.970000267028809,0,0
1470.587997,-0.01837158203125,0.783294677734375,-0.6021728515625,0.1531982421875,0.1220703125,0.1220703125,0.1220703125,0.2113037109375,-0.2080078125,-0.929931640625,-399.0,-23.0,260.0,101923.0,-4.970000267028809,0,0
1470.595022,-0.01837158203125,0.783294677734375,-0.6021728515625,0.1531982421875,0.18310546875,-0.18310546875,0.0,0.212158203125,-0.2060546875,-0.929931640625,-399.0,-23.0,260.0,101923.0,-4.9710001945495605,0,0
1470.615995,-0.018341064453125,0.783233642578125,-0.60223388671875,0.153228759765625,0.30517578125,0.18310546875,-0.1220703125,0.214111328125,-0.209716796875,-0.929443359375,-400.0,-24.0,258.0,101923.0,-4.9710001945495605,0,0
1470.622995,-0.018341064453125,0.783233642578125,-0.60223388671875,0.1531982421875,0.0,0.1220703125,-0.06103515625,0.2122802734375,-0.2078857421875,-0.93212890625,-400.0,-24.0,258.0,101923.0,-4.9710001945495605,0,0
1470.629027,-0.018341064453125,0.783233642578125,-0.60223388671875,0.1531982421875,0.0,0.1220703125,-0.06103515625,0.2122802734375,-0.2078857421875,-0.93212890625,-400.0,-24.0,258.0,101923.0,-4.9710001945495605,0,0
1470.635996,-0.018341064453125,0.783233642578125,-0.60223388671875,0.153228759765625,0.0,0.0,-0.1220703125,0.213623046875,-0.208251953125,-0.9290771484375,-400.0,-24.0,258.0,101923.0,-4.9710001945495605,0,0
1470.643,-0.018341064453125,0.783233642578125,-0.60223388671875,0.153228759765625,0.0,-0.1220703125,-0.18310546875,0.2138671875,-0.2080078125,-0.9298095703125,-400.0,-24.0,258.0,101923.0,-4.9710001945495605,0,0
1470.65002,-0.018341064453125,0.783233642578125,-0.60223388671875,0.153228759765625,0.1220703125,0.30517578125,-0.06103515625,0.2127685546875,-0.2059326171875,-0.9305419921875,-400.0,-24.0,258.0,101923.0,-4.9710001945495605,0,0
1470.656999,-0.018341064453125,0.783233642578125,-0.60223388671875,0.153228759765625,0.06103515625,0.30517578125,0.1220703125,0.215087890625,-0.2069091796875,-0.9307861328125,-400.0,-24.0,258.0,101923.0,-4.9710001945495605,0,0
1470.664016,-0.018341064453125,0.783233642578125,-0.60223388671875,0.153228759765625,0.1220703125,0.1220703125,-0.06103515625,0.213623046875,-0.208251953125,-0.9298095703125,-400.0,-24.0,258.0,101923.0,-4.9710001945495605,0,0
1470.670998,-0.018310546875,0.783233642578125,-0.60223388671875,0.153228759765625,0.1220703125,0.1220703125,0.0,0.2130126953125,-0.207275390625,-0.9290771484375,-400.0,-24.0,258.0,101923.0,-4.9710001945495605,0,0
1470.677997,-0.018310546875,0.783233642578125,-0.60223388671875,0.153228759765625,0.0,0.30517578125,-0.18310546875,0.2110595703125,-0.2088623046875,-0.9310302734375,-400.0,-24.0,258.0,101923.0,-4.9710001945495605,0,0
1470.706,-0.018310546875,0.783233642578125,-0.60223388671875,0.153228759765625,-0.18310546875,0.06103515625,0.1220703125,0.214111328125,-0.2081298828125,-0.9296875,-399.0,-24.0,259.0,101923.0,-4.969000339508057,0,0
1470.712999,-0.018310546875,0.783233642578125,-0.60223388671875,0.153228759765625,-0.244140625,0.0,0.1220703125,0.2109375,-0.20947265625,-0.93017578125,-399.0,-24.0,259.0,101923.0,-4.969000339508057,0,0
1470.719032,-0.018310546875,0.783233642578125,-0.60223388671875,0.153228759765625,-0.244140625,0.0,0.1220703125,0.2109375,-0.20947265625,-0.93017578125,-399.0,-24.0,259.0,101923.0,-4.969000339508057,0,0
1470.725996,-0.018310546875,0.783233642578125,-0.60223388671875,0.153228759765625,0.06103515625,0.06103515625,-0.1220703125,0.2149658203125,-0.2100830078125,-0.928466796875,-399.0,-24.0,259.0,101923.0,-4.969000339508057,0,0
1470.732996,-0.018310546875,0.783233642578125,-0.60223388671875,0.15325927734375,0.1220703125,0.244140625,0.18310546875,0.2137451171875,-0.2083740234375,-0.9285888671875,-399.0,-24.0,259.0,101923.0,-4.969000339508057,0,0
1470.74002,-0.018310546875,0.783233642578125,-0.60223388671875,0.15325927734375,0.244140625,0.18310546875,0.06103515625,0.2144775390625,-0.209228515625,-0.930419921875,-399.0,-24.0,259.0,101923.0,-4.969000339508057,0,0
1470.746999,-0.018310546875,0.783233642578125,-0.60223388671875,0.15325927734375,-0.18310546875,-0.06103515625,-0.06103515625,0.2158203125,-0.2086181640625,-0.9300537109375,-399.0,-24.0,259.0,101923.0,-4.969000339508057,0,0
1470.754016,-0.018310546875,0.783233642578125,-0.60223388671875,0.153289794921875,0.0,0.244140625,-0.06103515625,0.213134765625,-0.208740234375,-0.9293212890625,-399.0,-24.0,259.0,101923.0,-4.969000339508057,0,0
1470.760997,-0.018310546875,0.783233642578125,-0.60223388671875,0.15325927734375,0.0,0.1220703125,-0.18310546875,0.2109375,-0.2088623046875,-0.9293212890625,-399.0,-24.0,259.0,101923.0,-4.969000339508057,0,0
1470.767997,-0.018310546875,0.783233642578125,-0.60223388671875,0.15325927734375,0.0,0.244140625,-0.06103515625,0.2142333984375,-0.208984375,-0.930419921875,-399.0,-24.0,259.0,101923.0,-4.969000339508057,0,0
1470.775022,-0.018310546875,0.783233642578125,-0.60223388671875,0.15325927734375,0.1220703125,0.1220703125,0.18310546875,0.2127685546875,-0.206298828125,-0.9300537109375,-399.0,-24.0,259.0,101923.0,-4.969000339508057,0,0
1470.782001,-0.018280029296875,0.783233642578125,-0.60223388671875,0.15325927734375,-0.06103515625,0.244140625,-0.1220703125,0.2135009765625,-0.2078857421875,-0.9293212890625,-399.0,-24.0,259.0,101923.0,-4.969000339508057,0,0
1470.789015,-0.018310546875,0.783233642578125,-0.60223388671875,0.15325927734375,0.06103515625,0.06103515625,0.06103515625,0.212646484375,-0.209716796875,-0.93017578125,-399.0,-24.0,259.0,101923.0,-4.969000339508057,0,0
1470.795996,-0.018310546875,0.783233642578125,-0.60223388671875,0.15325927734375,0.18310546875,0.0,0.06103515625,0.210693359375,-0.2098388671875,-0.9298095703125,-401.0,-24.0,258.0,101923.0,-4.969000339508057,0,0
1470.802995,-0.018310546875,0.783203125,-0.602294921875,0.15325927734375,0.42724609375,-0.18310546875,-0.1220703125,0.210693359375,-0.20703125,-0.9306640625,-401.0,-24.0,258.0,101923.0,-4.969000339508057,0,0
1470.810019,-0.018310546875,0.783203125,-0.602294921875,0.15325927734375,-0.06103515625,0.18310546875,0.0,0.2127685546875,-0.2088623046875,-0.929931640625,-401.0,-24.0,258.0,101923.0,-4.969000339508057,0,0
1470.816052,-0.018310546875,0.783203125,-0.602294921875,0.15325927734375,-0.06103515625,0.18310546875,0.0,0.2127685546875,-0.2088623046875,-0.929931640625,-401.0,-24.0,258.0,101923.0,-4.969000339508057,0,0
1470.822995,-0.018310546875,0.783203125,-0.602294921875,0.153228759765625,0.06103515625,0.1220703125,0.0,0.2105712890625,-0.2069091796875,-0.9315185546875,-401.0,-24.0,258.0,101923.0,-4.969000339508057,0,0
1470.83002,-0.018310546875,0.783203125,-0.602294921875,0.153228759765625,0.06103515625,0.18310546875,0.1220703125,0.2137451171875,-0.209716796875,-0.93115234375,-401.0,-24.0,258.0,101923.0,-4.969000339508057,0,0
1470.836999,-0.018310546875,0.783203125,-0.602294921875,0.153228759765625,0.1220703125,0.18310546875,-0.1220703125,0.210205078125,-0.2086181640625,-0.9288330078125,-401.0,-24.0,258.0,101923.0,-4.969000339508057,0,0
1470.844016,-0.018310546875,0.783203125,-0.602294921875,0.153228759765625,0.06103515625,0.1220703125,0.1220703125,0.2108154296875,-0.2044677734375,-0.930908203125,-401.0,-24.0,258.0,101923.0,-4.970000267028809,0,0
1470.850997,-0.018310546875,0.783203125,-0.602294921875,0.153228759765625,-0.1220703125,0.1220703125,0.06103515625,0.212890625,-0.208740234375,-0.929931640625,-401.0,-24.0,258.0,101923.0,-4.970000267028809,0,0
1470.872001,-0.018310546875,0.783203125,-0.602294921875,0.1531982421875,0.0,0.18310546875,0.0,0.214599609375,-0.2064208984375,-0.9315185546875,-401.0,-24.0,258.0,101923.0,-4.970000267028809,0,0
1470.879015,-0.018310546875,0.783203125,-0.602294921875,0.1531982421875,-0.18310546875,0.3662109375,0.0,0.212158203125,-0.20703125,-0.9305419921875,-401.0,-24.0,258.0,101923.0,-4.970000267028809,0,0
1470.885995,-0.018310546875,0.783203125,-0.602294921875,0.1531982421875,0.30517578125,0.18310546875,0.0,0.21240234375,-0.2083740234375,-0.929931640625,-401.0,-24.0,258.0,101923.0,-4.970000267028809,0,0
1470.892995,-0.018310546875,0.783203125,-0.602294921875,0.1531982421875,0.0,0.244140625,-0.1220703125,0.21142578125,-0.2088623046875,-0.9285888671875,-401.0,-24.0,258.0,101923.0,-4.970000267028809,0,0
1470.900019,-0.018310546875,0.783203125,-0.602294921875,0.1531982421875,0.0,0.06103515625,-0.1220703125,0.2132568359375,-0.207275390625,-0.928955078125,-401.0,-24.0,258.0,101923.0,-4.970000267028809,0,0
1470.906052,-0.018310546875,0.783203125,-0.602294921875,0.1531982421875,0.0,0.06103515625,-0.1220703125,0.2132568359375,-0.207275390625,-0.928955078125,-401.0,-24.0,258.0,101923.0,-4.970000267028809,0,0
1470.912996,-0.018280029296875,0.78314208984375,-0.60235595703125,0.1531982421875,-0.06103515625,0.3662109375,0.0,0.2132568359375,-0.208984375,-0.9278564453125,-401.0,-24.0,258.0,101923.0,-4.970000267028809,0,0
1470.92002,-0.018310546875,0.78314208984375,-0.60235595703125,0.1531982421875,0.0,0.06103515625,-0.06103515625,0.2120361328125,-0.2086181640625,-0.930419921875,-401.0,-24.0,258.0,101923.0,-4.970000267028809,0,0
1470.926999,-0.018310546875,0.78314208984375,-0.60235595703125,0.1531982421875,0.06103515625,0.244140625,0.06103515625,0.2138671875,-0.2071533203125,-0.9278564453125,-401.0,-24.0,258.0,101923.0,-4.970000267028809,0,0
1470.934016,-0.018310546875,0.78314208984375,-0.60235595703125,0.1531982421875,-0.244140625,0.244140625,0.06103515625,0.213134765625,-0.209716796875,-0.928955078125,-401.0,-24.0,258.0,101923.0,-4.970000267028809,0,0
1470.940998,-0.018310546875,0.78314208984375,-0.60235595703125,0.153228759765625,-0.1220703125,0.06103515625,-0.06103515625,0.213134765625,-0.210205078125,-0.9296875,-401.0,-24.0,258.0,101923.0,-4.970000267028809,0,0
1470.962001,-0.018310546875,0.78314208984375,-0.60235595703125,0.153228759765625,0.0,0.0,0.18310546875,0.21240234375,-0.20849609375,-0.9315185546875,-401.0,-24.0,258.0,101923.0,-4.970000267028809,0,0
1470.969015,-0.018310546875,0.78314208984375,-0.60235595703125,0.153228759765625,-0.06103515625,0.1220703125,0.06103515625,0.21435546875,-0.20947265625,-0.9310302734375,-401.0,-24.0,258.0,101923.0,-4.970000267028809,0,0
1470.976,-0.018310546875,0.78314208984375,-0.60235595703125,0.153228759765625,0.244140625,0.18310546875,-0.06103515625,0.2122802734375,-0.208251953125,-0.927490234375,-401.0,-24.0,258.0,101923.0,-4.970000267028809,0,0
1470.982999,-0.018310546875,0.78314208984375,-0.60235595703125,0.153228759765625,-0.18310546875,-0.06103515625,-0.06103515625,0.21044921875,-0.2064208984375,-0.929931640625,-401.0,-24.0,258.0,101923.0,-4.970000267028809,0,0
1470.99002,-0.018310546875,0.78314208984375,-0.60235595703125,0.153228759765625,-0.18310546875,-0.06103515625,0.0,0.2119140625,-0.2093505859375,-0.93017578125,-401.0,-24.0,258.0,101923.0,-4.970000267028809,0,0
1470.997003,-0.018310546875,0.78314208984375,-0.60235595703125,0.153228759765625,-0.06103515625,0.1220703125,-0.18310546875,0.213623046875,-0.2081298828125,-0.9307861328125,-401.0,-24.0,259.0,101923.0,-4.970000267028809,0,0
1471.003036,-0.018310546875,0.78314208984375,-0.60235595703125,0.153228759765625,-0.06103515625,0.1220703125,-0.18310546875,0.213623046875,-0.2081298828125,-0.9307861328125,-401.0,-24.0,259.0,101923.0,-4.970000267028809,0,0
1471.01002,-0.018280029296875,0.783111572265625,-0.602386474609375,0.153228759765625,0.30517578125,0.0,-0.1220703125,0.215576171875,-0.207763671875,-0.9300537109375,-401.0,-24.0,259.0,101923.0,-4.970000267028809,0,0
1471.016999,-0.018280029296875,0.783111572265625,-0.602386474609375,0.153228759765625,-0.1220703125,0.06103515625,0.0,0.2130126953125,-0.207275390625,-0.929931640625,-401.0,-24.0,259.0,101923.0,-4.970000267028809,0,0
1471.024016,-0.018280029296875,0.783111572265625,-0.602386474609375,0.153228759765625,0.0,0.42724609375,0.0,0.2130126953125,-0.2080078125,-0.930908203125,-401.0,-24.0,259.0,101923.0,-4.970000267028809,0,0
1471.030998,-0.018280029296875,0.783111572265625,-0.602386474609375,0.153228759765625,0.244140625,0.0,0.06103515625,0.213134765625,-0.2071533203125,-0.92822265625,-401.0,-24.0,259.0,101923.0,-4.970000267028809,0,0
1471.037997,-0.018280029296875,0.783111572265625,-0.602386474609375,0.153228759765625,0.18310546875,0.18310546875,-0.244140625,0.21240234375,-0.207763671875,-0.928955078125,-401.0,-24.0,259.0,101923.0,-4.970000267028809,0,0
1471.045022,-0.018280029296875,0.783111572265625,-0.602386474609375,0.153228759765625,0.06103515625,0.06103515625,-0.18310546875,0.2139892578125,-0.2081298828125,-0.9310302734375,-401.0,-24.0,259.0,101923.0,-4.970000267028809,0,0
1471.052001,-0.018280029296875,0.783111572265625,-0.602386474609375,0.153228759765625,0.06103515625,0.0,0.06103515625,0.21142578125,-0.2080078125,-0.929931640625,-401.0,-24.0,259.0,101923.0,-4.970000267028809,0,0
1471.059015,-0.018280029296875,0.783111572265625,-0.602386474609375,0.153228759765625,0.0,0.0,0.0,0.212646484375,-0.2071533203125,-0.9315185546875,-401.0,-24.0,259.0,101923.0,-4.970000267028809,0,0
1471.065995,-0.018280029296875,0.783111572265625,-0.602386474609375,0.1531982421875,0.1220703125,-0.06103515625,0.0,0.2109375,-0.2054443359375,-0.9310302734375,-401.0,-24.0,259.0,101923.0,-4.970000267028809,0,0
1471.072995,-0.018280029296875,0.783111572265625,-0.602386474609375,0.1531982421875,-0.06103515625,0.06103515625,-0.06103515625,0.212158203125,-0.2086181640625,-0.9296875,-401.0,-24.0,259.0,101923.0,-4.970000267028809,0,0
1471.080019,-0.018280029296875,0.783111572265625,-0.6024169921875,0.1531982421875,0.18310546875,0.06103515625,0.0,0.2119140625,-0.208984375,-0.9285888671875,-401.0,-24.0,259.0,101923.0,-4.970000267028809,0,0
1471.087003,-0.018280029296875,0.783111572265625,-0.6024169921875,0.1531982421875,0.1220703125,0.18310546875,-0.06103515625,0.2130126953125,-0.2078857421875,-0.9298095703125,-401.0,-24.0,259.0,101923.0,-4.970000267028809,0,0
1471.093036,-0.018280029296875,0.783111572265625,-0.6024169921875,0.1531982421875,0.1220703125,0.18310546875,-0.06103515625,0.2130126953125,-0.2078857421875,-0.9298095703125,-401.0,-24.0,259.0,101923.0,-4.970000267028809,0,0
1471.10002,-0.01824951171875,0.7830810546875,-0.602447509765625,0.1531982421875,0.0,0.1220703125,-0.18310546875,0.2152099609375,-0.205810546875,-0.9296875,-401.0,-24.0,259.0,101923.0,-4.970000267028809,0,0
1471.106999,-0.01824951171875,0.7830810546875,-0.602447509765625,0.1531982421875,-0.244140625,0.3662109375,-0.18310546875,0.21337890625,-0.206298828125,-0.93115234375,-401.0,-24.0,259.0,101923.0,-4.970000267028809,0,0
1471.114016,-0.01824951171875,0.7830810546875,-0.602447509765625,0.1531982421875,-0.06103515625,0.244140625,0.30517578125,0.21142578125,-0.2066650390625,-0.930908203125,-401.0,-24.0,259.0,101923.0,-4.970000267028809,0,0
1471.135022,-0.018280029296875,0.7830810546875,-0.60247802734375,0.153167724609375,-0.06103515625,0.18310546875,-0.1220703125,0.210205078125,-0.2086181640625,-0.9296875,-401.0,-24.0,259.0,101923.0,-4.970000267028809,0,0
1471.142001,-0.018280029296875,0.7830810546875,-0.602447509765625,0.153167724609375,0.0,0.18310546875,0.06103515625,0.213623046875,-0.2076416015625,-0.9288330078125,-401.0,-24.0,259.0,101923.0,-4.970000267028809,0,0
1471.149015,-0.01824951171875,0.7830810546875,-0.602447509765625,0.153167724609375,0.06103515625,0.0,-0.1220703125,0.2125244140625,-0.2076416015625,-0.9285888671875,-401.0,-24.0,259.0,101923.0,-4.970000267028809,0,0
1471.155995,-0.018280029296875,0.7830810546875,-0.60247802734375,0.15313720703125,0.0,0.18310546875,-0.1220703125,0.21142578125,-0.2083740234375,-0.9293212890625,-401.0,-24.0,259.0,101923.0,-4.970000267028809,0,0
1471.162995,-0.018280029296875,0.7830810546875,-0.60247802734375,0.15313720703125,-0.06103515625,0.06103515625,0.18310546875,0.2105712890625,-0.2080078125,-0.929443359375,-401.0,-24.0,259.0,101923.0,-4.970000267028809,0,0
1471.170019,-0.018280029296875,0.7830810546875,-0.60247802734375,0.15313720703125,0.18310546875,0.244140625,0.0,0.2138671875,-0.210205078125,-0.928466796875,-401.0,-24.0,259.0,101923.0,-4.970000267028809,0,0
1471.177003,-0.018280029296875,0.7830810546875,-0.60247802734375,0.153167724609375,0.0,0.06103515625,0.18310546875,0.212890625,-0.2093505859375,-0.9305419921875,-401.0,-24.0,259.0,101923.0,-4.970000267028809,0,0
1471.184018,-0.018280029296875,0.7830810546875,-0.60247802734375,0.153167724609375,0.18310546875,0.1220703125,-0.06103515625,0.2137451171875,-0.209228515625,-0.9310302734375,-401.0,-24.0,259.0,101923.0,-4.970000267028809,0,0
1471.190046,-0.018280029296875,0.7830810546875,-0.60247802734375,0.153167724609375,0.18310546875,0.1220703125,-0.06103515625,0.2137451171875,-0.209228515625,-0.9310302734375,-401.0,-24.0,259.0,101923.0,-4.970000267028809,0,0
1471.196999,-0.018280029296875,0.783050537109375,-0.602447509765625,0.1531982421875,-0.06103515625,0.06103515625,-0.244140625,0.2152099609375,-0.20849609375,-0.928955078125,-400.0,-24.0,260.0,101923.0,-4.970000267028809,0,0
1471.204016,-0.018280029296875,0.783050537109375,-0.602447509765625,0.1531982421875,-0.06103515625,0.0,-0.1220703125,0.21240234375,-0.2093505859375,-0.9300537109375,-400.0,-24.0,260.0,101923.0,-4.970000267028809,0,0
1471.225022,-0.018280029296875,0.783050537109375,-0.602447509765625,0.153228759765625,0.1220703125,0.18310546875,0.0,0.2142333984375,-0.20849609375,-0.9293212890625,-400.0,-24.0,260.0,101923.0,-4.970000267028809,0,0
1471.232001,-0.018280029296875,0.783050537109375,-0.602447509765625,0.153228759765625,-0.1220703125,0.18310546875,0.1220703125,0.212890625,-0.2080078125,-0.9300537109375,-400.0,-24.0,260.0,101923.0,-4.970000267028809,0,0
1471.239015,-0.018280029296875,0.783050537109375,-0.602447509765625,0.153228759765625,0.0,0.0,-0.06103515625,0.2139892578125,-0.206787109375,-0.9285888671875,-400.0,-24.0,260.0,101923.0,-4.970000267028809,0,0
1471.246,-0.018280029296875,0.783050537109375,-0.602447509765625,0.153228759765625,0.06103515625,0.244140625,0.06103515625,0.2135009765625,-0.206787109375,-0.93017578125,-400.0,-24.0,260.0,101923.0,-4.9710001945495605,0,0
1471.252999,-0.018280029296875,0.783050537109375,-0.602447509765625,0.1531982421875,-0.244140625,0.18310546875,0.0,0.2110595703125,-0.208740234375,-0.929931640625,-400.0,-24.0,260.0,101923.0,-4.9710001945495605,0,0
1471.26002,-0.018280029296875,0.7830810546875,-0.602447509765625,0.1531982421875,-0.1220703125,0.1220703125,0.1220703125,0.212158203125,-0.2064208984375,-0.93017578125,-400.0,-24.0,260.0,101923.0,-4.9710001945495605,0,0
1471.267003,-0.018280029296875,0.7830810546875,-0.602447509765625,0.1531982421875,0.1220703125,0.1220703125,0.0,0.21142578125,-0.206298828125,-0.9296875,-400.0,-24.0,260.0,101923.0,-4.9710001945495605,0,0
1471.274018,-0.018280029296875,0.7830810546875,-0.602447509765625,0.1531982421875,0.1220703125,0.18310546875,-0.1220703125,0.212890625,-0.2095947265625,-0.9287109375,-400.0,-24.0,260.0,101923.0,-4.9710001945495605,0,0
1471.280051,-0.018280029296875,0.7830810546875,-0.602447509765625,0.1531982421875,0.1220703125,0.18310546875,-0.1220703125,0.212890625,-0.2095947265625,-0.9287109375,-400.0,-24.0,260.0,101923.0,-4.9710001945495605,0,0
1471.286999,-0.01824951171875,0.7830810546875,-0.602447509765625,0.1531982421875,-0.06103515625,0.1220703125,-0.06103515625,0.2164306640625,-0.208251953125,-0.928955078125,-400.0,-24.0,260.0,101923.0,-4.9710001945495605,0,0
1471.294016,-0.01824951171875,0.7830810546875,-0.602447509765625,0.1531982421875,0.1220703125,0.244140625,0.06103515625,0.2127685546875,-0.2081298828125,-0.9288330078125,-400.0,-24.0,260.0,101923.0,-4.9710001945495605,0,0
1471.300998,-0.01824951171875,0.7830810546875,-0.602447509765625,0.1531982421875,0.1220703125,0.244140625,-0.1220703125,0.2120361328125,-0.2071533203125,-0.93017578125,-399.0,-24.0,259.0,101923.0,-4.9710001945495605,0,0
1471.307997,-0.01824951171875,0.7830810546875,-0.602447509765625,0.1531982421875,-0.1220703125,0.1220703125,0.0,0.2120361328125,-0.206787109375,-0.93017578125,-399.0,-24.0,259.0,101923.0,-4.9710001945495605,0,0
1471.315022,-0.01824951171875,0.7830810546875,-0.602447509765625,0.153167724609375,0.06103515625,0.1220703125,0.1220703125,0.2130126953125,-0.209228515625,-0.932373046875,-399.0,-24.0,259.0,101923.0,-4.9710001945495605,0,0
1471.322001,-0.01824951171875,0.7830810546875,-0.602447509765625,0.153167724609375,0.1220703125,0.06103515625,0.0,0.2122802734375,-0.20849609375,-0.929443359375,-399.0,-24.0,259.0,101923.0,-4.9710001945495605,0,0
1471.329015,-0.01824951171875,0.7830810546875,-0.602447509765625,0.153167724609375,0.06103515625,0.1220703125,0.18310546875,0.21142578125,-0.2083740234375,-0.931884765625,-399.0,-24.0,259.0,101923.0,-4.9710001945495605,0,0
1471.335995,-0.01824951171875,0.7830810546875,-0.602447509765625,0.153167724609375,0.0,0.244140625,0.1220703125,0.2119140625,-0.20849609375,-0.9302978515625,-399.0,-24.0,259.0,101923.0,-4.9710001945495605,0,0
1471.342995,-0.01824951171875,0.7830810546875,-0.602447509765625,0.153167724609375,-0.1220703125,0.1220703125,0.18310546875,0.211669921875,-0.2103271484375,-0.9310302734375,-399.0,-24.0,259.0,101923.0,-4.9710001945495605,0,0
1471.350019,-0.01824951171875,0.7830810546875,-0.602447509765625,0.153167724609375,-0.1220703125,0.0,0.1220703125,0.2113037109375,-0.2083740234375,-0.9302978515625,-399.0,-24.0,259.0,101923.0,-4.969000339508057,0,0
1471.357003,-0.018280029296875,0.7830810546875,-0.602447509765625,0.153167724609375,-0.06103515625,0.244140625,0.42724609375,0.2122802734375,-0.21044921875,-0.9296875,-399.0,-24.0,259.0,101923.0,-4.969000339508057,0,0
1471.364018,-0.01824951171875,0.7830810546875,-0.602447509765625,0.153167724609375,0.0,-0.06103515625,-0.06103515625,0.213623046875,-0.2056884765625,-0.9285888671875,-399.0,-24.0,259.0,101923.0,-4.969000339508057,0,0
1471.370997,-0.018280029296875,0.7830810546875,-0.602447509765625,0.153167724609375,-0.1220703125,0.244140625,-0.244140625,0.2135009765625,-0.208740234375,-0.9298095703125,-399.0,-24.0,259.0,101923.0,-4.969000339508057,0,0
1471.377025,-0.018280029296875,0.7830810546875,-0.602447509765625,0.153167724609375,-0.1220703125,0.244140625,-0.244140625,0.2135009765625,-0.208740234375,-0.9298095703125,-399.0,-24.0,259.0,101923.0,-4.969000339508057,0,0
1471.397997,-0.018280029296875,0.783111572265625,-0.6024169921875,0.153167724609375,-0.1220703125,0.06103515625,-0.18310546875,0.2119140625,-0.20751953125,-0.9290771484375,-399.0,-25.0,260.0,101923.0,-4.969000339508057,0,0
1471.405022,-0.018280029296875,0.783111572265625,-0.6024169921875,0.153167724609375,-0.18310546875,0.18310546875,0.18310546875,0.2135009765625,-0.2080078125,-0.9298095703125,-399.0,-25.0,260.0,101923.0,-4.969000339508057,0,0
1471.412001,-0.01824951171875,0.783111572265625,-0.602386474609375,0.1531982421875,0.244140625,0.18310546875,-0.244140625,0.217041015625,-0.2108154296875,-0.9287109375,-399.0,-25.0,260.0,101923.0,-4.969000339508057,0,0
1471.419015,-0.01824951171875,0.783111572265625,-0.602386474609375,0.1531982421875,0.1220703125,0.244140625,-0.1220703125,0.2138671875,-0.20849609375,-0.9273681640625,-399.0,-25.0,260.0,101923.0,-4.969000339508057,0,0
1471.425996,-0.01824951171875,0.783111572265625,-0.602386474609375,0.1531982421875,0.1220703125,0.18310546875,0.0,0.213134765625,-0.21142578125,-0.9298095703125,-399.0,-25.0,260.0,101923.0,-4.969000339508057,0,0
1471.432995,-0.01824951171875,0.783111572265625,-0.602386474609375,0.153228759765625,-0.1220703125,0.06103515625,-0.06103515625,0.212646484375,-0.207275390625,-0.9285888671875,-399.0,-25.0,260.0,101923.0,-4.969000339508057,0,0
1471.440019,-0.01824951171875,0.783111572265625,-0.602386474609375,0.153228759765625,0.18310546875,0.18310546875,0.06103515625,0.213623046875,-0.2083740234375,-0.929443359375,-399.0,-25.0,260.0,101923.0,-4.969000339508057,0,0
1471.447003,-0.01824951171875,0.783111572265625,-0.602386474609375,0.153228759765625,0.1220703125,0.1220703125,-0.18310546875,0.21435546875,-0.208740234375,-0.931884765625,-399.0,-25.0,260.0,101923.0,-4.969000339508057,0,0
1471.454019,-0.01824951171875,0.783111572265625,-0.602386474609375,0.1531982421875,0.1220703125,0.1220703125,0.06103515625,0.211669921875,-0.2078857421875,-0.929931640625,-399.0,-25.0,260.0,101923.0,-4.969000339508057,0,0
1471.460997,-0.01824951171875,0.783111572265625,-0.602386474609375,0.1531982421875,-0.1220703125,0.244140625,0.06103515625,0.2130126953125,-0.2064208984375,-0.9306640625,-399.0,-25.0,260.0,101923.0,-4.969000339508057,0,0
1471.467025,-0.01824951171875,0.783111572265625,-0.602386474609375,0.1531982421875,-0.1220703125,0.244140625,0.06103515625,0.2130126953125,-0.2064208984375,-0.9306640625,-399.0,-25.0,260.0,101923.0,-4.969000339508057,0,0
1471.487997,-0.01824951171875,0.783111572265625,-0.602386474609375,0.1531982421875,-0.06103515625,0.30517578125,-0.06103515625,0.2109375,-0.209716796875,-0.930908203125,-399.0,-25.0,260.0,101923.0,-4.969000339508057,0,0
1471.495022,-0.01824951171875,0.783111572265625,-0.602386474609375,0.153167724609375,0.0,0.06103515625,0.0,0.208984375,-0.205078125,-0.9278564453125,-399.0,-25.0,260.0,101923.0,-4.969000339508057,0,0
1471.502001,-0.018280029296875,0.783203125,-0.602294921875,0.153167724609375,-0.1220703125,0.1220703125,0.1220703125,0.212158203125,-0.2088623046875,-0.9298095703125,-400.0,-25.0,260.0,101923.0,-4.969000339508057,0,0
1471.509015,-0.018280029296875,0.783203125,-0.602294921875,0.153167724609375,0.1220703125,0.54931640625,-0.06103515625,0.2117919921875,-0.2078857421875,-0.928466796875,-400.0,-25.0,260.0,101923.0,-4.969000339508057,0,0
1471.515996,-0.018280029296875,0.783203125,-0.602294921875,0.153167724609375,0.0,0.06103515625,-0.06103515625,0.2147216796875,-0.2080078125,-0.9305419921875,-400.0,-25.0,260.0,101923.0,-4.969000339508057,0,0
1471.522995,-0.018280029296875,0.783203125,-0.602294921875,0.153167724609375,-0.30517578125,0.06103515625,-0.06103515625,0.2120361328125,-0.205322265625,-0.9298095703125,-400.0,-25.0,260.0,101923.0,-4.969000339508057,0,0
1471.530019,-0.018280029296875,0.783203125,-0.602294921875,0.153167724609375,0.0,0.18310546875,0.06103515625,0.2127685546875,-0.2071533203125,-0.9278564453125,-400.0,-25.0,260.0,101923.0,-4.969000339508057,0,0
1471.537003,-0.018280029296875,0.783203125,-0.602294921875,0.153167724609375,0.06103515625,0.06103515625,-0.06103515625,0.2132568359375,-0.20849609375,-0.9285888671875,-400.0,-25.0,260.0,101923.0,-4.969000339508057,0,0
1471.544018,-0.018280029296875,0.783203125,-0.602294921875,0.153167724609375,-0.06103515625,0.18310546875,-0.06103515625,0.2144775390625,-0.2100830078125,-0.929931640625,-400.0,-25.0,260.0,101923.0,-4.969000339508057,0,0
1471.550997,-0.01824951171875,0.783203125,-0.602294921875,0.153167724609375,0.0,0.244140625,-0.06103515625,0.2156982421875,-0.206787109375,-0.929443359375,-400.0,-25.0,260.0,101923.0,-4.969000339508057,0,0
1471.55703,-0.01824951171875,0.783203125,-0.602294921875,0.153167724609375,0.0,0.244140625,-0.06103515625,0.2156982421875,-0.206787109375,-0.929443359375,-400.0,-25.0,260.0,101923.0,-4.969000339508057,0,0
1471.564016,-0.01824951171875,0.783203125,-0.602294921875,0.153167724609375,0.06103515625,0.1220703125,-0.1220703125,0.2154541015625,-0.206787109375,-0.9296875,-400.0,-25.0,260.0,101923.0,-4.969000339508057,0,0
1471.570998,-0.01824951171875,0.783203125,-0.602294921875,0.1531982421875,0.06103515625,0.0,0.18310546875,0.215087890625,-0.208251953125,-0.931640625,-400.0,-25.0,260.0,101923.0,-4.969000339508057,0,0
1471.577997,-0.01824951171875,0.783203125,-0.602294921875,0.1531982421875,0.1220703125,0.0,0.1220703125,0.21142578125,-0.20751953125,-0.9306640625,-400.0,-25.0,260.0,101923.0,-4.969000339508057,0,0
1471.585022,-0.01824951171875,0.783203125,-0.602294921875,0.1531982421875,0.0,0.18310546875,-0.18310546875,0.213623046875,-0.2080078125,-0.92919921875,-400.0,-25.0,260.0,101923.0,-4.969000339508057,0,0
1471.592001,-0.01824951171875,0.783203125,-0.602294921875,0.1531982421875,-0.06103515625,0.244140625,-0.06103515625,0.2119140625,-0.20849609375,-0.9307861328125,-400.0,-25.0,260.0,101923.0,-4.969000339508057,0,0
1471.599015,-0.01824951171875,0.783203125,-0.602294921875,0.1531982421875,0.1220703125,0.0,-0.1220703125,0.21142578125,-0.208740234375,-0.9290771484375,-399.0,-24.0,261.0,101923.0,-4.969000339508057,0,0
1471.606,-0.01824951171875,0.783203125,-0.602294921875,0.1531982421875,0.0,0.06103515625,0.1220703125,0.214599609375,-0.20849609375,-0.9293212890625,-399.0,-24.0,261.0,101923.0,-4.969000339508057,0,0
1471.612999,-0.01824951171875,0.783203125,-0.602294921875,0.1531982421875,-0.244140625,-0.06103515625,-0.1220703125,0.2125244140625,-0.20947265625,-0.9305419921875,-399.0,-24.0,261.0,101923.0,-4.969000339508057,0,0
1471.62002,-0.018280029296875,0.783203125,-0.602294921875,0.1531982421875,0.06103515625,0.30517578125,0.244140625,0.212158203125,-0.2117919921875,-0.9296875,-399.0,-24.0,261.0,101923.0,-4.969000339508057,0,0
1471.627003,-0.018280029296875,0.783203125,-0.602294921875,0.1531982421875,0.0,0.1220703125,-0.06103515625,0.2122802734375,-0.2108154296875,-0.9305419921875,-399.0,-24.0,261.0,101923.0,-4.969000339508057,0,0
1471.634018,-0.018280029296875,0.783203125,-0.602294921875,0.1531982421875,-0.18310546875,0.18310546875,-0.1220703125,0.2142333984375,-0.2091064453125,-0.928955078125,-399.0,-24.0,261.0,101923.0,-4.969000339508057,0,0
1471.640997,-0.018280029296875,0.783203125,-0.602294921875,0.1531982421875,-0.18310546875,0.1220703125,-0.06103515625,0.2120361328125,-0.2100830078125,-0.9296875,-399.0,-24.0,261.0,101923.0,-4.970000267028809,0,0
1471.660997,-0.018310546875,0.783203125,-0.602294921875,0.153228759765625,0.0,0.06103515625,0.0,0.2138671875,-0.2091064453125,-0.928466796875,-399.0,-24.0,261.0,101923.0,-4.970000267028809,0,0
1471.667997,-0.018310546875,0.783203125,-0.602294921875,0.153228759765625,-0.06103515625,0.30517578125,0.18310546875,0.2119140625,-0.2109375,-0.9296875,-399.0,-24.0,261.0,101923.0,-4.970000267028809,0,0
1471.675022,-0.018310546875,0.783203125,-0.602294921875,0.153228759765625,0.0,0.0,0.06103515625,0.213134765625,-0.2073974609375,-0.93115234375,-399.0,-24.0,261.0,101923.0,-4.970000267028809,0,0
1471.682001,-0.018310546875,0.783203125,-0.602294921875,0.153228759765625,0.06103515625,0.244140625,0.06103515625,0.2142333984375,-0.2080078125,-0.9285888671875,-399.0,-24.0,261.0,101923.0,-4.970000267028809,0,0
1471.689015,-0.018310546875,0.783203125,-0.602294921875,0.153228759765625,-0.06103515625,0.06103515625,0.18310546875,0.2138671875,-0.208251953125,-0.9305419921875,-399.0,-24.0,261.0,101923.0,-4.970000267028809,0,0
1471.695995,-0.018310546875,0.783203125,-0.602294921875,0.153228759765625,0.30517578125,0.06103515625,0.1220703125,0.2138671875,-0.209228515625,-0.9306640625,-399.0,-23.0,262.0,101923.0,-4.970000267028809,0,0
1471.702995,-0.018280029296875,0.78314208984375,-0.602325439453125,0.153228759765625,0.0,-0.1220703125,-0.1220703125,0.2158203125,-0.210205078125,-0.93017578125,-399.0,-23.0,262.0,101923.0,-4.970000267028809,0,0
1471.710019,-0.018280029296875,0.78314208984375,-0.602325439453125,0.153228759765625,-0.18310546875,0.06103515625,-0.1220703125,0.2127685546875,-0.2059326171875,-0.9296875,-399.0,-23.0,262.0,101923.0,-4.970000267028809,0,0
1471.717003,-0.018280029296875,0.78314208984375,-0.602325439453125,0.153228759765625,0.18310546875,0.0,0.0,0.2137451171875,-0.207763671875,-0.9290771484375,-399.0,-23.0,262.0,101923.0,-4.970000267028809,0,0
1471.724018,-0.018280029296875,0.78314208984375,-0.602325439453125,0.153228759765625,0.1220703125,0.06103515625,0.06103515625,0.21533203125,-0.206787109375,-0.930908203125,-399.0,-23.0,262.0,101923.0,-4.970000267028809,0,0
1471.730997,-0.018280029296875,0.78314208984375,-0.602325439453125,0.153228759765625,0.06103515625,0.0,-0.244140625,0.2138671875,-0.206787109375,-0.928955078125,-399.0,-23.0,262.0,101923.0,-4.970000267028809,0,0
1471.750997,-0.018280029296875,0.78314208984375,-0.602325439453125,0.153228759765625,-0.1220703125,0.1220703125,0.0,0.212890625,-0.2076416015625,-0.929443359375,-399.0,-23.0,262.0,101923.0,-4.969000339508057,0,0
1471.757997,-0.01824951171875,0.78314208984375,-0.602325439453125,0.153228759765625,0.244140625,0.18310546875,0.1220703125,0.21142578125,-0.2073974609375,-0.9278564453125,-399.0,-23.0,262.0,101923.0,-4.969000339508057,0,0
1471.765022,-0.01824951171875,0.78314208984375,-0.602325439453125,0.153228759765625,0.0,0.18310546875,-0.244140625,0.212158203125,-0.207763671875,-0.928466796875,-399.0,-23.0,262.0,101923.0,-4.969000339508057,0,0
1471.772001,-0.01824951171875,0.78314208984375,-0.602325439453125,0.1531982421875,0.06103515625,0.06103515625,-0.06103515625,0.212158203125,-0.2049560546875,-0.928466796875,-399.0,-23.0,262.0,101923.0,-4.969000339508057,0,0
1471.779015,-0.01824951171875,0.78314208984375,-0.602325439453125,0.1531982421875,0.0,0.06103515625,-0.06103515625,0.212890625,-0.20751953125,-0.927490234375,-399.0,-23.0,262.0,101923.0,-4.969000339508057,0,0
1471.785995,-0.01824951171875,0.78314208984375,-0.602325439453125,0.1531982421875,0.18310546875,0.1220703125,-0.06103515625,0.2113037109375,-0.20703125,-0.9287109375,-399.0,-23.0,262.0,101923.0,-4.969000339508057,0,0
1471.792995,-0.01824951171875,0.783172607421875,-0.60235595703125,0.1531982421875,-0.06103515625,0.06103515625,-0.1220703125,0.2125244140625,-0.206298828125,-0.928955078125,-399.0,-24.0,263.0,101923.0,-4.969000339508057,0,0
1471.800019,-0.01824951171875,0.783172607421875,-0.60235595703125,0.1531982421875,-0.06103515625,-0.1220703125,0.0,0.2103271484375,-0.20703125,-0.9296875,-399.0,-24.0,263.0,101923.0,-4.969000339508057,0,0
1471.807003,-0.01824951171875,0.783172607421875,-0.60235595703125,0.1531982421875,0.18310546875,0.0,-0.06103515625,0.2125244140625,-0.210205078125,-0.927978515625,-399.0,-24.0,263.0,101923.0,-4.969000339508057,0,0
1471.814018,-0.018280029296875,0.783172607421875,-0.60235595703125,0.1531982421875,0.06103515625,0.1220703125,-0.1220703125,0.2127685546875,-0.2081298828125,-0.9271240234375,-399.0,-24.0,263.0,101923.0,-4.969000339508057,0,0
1471.820997,-0.01824951171875,0.783172607421875,-0.60235595703125,0.1531982421875,0.0,0.06103515625,0.0,0.2138671875,-0.2076416015625,-0.929931640625,-399.0,-24.0,263.0,101923.0,-4.969000339508057,0,0
1471.827996,-0.01824951171875,0.78314208984375,-0.60235595703125,0.1531982421875,0.18310546875,0.18310546875,0.06103515625,0.21337890625,-0.20703125,-0.9287109375,-399.0,-24.0,263.0,101923.0,-4.969000339508057,0,0
1471.835017,-0.018280029296875,0.78314208984375,-0.60235595703125,0.1531982421875,0.30517578125,0.06103515625,0.1220703125,0.2137451171875,-0.2098388671875,-0.929931640625,-399.0,-24.0,263.0,101923.0,-4.969000339508057,0,0
1471.84105,-0.018280029296875,0.78314208984375,-0.60235595703125,0.1531982421875,0.30517578125,0.06103515625,0.1220703125,0.2137451171875,-0.2098388671875,-0.929931640625,-399.0,-24.0,263.0,101923.0,-4.969000339508057,0,0
1471.847997,-0.01824951171875,0.78314208984375,-0.602325439453125,0.153228759765625,0.06103515625,0.0,0.0,0.2161865234375,-0.2080078125,-0.9273681640625,-399.0,-24.0,263.0,101923.0,-4.969000339508057,0,0
1471.855022,-0.01824951171875,0.78314208984375,-0.602325439453125,0.153228759765625,0.1220703125,0.1220703125,0.0,0.2144775390625,-0.208984375,-0.92919921875,-399.0,-24.0,263.0,101923.0,-4.969000339508057,0,0
1471.862001,-0.01824951171875,0.78314208984375,-0.602325439453125,0.153228759765625,0.0,0.06103515625,-0.1220703125,0.214599609375,-0.2091064453125,-0.9278564453125,-399.0,-24.0,263.0,101923.0,-4.969000339508057,0,0
1471.869015,-0.01824951171875,0.78314208984375,-0.602325439453125,0.15325927734375,0.06103515625,0.06103515625,-0.18310546875,0.2152099609375,-0.2086181640625,-0.93115234375,-399.0,-24.0,263.0,101923.0,-4.969000339508057,0,0
1471.876,-0.01824951171875,0.78314208984375,-0.602325439453125,0.15325927734375,-0.1220703125,0.18310546875,0.0,0.2144775390625,-0.205810546875,-0.9287109375,-399.0,-24.0,263.0,101923.0,-4.969000339508057,0,0
1471.882999,-0.01824951171875,0.78314208984375,-0.602325439453125,0.15325927734375,0.1220703125,0.06103515625,-0.1220703125,0.211181640625,-0.2105712890625,-0.9273681640625,-399.0,-24.0,263.0,101923.0,-4.969000339508057,0,0
1471.89002,-0.01824951171875,0.78314208984375,-0.602325439453125,0.15325927734375,0.06103515625,0.1220703125,-0.06103515625,0.211181640625,-0.2080078125,-0.9266357421875,-399.0,-24.0,263.0,101923.0,-4.969000339508057,0,0
1471.897003,-0.01824951171875,0.78314208984375,-0.602325439453125,0.153228759765625,-0.30517578125,0.18310546875,0.18310546875,0.210693359375,-0.2098388671875,-0.9296875,-399.0,-23.0,264.0,101923.0,-4.969000339508057,0,0
1471.904019,-0.01824951171875,0.78314208984375,-0.602325439453125,0.15325927734375,0.06103515625,-0.18310546875,-0.06103515625,0.2122802734375,-0.2088623046875,-0.9283447265625,-399.0,-23.0,264.0,101923.0,-4.969000339508057,0,0
1471.925017,-0.018280029296875,0.78314208984375,-0.602325439453125,0.153228759765625,0.06103515625,0.244140625,-0.06103515625,0.2137451171875,-0.20849609375,-0.9278564453125,-399.0,-23.0,264.0,101923.0,-4.969000339508057,0,0
1471.931049,-0.018280029296875,0.78314208984375,-0.602325439453125,0.153228759765625,0.06103515625,0.244140625,-0.06103515625,0.2137451171875,-0.20849609375,-0.9278564453125,-399.0,-23.0,264.0,101923.0,-4.969000339508057,0,0
1471.937997,-0.018280029296875,0.78314208984375,-0.602325439453125,0.153228759765625,0.0,0.1220703125,0.06103515625,0.2109375,-0.207275390625,-0.9283447265625,-399.0,-23.0,264.0,101923.0,-4.969000339508057,0,0
1471.945022,-0.01824951171875,0.78314208984375,-0.602325439453125,0.153228759765625,0.1220703125,0.1220703125,-0.1220703125,0.212646484375,-0.20556640625,-0.9285888671875,-399.0,-23.0,264.0,101923.0,-4.969000339508057,0,0
1471.952001,-0.01824951171875,0.78314208984375,-0.602325439453125,0.1531982421875,0.18310546875,0.06103515625,0.1220703125,0.2105712890625,-0.20654296875,-0.929931640625,-399.0,-23.0,264.0,101923.0,-4.969000339508057,0,0
1471.959015,-0.01824951171875,0.78314208984375,-0.602325439453125,0.1531982421875,-0.06103515625,0.1220703125,-0.06103515625,0.212158203125,-0.206787109375,-0.92919921875,-399.0,-23.0,264.0,101923.0,-4.969000339508057,0,0
1471.965995,-0.01824951171875,0.78314208984375,-0.602325439453125,0.1531982421875,-0.06103515625,0.244140625,0.06103515625,0.2122802734375,-0.2093505859375,-0.9302978515625,-399.0,-23.0,264.0,101923.0,-4.969000339508057,0,0
1471.972995,-0.01824951171875,0.783172607421875,-0.60235595703125,0.1531982421875,0.18310546875,0.18310546875,-0.06103515625,0.2125244140625,-0.2060546875,-0.930419921875,-399.0,-23.0,264.0,101923.0,-4.969000339508057,0,0
1472.007996,-0.018218994140625,0.783172607421875,-0.602325439453125,0.1531982421875,0.18310546875,0.18310546875,-0.06103515625,0.213134765625,-0.2071533203125,-0.9293212890625,-399.0,-24.0,263.0,101923.0,-4.969000339508057,0,0
1472.015016,-0.018218994140625,0.783172607421875,-0.602325439453125,0.1531982421875,0.0,0.1220703125,-0.06103515625,0.211669921875,-0.20703125,-0.92919921875,-399.0,-24.0,263.0,101923.0,-4.969000339508057,0,0
1472.022001,-0.018218994140625,0.783172607421875,-0.602325439453125,0.1531982421875,-0.06103515625,0.1220703125,0.0,0.212158203125,-0.207275390625,-0.92919921875,-399.0,-24.0,263.0,101923.0,-4.969000339508057,0,0
1472.028033,-0.018218994140625,0.783172607421875,-0.602325439453125,0.1531982421875,-0.06103515625,0.1220703125,0.0,0.212158203125,-0.207275390625,-0.92919921875,-399.0,-24.0,263.0,101923.0,-4.969000339508057,0,0
1472.035022,-0.018218994140625,0.783172607421875,-0.602325439453125,0.1531982421875,-0.06103515625,0.244140625,0.0,0.213623046875,-0.209228515625,-0.927978515625,-399.0,-24.0,263.0,101923.0,-4.969000339508057,0,0
1472.042001,-0.018218994140625,0.783172607421875,-0.602325439453125,0.1531982421875,0.1220703125,0.30517578125,-0.30517578125,0.21240234375,-0.2091064453125,-0.9298095703125,-399.0,-24.0,263.0,101923.0,-4.969000339508057,0,0
1472.049015,-0.018218994140625,0.783172607421875,-0.602325439453125,0.1531982421875,0.06103515625,0.06103515625,0.18310546875,0.21240234375,-0.2081298828125,-0.9287109375,-399.0,-24.0,263.0,101923.0,-4.969000339508057,0,0
1472.055996,-0.01824951171875,0.783172607421875,-0.602325439453125,0.1531982421875,0.244140625,0.18310546875,0.0,0.212890625,-0.2086181640625,-0.9278564453125,-399.0,-24.0,263.0,101923.0,-4.969000339508057,0,0
1472.062995,-0.018218994140625,0.783172607421875,-0.602325439453125,0.1531982421875,0.06103515625,0.06103515625,0.0,0.2139892578125,-0.2066650390625,-0.9278564453125,-399.0,-24.0,263.0,101923.0,-4.969000339508057,0,0
1472.070019,-0.01824951171875,0.783172607421875,-0.602325439453125,0.1531982421875,0.1220703125,0.1220703125,-0.1220703125,0.212158203125,-0.2095947265625,-0.9276123046875,-399.0,-24.0,263.0,101923.0,-4.969000339508057,0,0
1472.077003,-0.01824951171875,0.783172607421875,-0.602325439453125,0.1531982421875,0.0,-0.06103515625,-0.1220703125,0.2127685546875,-0.208251953125,-0.92724609375,-399.0,-24.0,263.0,101923.0,-4.969000339508057,0,0
1472.084018,-0.01824951171875,0.783172607421875,-0.602325439453125,0.153228759765625,0.0,0.06103515625,0.18310546875,0.213134765625,-0.2093505859375,-0.929931640625,-399.0,-24.0,263.0,101923.0,-4.969000339508057,0,0
1472.090997,-0.018218994140625,0.783172607421875,-0.602325439453125,0.153228759765625,0.1220703125,0.1220703125,0.0,0.21435546875,-0.2083740234375,-0.9288330078125,-399.0,-24.0,263.0,101923.0,-4.969000339508057,0,0
1472.097996,-0.018218994140625,0.783172607421875,-0.602325439453125,0.153228759765625,0.18310546875,0.06103515625,-0.1220703125,0.214111328125,-0.207763671875,-0.928955078125,-399.0,-24.0,263.0,101923.0,-4.969000339508057,0,0
1472.105016,-0.018218994140625,0.783172607421875,-0.602325439453125,0.153228759765625,-0.06103515625,0.1220703125,-0.244140625,0.2130126953125,-0.208984375,-0.9293212890625,-399.0,-24.0,263.0,101923.0,-4.969000339508057,0,0
1472.112001,-0.018218994140625,0.783172607421875,-0.602325439453125,0.153228759765625,-0.244140625,0.244140625,0.0,0.2125244140625,-0.2099609375,-0.930419921875,-399.0,-24.0,263.0,101923.0,-4.969000339508057,0,0
1472.118033,-0.018218994140625,0.783172607421875,-0.602325439453125,0.153228759765625,-0.244140625,0.244140625,0.0,0.2125244140625,-0.2099609375,-0.930419921875,-399.0,-24.0,263.0,101923.0,-4.969000339508057,0,0
1472.125022,-0.018218994140625,0.783172607421875,-0.602325439453125,0.1531982421875,0.18310546875,0.18310546875,0.18310546875,0.210205078125,-0.2095947265625,-0.928466796875,-399.0,-24.0,263.0,101923.0,-4.969000339508057,0,0
1472.132001,-0.01824951171875,0.783172607421875,-0.602325439453125,0.1531982421875,0.06103515625,0.18310546875,0.0,0.2100830078125,-0.2103271484375,-0.9276123046875,-399.0,-24.0,263.0,101923.0,-4.969000339508057,0,0
1472.139015,-0.01824951171875,0.783172607421875,-0.602325439453125,0.1531982421875,0.06103515625,0.1220703125,-0.06103515625,0.210205078125,-0.2091064453125,-0.9296875,-399.0,-24.0,263.0,101923.0,-4.969000339508057,0,0
1472.146,-0.01824951171875,0.783172607421875,-0.602325439453125,0.1531982421875,0.06103515625,0.0,-0.06103515625,0.2144775390625,-0.20751953125,-0.929931640625,-399.0,-24.0,263.0,101923.0,-4.969000339508057,0,0
1472.152999,-0.01824951171875,0.783172607421875,-0.602325439453125,0.1531982421875,0.0,0.06103515625,0.0,0.2130126953125,-0.2083740234375,-0.929931640625,-399.0,-24.0,263.0,101923.0,-4.969000339508057,0,0
1472.16002,-0.018218994140625,0.783172607421875,-0.602325439453125,0.153228759765625,0.06103515625,0.244140625,-0.1220703125,0.214599609375,-0.20703125,-0.92822265625,-399.0,-24.0,263.0,101923.0,-4.969000339508057,0,0
1472.167003,-0.018218994140625,0.783172607421875,-0.602325439453125,0.153228759765625,-0.1220703125,0.18310546875,0.0,0.21337890625,-0.2078857421875,-0.9296875,-399.0,-24.0,263.0,101923.0,-4.969000339508057,0,0
1472.180997,-0.018218994140625,0.783172607421875,-0.602325439453125,0.153228759765625,0.0,0.1220703125,0.18310546875,0.2119140625,-0.2066650390625,-0.92822265625,-399.0,-24.0,263.0,101923.0,-4.969000339508057,0,0
