Time stamp(sec),quaternion_0,quaternion_1,quaternion_2,quaternion_3,roll_angular_rate,pitch_angular_rate,yaw_angular_rate,acc_X,acc_Y,acc_Z,mag_X,mag_Y,mag_Z,pressure,altitude
1191.7339939999106,0.53033447265625,-0.46917724609375,0.167388916015625,-0.685943603515625,0.1220703125,0.30517578125,-0.30517578125,0.4630126953125,-0.7291259765625,0.5035400390625,-247.0,188.0,-136.0,102367.0,-8.640000343322754,0,0
1191.7389939999107,0.53033447265625,-0.46917724609375,0.167388916015625,-0.685943603515625,-0.1220703125,0.30517578125,-0.18310546875,0.4639892578125,-0.7275390625,0.5040283203125,-247.0,188.0,-136.0,102367.0,-8.641000747680664,0,0
1191.7430259999107,0.53033447265625,-0.46917724609375,0.167388916015625,-0.685943603515625,-0.1220703125,0.30517578125,-0.18310546875,0.4639892578125,-0.7275390625,0.5040283203125,-247.0,188.0,-136.0,102367.0,-8.641000747680664,0,0
1191.7479939999107,0.53033447265625,-0.46917724609375,0.167388916015625,-0.685943603515625,-0.244140625,0.06103515625,0.1220703125,0.467041015625,-0.7264404296875,0.50146484375,-247.0,188.0,-136.0,102367.0,-8.641000747680664,0,0
1191.7529959999108,0.53033447265625,-0.46917724609375,0.167388916015625,-0.685943603515625,-0.30517578125,-0.06103515625,0.0,0.4647216796875,-0.724609375,0.503173828125,-247.0,188.0,-136.0,102367.0,-8.641000747680664,0,0
1191.7579939999107,0.53033447265625,-0.46917724609375,0.167388916015625,-0.685943603515625,0.0,0.06103515625,0.18310546875,0.464111328125,-0.72705078125,0.503662109375,-247.0,188.0,-136.0,102367.0,-8.641000747680664,0,0
1191.7629939999108,0.53033447265625,-0.46917724609375,0.167388916015625,-0.685943603515625,-0.18310546875,0.244140625,0.1220703125,0.46533203125,-0.7266845703125,0.5032958984375,-247.0,188.0,-136.0,102367.0,-8.641000747680664,0,0
1191.7679949999108,0.53033447265625,-0.46917724609375,0.167388916015625,-0.685943603515625,0.42724609375,0.18310546875,0.1220703125,0.4681396484375,-0.72607421875,0.5030517578125,-247.0,188.0,-136.0,102367.0,-8.641000747680664,0,0
1191.772996999911,0.53033447265625,-0.46917724609375,0.167388916015625,-0.685943603515625,0.06103515625,0.18310546875,-0.18310546875,0.4671630859375,-0.72802734375,0.5035400390625,-247.0,188.0,-136.0,102367.0,-8.641000747680664,0,0
1191.777996999911,0.53033447265625,-0.46917724609375,0.167388916015625,-0.685943603515625,-0.3662109375,0.06103515625,0.06103515625,0.467041015625,-0.7294921875,0.5029296875,-247.0,188.0,-136.0,102367.0,-8.641000747680664,0,0
1191.7929939999112,0.53033447265625,-0.46917724609375,0.167388916015625,-0.685943603515625,0.0,-0.06103515625,0.0,0.4674072265625,-0.7276611328125,0.5037841796875,-247.0,190.0,-136.0,102367.0,-8.641000747680664,0,0
1191.7979959999113,0.529876708984375,-0.46905517578125,0.167694091796875,-0.686309814453125,0.06103515625,0.18310546875,0.0,0.4652099609375,-0.725341796875,0.504638671875,-247.0,190.0,-136.0,102367.0,-8.641000747680664,0,0
1191.8029929999113,0.529876708984375,-0.46905517578125,0.167694091796875,-0.686309814453125,-0.18310546875,0.06103515625,0.1220703125,0.465087890625,-0.726318359375,0.502197265625,-247.0,190.0,-136.0,102367.0,-8.641000747680664,0,0
1191.8079929999114,0.529876708984375,-0.469085693359375,0.167694091796875,-0.686309814453125,0.1220703125,-0.06103515625,0.0,0.466796875,-0.72802734375,0.5035400390625,-247.0,190.0,-136.0,102367.0,-8.641000747680664,0,0
1191.8120219999114,0.529876708984375,-0.469085693359375,0.167694091796875,-0.686309814453125,0.1220703125,-0.06103515625,0.0,0.466796875,-0.72802734375,0.5035400390625,-247.0,190.0,-136.0,102367.0,-8.641000747680664,0,0
1191.8169929999115,0.529876708984375,-0.469085693359375,0.167694091796875,-0.686309814453125,-0.1220703125,-0.06103515625,-0.1220703125,0.468505859375,-0.7255859375,0.504150390625,-247.0,190.0,-136.0,102367.0,-8.641000747680664,0,0
1191.8219939999115,0.529876708984375,-0.469085693359375,0.167694091796875,-0.686309814453125,0.1220703125,0.18310546875,-0.1220703125,0.465576171875,-0.72509765625,0.5032958984375,-247.0,190.0,-136.0,102367.0,-8.641000747680664,0,0
1191.8269949999114,0.529876708984375,-0.469085693359375,0.167694091796875,-0.686309814453125,0.0,0.0,0.1220703125,0.465576171875,-0.725830078125,0.5032958984375,-247.0,190.0,-136.0,102367.0,-8.641000747680664,0,0
1191.8319919999115,0.529876708984375,-0.469085693359375,0.167694091796875,-0.68634033203125,-0.06103515625,0.06103515625,-0.06103515625,0.4652099609375,-0.72509765625,0.502685546875,-247.0,190.0,-136.0,102367.0,-8.641000747680664,0,0
1191.8369929999114,0.52984619140625,-0.469085693359375,0.167694091796875,-0.68634033203125,-0.1220703125,0.18310546875,0.0,0.4674072265625,-0.7265625,0.5047607421875,-247.0,190.0,-136.0,102367.0,-8.641000747680664,0,0
1191.8419929999116,0.52984619140625,-0.469085693359375,0.167694091796875,-0.68634033203125,-0.06103515625,0.1220703125,0.06103515625,0.468505859375,-0.7296142578125,0.5035400390625,-247.0,190.0,-136.0,102367.0,-8.641000747680664,0,0
1191.8469939999115,0.52984619140625,-0.469085693359375,0.16766357421875,-0.68634033203125,-0.30517578125,-0.06103515625,0.0,0.4696044921875,-0.725830078125,0.50439453125,-247.0,190.0,-136.0,102367.0,-8.641000747680664,0,0
1191.8519959999117,0.52984619140625,-0.469085693359375,0.16766357421875,-0.68634033203125,-0.1220703125,-0.06103515625,0.0,0.468017578125,-0.7265625,0.5045166015625,-247.0,190.0,-136.0,102367.0,-8.641000747680664,0,0
1191.8569929999117,0.52984619140625,-0.469085693359375,0.16766357421875,-0.68634033203125,-0.1220703125,0.18310546875,0.0,0.46875,-0.727294921875,0.50390625,-247.0,190.0,-136.0,102367.0,-8.641000747680664,0,0
1191.8619929999118,0.52984619140625,-0.469085693359375,0.16766357421875,-0.68634033203125,0.18310546875,0.06103515625,-0.06103515625,0.4654541015625,-0.7257080078125,0.50439453125,-247.0,190.0,-136.0,102367.0,-8.641000747680664,0,0
1191.8669939999118,0.52984619140625,-0.46905517578125,0.16766357421875,-0.68634033203125,-0.06103515625,-0.06103515625,-0.30517578125,0.4658203125,-0.72607421875,0.5028076171875,-247.0,190.0,-136.0,102367.0,-8.641000747680664,0,0
1191.8719949999117,0.52984619140625,-0.469085693359375,0.16766357421875,-0.68634033203125,-0.06103515625,0.18310546875,-0.18310546875,0.4656982421875,-0.726318359375,0.502197265625,-247.0,190.0,-136.0,102367.0,-8.641000747680664,0,0
1191.8760239999117,0.52984619140625,-0.469085693359375,0.16766357421875,-0.68634033203125,-0.06103515625,0.18310546875,-0.18310546875,0.4656982421875,-0.726318359375,0.502197265625,-247.0,190.0,-136.0,102367.0,-8.641000747680664,0,0
1191.8809959999116,0.52984619140625,-0.46905517578125,0.16766357421875,-0.68634033203125,-0.18310546875,0.1220703125,0.0,0.4664306640625,-0.7261962890625,0.5020751953125,-247.0,190.0,-136.0,102367.0,-8.641000747680664,0,0
1191.8859919999115,0.52984619140625,-0.469085693359375,0.16766357421875,-0.68634033203125,-0.30517578125,0.1220703125,0.0,0.4671630859375,-0.7279052734375,0.504150390625,-247.0,190.0,-136.0,102367.0,-8.641000747680664,0,0
1191.8909929999115,0.52984619140625,-0.469085693359375,0.167633056640625,-0.68634033203125,-0.30517578125,0.1220703125,0.0,0.4671630859375,-0.7279052734375,0.504150390625,-247.0,190.0,-135.0,102367.0,-8.641000747680664,0,0
1191.8959929999116,0.529693603515625,-0.469024658203125,0.167755126953125,-0.68646240234375,-0.244140625,-0.1220703125,0.1220703125,0.4669189453125,-0.7264404296875,0.5037841796875,-247.0,190.0,-135.0,102367.0,-8.641000747680664,0,0
1191.9009939999116,0.529693603515625,-0.469024658203125,0.167755126953125,-0.68646240234375,-0.18310546875,0.0,0.1220703125,0.465087890625,-0.7266845703125,0.5040283203125,-247.0,190.0,-135.0,102367.0,-8.641000747680664,0,0
1191.9159929999119,0.529693603515625,-0.469024658203125,0.167755126953125,-0.68646240234375,-0.1220703125,0.18310546875,-0.06103515625,0.4664306640625,-0.726806640625,0.5029296875,-247.0,190.0,-135.0,102367.0,-8.641000747680664,0,0
1191.9209939999118,0.529693603515625,-0.469024658203125,0.167755126953125,-0.68646240234375,0.06103515625,0.3662109375,0.18310546875,0.4658203125,-0.7265625,0.5040283203125,-247.0,190.0,-135.0,102367.0,-8.641000747680664,0,0
1191.9259949999118,0.529693603515625,-0.469024658203125,0.167755126953125,-0.68646240234375,-0.30517578125,-0.06103515625,-0.1220703125,0.46533203125,-0.727294921875,0.502685546875,-247.0,190.0,-135.0,102367.0,-8.641000747680664,0,0
1191.9309959999118,0.529693603515625,-0.469024658203125,0.167755126953125,-0.68646240234375,0.06103515625,-0.06103515625,0.18310546875,0.4666748046875,-0.72705078125,0.503173828125,-247.0,190.0,-135.0,102367.0,-8.641000747680664,0,0
1191.9359929999118,0.529693603515625,-0.469024658203125,0.167755126953125,-0.68646240234375,-0.1220703125,0.0,-0.18310546875,0.4674072265625,-0.7281494140625,0.5035400390625,-247.0,190.0,-135.0,102367.0,-8.641000747680664,0,0
1191.940992999912,0.529693603515625,-0.469024658203125,0.167755126953125,-0.68646240234375,-0.1220703125,0.0,-0.18310546875,0.4674072265625,-0.7281494140625,0.5035400390625,-247.0,190.0,-135.0,102367.0,-8.640000343322754,0,0
1191.945022999912,0.529693603515625,-0.469024658203125,0.167755126953125,-0.68646240234375,-0.1220703125,0.0,-0.18310546875,0.4674072265625,-0.7281494140625,0.5035400390625,-247.0,190.0,-135.0,102367.0,-8.640000343322754,0,0
1191.949993999912,0.529693603515625,-0.469024658203125,0.16778564453125,-0.68646240234375,-0.06103515625,0.18310546875,0.1220703125,0.464599609375,-0.7281494140625,0.5067138671875,-247.0,190.0,-135.0,102367.0,-8.640000343322754,0,0
1191.9549939999122,0.529693603515625,-0.469024658203125,0.16778564453125,-0.68646240234375,-0.48828125,-0.06103515625,-0.18310546875,0.4610595703125,-0.7249755859375,0.5010986328125,-247.0,190.0,-135.0,102367.0,-8.640000343322754,0,0
1191.9599969999122,0.529693603515625,-0.469024658203125,0.16778564453125,-0.68646240234375,0.0,-0.1220703125,0.0,0.4649658203125,-0.726806640625,0.503662109375,-247.0,190.0,-135.0,102367.0,-8.640000343322754,0,0
1191.9649939999122,0.529693603515625,-0.469024658203125,0.16778564453125,-0.68646240234375,-0.30517578125,0.30517578125,-0.244140625,0.46435546875,-0.72412109375,0.5037841796875,-247.0,190.0,-135.0,102367.0,-8.640000343322754,0,0
1191.9799969999124,0.529693603515625,-0.469024658203125,0.16778564453125,-0.68646240234375,0.06103515625,0.18310546875,0.06103515625,0.4671630859375,-0.727294921875,0.5032958984375,-247.0,190.0,-135.0,102367.0,-8.640000343322754,0,0
1191.9849969999125,0.529693603515625,-0.46905517578125,0.16778564453125,-0.68646240234375,-0.30517578125,0.3662109375,0.1220703125,0.4656982421875,-0.7271728515625,0.5035400390625,-247.0,190.0,-135.0,102367.0,-8.640000343322754,0,0
1191.9899939999125,0.529693603515625,-0.46905517578125,0.16778564453125,-0.68646240234375,-0.244140625,0.30517578125,0.1220703125,0.4666748046875,-0.728515625,0.50146484375,-247.0,188.0,-134.0,102367.0,-8.640000343322754,0,0
1191.9949939999126,0.529388427734375,-0.468963623046875,0.167999267578125,-0.68670654296875,-0.30517578125,0.0,-0.06103515625,0.46630859375,-0.7261962890625,0.5030517578125,-247.0,188.0,-134.0,102367.0,-8.640000343322754,0,0
1191.9999939999127,0.529388427734375,-0.468963623046875,0.16796875,-0.68670654296875,0.18310546875,0.18310546875,0.1220703125,0.4664306640625,-0.7252197265625,0.501953125,-247.0,188.0,-134.0,102367.0,-8.640000343322754,0,0
1192.0049969999127,0.529388427734375,-0.468963623046875,0.16796875,-0.68670654296875,0.1220703125,0.0,-0.1220703125,0.4661865234375,-0.725830078125,0.5028076171875,-247.0,188.0,-134.0,102367.0,-8.640000343322754,0,0
1192.0090279999126,0.529388427734375,-0.468963623046875,0.16796875,-0.68670654296875,0.1220703125,0.0,-0.1220703125,0.4661865234375,-0.725830078125,0.5028076171875,-247.0,188.0,-134.0,102367.0,-8.640000343322754,0,0
1192.0139959999126,0.529388427734375,-0.468963623046875,0.16796875,-0.68670654296875,-0.732421875,-0.1220703125,0.06103515625,0.467041015625,-0.7254638671875,0.5028076171875,-247.0,188.0,-134.0,102367.0,-8.640000343322754,0,0
1192.0189929999126,0.529388427734375,-0.468963623046875,0.16796875,-0.68670654296875,-0.18310546875,0.0,-0.1220703125,0.464599609375,-0.7237548828125,0.5013427734375,-247.0,188.0,-134.0,102367.0,-8.640000343322754,0,0
1192.0239929999127,0.529388427734375,-0.468963623046875,0.16796875,-0.68670654296875,0.0,0.0,-0.1220703125,0.464111328125,-0.72607421875,0.5010986328125,-247.0,188.0,-134.0,102367.0,-8.640000343322754,0,0
1192.0289939999127,0.529388427734375,-0.468963623046875,0.16796875,-0.68670654296875,0.06103515625,0.18310546875,0.06103515625,0.46728515625,-0.7275390625,0.502685546875,-247.0,188.0,-134.0,102367.0,-8.640000343322754,0,0
1192.0339949999127,0.529388427734375,-0.468963623046875,0.16796875,-0.68670654296875,-0.244140625,0.244140625,0.1220703125,0.4647216796875,-0.726806640625,0.5052490234375,-247.0,188.0,-134.0,102367.0,-8.640000343322754,0,0
1192.0389959999127,0.529388427734375,-0.468963623046875,0.16796875,-0.68670654296875,-0.06103515625,0.06103515625,0.1220703125,0.46435546875,-0.727783203125,0.5037841796875,-247.0,188.0,-134.0,102367.0,-8.640000343322754,0,0
1192.0439929999127,0.529388427734375,-0.468963623046875,0.167999267578125,-0.68670654296875,-0.244140625,0.18310546875,0.1220703125,0.4661865234375,-0.7298583984375,0.5042724609375,-247.0,188.0,-134.0,102367.0,-8.640000343322754,0,0
1192.0489929999128,0.529388427734375,-0.468963623046875,0.167999267578125,-0.686676025390625,0.0,0.1220703125,-0.244140625,0.4638671875,-0.7271728515625,0.50390625,-247.0,188.0,-134.0,102367.0,-8.640000343322754,0,0
1192.0539939999128,0.529388427734375,-0.468963623046875,0.167999267578125,-0.686676025390625,0.244140625,0.18310546875,-0.06103515625,0.4666748046875,-0.7283935546875,0.502197265625,-247.0,188.0,-134.0,102367.0,-8.640000343322754,0,0
1192.058995999913,0.529388427734375,-0.468963623046875,0.167999267578125,-0.686676025390625,0.0,0.06103515625,-0.18310546875,0.46435546875,-0.7261962890625,0.50244140625,-247.0,188.0,-134.0,102367.0,-8.640000343322754,0,0
1192.063992999913,0.529388427734375,-0.468963623046875,0.167999267578125,-0.686676025390625,0.1220703125,0.1220703125,-0.244140625,0.4630126953125,-0.7247314453125,0.503662109375,-247.0,188.0,-134.0,102367.0,-8.640000343322754,0,0
1192.068992999913,0.529388427734375,-0.468963623046875,0.167999267578125,-0.686676025390625,-0.3662109375,0.0,0.244140625,0.466796875,-0.7247314453125,0.5025634765625,-247.0,188.0,-134.0,102367.0,-8.640000343322754,0,0
1192.073993999913,0.529388427734375,-0.468963623046875,0.167999267578125,-0.686676025390625,-0.732421875,0.06103515625,0.18310546875,0.466552734375,-0.7264404296875,0.5020751953125,-247.0,188.0,-134.0,102367.0,-8.640000343322754,0,0
1192.078022999913,0.529388427734375,-0.468963623046875,0.167999267578125,-0.686676025390625,-0.732421875,0.06103515625,0.18310546875,0.466552734375,-0.7264404296875,0.5020751953125,-247.0,188.0,-134.0,102367.0,-8.640000343322754,0,0
1192.082993999913,0.529388427734375,-0.468963623046875,0.167999267578125,-0.686676025390625,-0.1220703125,0.18310546875,0.06103515625,0.466552734375,-0.7259521484375,0.50439453125,-247.0,188.0,-134.0,102367.0,-8.640000343322754,0,0
1192.087994999913,0.529388427734375,-0.468963623046875,0.167999267578125,-0.686676025390625,0.244140625,0.18310546875,-0.06103515625,0.467041015625,-0.7288818359375,0.502685546875,-247.0,188.0,-134.0,102367.0,-8.640000343322754,0,0
1192.102992999913,0.529388427734375,-0.468963623046875,0.167999267578125,-0.686676025390625,0.0,0.18310546875,-0.18310546875,0.4678955078125,-0.7259521484375,0.50341796875,-247.0,188.0,-133.0,102367.0,-8.640000343322754,0,0
1192.107993999913,0.529388427734375,-0.468963623046875,0.167999267578125,-0.686676025390625,-0.244140625,0.244140625,-0.18310546875,0.4656982421875,-0.7261962890625,0.501708984375,-247.0,188.0,-133.0,102367.0,-8.640000343322754,0,0
1192.1129959999132,0.529388427734375,-0.468994140625,0.167999267578125,-0.686676025390625,0.1220703125,0.1220703125,0.0,0.4671630859375,-0.7259521484375,0.4984130859375,-247.0,188.0,-133.0,102367.0,-8.640000343322754,0,0
1192.1179929999132,0.529388427734375,-0.468994140625,0.167999267578125,-0.686676025390625,0.0,-0.1220703125,-0.244140625,0.4656982421875,-0.72705078125,0.500244140625,-247.0,188.0,-133.0,102367.0,-8.640000343322754,0,0
1192.1229929999133,0.52935791015625,-0.468994140625,0.167999267578125,-0.686676025390625,-0.06103515625,0.0,-0.06103515625,0.465576171875,-0.726318359375,0.50146484375,-247.0,188.0,-133.0,102367.0,-8.640000343322754,0,0
1192.1279939999133,0.52935791015625,-0.468994140625,0.167999267578125,-0.686676025390625,0.06103515625,0.1220703125,0.0,0.4676513671875,-0.7271728515625,0.5045166015625,-247.0,188.0,-133.0,102367.0,-8.640000343322754,0,0
1192.1329949999133,0.529388427734375,-0.468994140625,0.167999267578125,-0.686676025390625,-0.244140625,0.0,0.244140625,0.4654541015625,-0.728515625,0.50390625,-247.0,188.0,-133.0,102367.0,-8.640000343322754,0,0
1192.1379919999133,0.529388427734375,-0.468994140625,0.167999267578125,-0.686676025390625,-0.18310546875,0.18310546875,0.18310546875,0.4674072265625,-0.73095703125,0.5050048828125,-247.0,188.0,-133.0,102367.0,-8.640000343322754,0,0
1192.1420209999133,0.529388427734375,-0.468994140625,0.167999267578125,-0.686676025390625,-0.18310546875,0.18310546875,0.18310546875,0.4674072265625,-0.73095703125,0.5050048828125,-247.0,188.0,-133.0,102367.0,-8.640000343322754,0,0
1192.1469959999133,0.529388427734375,-0.468994140625,0.167999267578125,-0.686676025390625,0.0,0.0,-0.244140625,0.461669921875,-0.7265625,0.50390625,-247.0,188.0,-133.0,102367.0,-8.638999938964844,0,0
1192.1519929999133,0.529388427734375,-0.468994140625,0.167999267578125,-0.686676025390625,-0.06103515625,0.06103515625,0.0,0.4638671875,-0.7252197265625,0.5023193359375,-247.0,188.0,-133.0,102367.0,-8.638999938964844,0,0
1192.1669969999134,0.52935791015625,-0.468994140625,0.167999267578125,-0.686676025390625,-0.18310546875,-0.18310546875,0.06103515625,0.46630859375,-0.7275390625,0.50439453125,-247.0,188.0,-133.0,102367.0,-8.638999938964844,0,0
1192.1719939999134,0.52935791015625,-0.468994140625,0.167999267578125,-0.686676025390625,-0.244140625,0.06103515625,-0.1220703125,0.4676513671875,-0.7301025390625,0.5030517578125,-247.0,188.0,-133.0,102367.0,-8.638999938964844,0,0
1192.1769939999135,0.52935791015625,-0.468994140625,0.167999267578125,-0.686676025390625,0.1220703125,0.0,-0.18310546875,0.4652099609375,-0.7293701171875,0.501953125,-247.0,188.0,-133.0,102367.0,-8.638999938964844,0,0
1192.1819949999135,0.52935791015625,-0.468994140625,0.167999267578125,-0.686676025390625,0.06103515625,0.0,-0.30517578125,0.464599609375,-0.7264404296875,0.5030517578125,-247.0,188.0,-133.0,102367.0,-8.638999938964844,0,0
1192.1869969999136,0.52935791015625,-0.468994140625,0.167999267578125,-0.686676025390625,0.42724609375,0.18310546875,0.0,0.46630859375,-0.7236328125,0.504150390625,-247.0,188.0,-133.0,102367.0,-8.638999938964844,0,0
1192.1919969999137,0.52935791015625,-0.468994140625,0.167999267578125,-0.686676025390625,0.42724609375,0.18310546875,0.0,0.46630859375,-0.7236328125,0.504150390625,-247.0,190.0,-132.0,102367.0,-8.638999938964844,0,0
1192.1969939999137,0.52935791015625,-0.468994140625,0.167999267578125,-0.686676025390625,0.1220703125,0.18310546875,0.06103515625,0.4659423828125,-0.7255859375,0.5029296875,-247.0,190.0,-132.0,102367.0,-8.638999938964844,0,0
1192.2019939999138,0.52935791015625,-0.468994140625,0.167999267578125,-0.686676025390625,-0.30517578125,0.06103515625,-0.06103515625,0.4652099609375,-0.72607421875,0.5029296875,-247.0,190.0,-132.0,102367.0,-8.638999938964844,0,0
1192.206993999914,0.529388427734375,-0.468994140625,0.167999267578125,-0.686676025390625,-0.1220703125,0.244140625,0.18310546875,0.465576171875,-0.7275390625,0.5028076171875,-247.0,190.0,-132.0,102367.0,-8.638999938964844,0,0
1192.211025999914,0.529388427734375,-0.468994140625,0.167999267578125,-0.686676025390625,-0.1220703125,0.244140625,0.18310546875,0.465576171875,-0.7275390625,0.5028076171875,-247.0,190.0,-132.0,102367.0,-8.638999938964844,0,0
1192.215993999914,0.529388427734375,-0.468994140625,0.167999267578125,-0.686676025390625,0.0,0.18310546875,0.18310546875,0.467529296875,-0.7291259765625,0.504638671875,-247.0,190.0,-132.0,102367.0,-8.638999938964844,0,0
1192.220995999914,0.52935791015625,-0.468994140625,0.167999267578125,-0.686676025390625,0.06103515625,0.18310546875,0.0,0.46533203125,-0.7269287109375,0.502685546875,-247.0,190.0,-132.0,102367.0,-8.638999938964844,0,0
1192.225992999914,0.52935791015625,-0.469024658203125,0.167999267578125,-0.686676025390625,-0.30517578125,0.0,-0.06103515625,0.468505859375,-0.725830078125,0.5006103515625,-247.0,190.0,-132.0,102367.0,-8.638999938964844,0,0
1192.2309929999142,0.52935791015625,-0.469024658203125,0.167999267578125,-0.686676025390625,-0.18310546875,0.30517578125,0.06103515625,0.4661865234375,-0.7261962890625,0.499755859375,-247.0,190.0,-132.0,102367.0,-8.638999938964844,0,0
1192.2359939999142,0.52935791015625,-0.469024658203125,0.167999267578125,-0.686676025390625,-0.1220703125,-0.06103515625,0.06103515625,0.46630859375,-0.728271484375,0.5003662109375,-247.0,190.0,-132.0,102367.0,-8.640000343322754,0,0
1192.2409949999142,0.52935791015625,-0.469024658203125,0.167999267578125,-0.686676025390625,0.06103515625,0.0,0.0,0.4647216796875,-0.7279052734375,0.5008544921875,-247.0,190.0,-132.0,102367.0,-8.640000343322754,0,0
1192.2459919999142,0.52935791015625,-0.469024658203125,0.167999267578125,-0.686676025390625,0.18310546875,0.06103515625,-0.1220703125,0.4671630859375,-0.7265625,0.5018310546875,-247.0,190.0,-132.0,102367.0,-8.640000343322754,0,0
1192.2509929999142,0.52935791015625,-0.469024658203125,0.167999267578125,-0.686676025390625,0.1220703125,0.18310546875,-0.1220703125,0.4666748046875,-0.727783203125,0.5040283203125,-247.0,190.0,-132.0,102367.0,-8.640000343322754,0,0
1192.2559929999143,0.52935791015625,-0.469024658203125,0.167999267578125,-0.6866455078125,0.244140625,0.30517578125,-0.30517578125,0.465087890625,-0.7275390625,0.5040283203125,-247.0,190.0,-132.0,102367.0,-8.640000343322754,0,0
1192.2609939999143,0.52935791015625,-0.469024658203125,0.167999267578125,-0.686676025390625,-0.3662109375,0.06103515625,-0.06103515625,0.4658203125,-0.728271484375,0.5029296875,-247.0,190.0,-132.0,102367.0,-8.640000343322754,0,0
1192.2659959999144,0.52935791015625,-0.469024658203125,0.167999267578125,-0.686676025390625,0.6103515625,-0.06103515625,-0.06103515625,0.4649658203125,-0.7255859375,0.5030517578125,-247.0,190.0,-132.0,102367.0,-8.640000343322754,0,0
1192.2709929999144,0.52935791015625,-0.469024658203125,0.167999267578125,-0.686676025390625,0.18310546875,0.1220703125,-0.18310546875,0.4649658203125,-0.7259521484375,0.502197265625,-247.0,190.0,-132.0,102367.0,-8.640000343322754,0,0
1192.2750219999143,0.52935791015625,-0.469024658203125,0.167999267578125,-0.686676025390625,0.18310546875,0.1220703125,-0.18310546875,0.4649658203125,-0.7259521484375,0.502197265625,-247.0,190.0,-132.0,102367.0,-8.640000343322754,0,0
1192.2899939999145,0.52935791015625,-0.469024658203125,0.167999267578125,-0.686676025390625,0.0,0.42724609375,-0.30517578125,0.468017578125,-0.72802734375,0.5028076171875,-247.0,190.0,-132.0,102367.0,-8.640000343322754,0,0
1192.2949949999145,0.5296630859375,-0.469085693359375,0.167816162109375,-0.686431884765625,-0.1220703125,0.06103515625,-0.18310546875,0.4652099609375,-0.727783203125,0.5008544921875,-248.0,190.0,-131.0,102367.0,-8.640000343322754,0,0
1192.2999919999145,0.5296630859375,-0.469085693359375,0.16778564453125,-0.686431884765625,-0.244140625,0.06103515625,0.0,0.46875,-0.7279052734375,0.5052490234375,-248.0,190.0,-131.0,102367.0,-8.640000343322754,0,0
1192.3049929999145,0.5296630859375,-0.4691162109375,0.16778564453125,-0.686431884765625,0.1220703125,0.1220703125,0.0,0.467041015625,-0.7266845703125,0.502685546875,-248.0,190.0,-131.0,102367.0,-8.640000343322754,0,0
1192.3099929999146,0.5296630859375,-0.4691162109375,0.16778564453125,-0.686431884765625,0.06103515625,0.18310546875,0.0,0.4686279296875,-0.7254638671875,0.503662109375,-248.0,190.0,-131.0,102367.0,-8.640000343322754,0,0
1192.3149939999146,0.5296630859375,-0.4691162109375,0.16778564453125,-0.686431884765625,-0.244140625,0.0,0.0,0.466552734375,-0.7271728515625,0.502685546875,-248.0,190.0,-131.0,102367.0,-8.640000343322754,0,0
1192.3199959999147,0.5296630859375,-0.469085693359375,0.16778564453125,-0.686431884765625,-0.30517578125,0.06103515625,-0.1220703125,0.46435546875,-0.7265625,0.5045166015625,-248.0,190.0,-131.0,102367.0,-8.640000343322754,0,0
1192.3249929999147,0.5296630859375,-0.469085693359375,0.16778564453125,-0.686431884765625,-0.1220703125,0.18310546875,-0.30517578125,0.463623046875,-0.7264404296875,0.5023193359375,-248.0,190.0,-131.0,102367.0,-8.640000343322754,0,0
1192.3299929999148,0.5296630859375,-0.4691162109375,0.16778564453125,-0.686431884765625,-0.244140625,0.244140625,0.0,0.466552734375,-0.7279052734375,0.5025634765625,-248.0,190.0,-131.0,102367.0,-8.640000343322754,0,0
1192.3349939999148,0.5296630859375,-0.4691162109375,0.16778564453125,-0.686431884765625,-0.1220703125,0.18310546875,-0.06103515625,0.4676513671875,-0.7271728515625,0.5020751953125,-248.0,190.0,-131.0,102367.0,-8.638999938964844,0,0
1192.3399949999148,0.5296630859375,-0.4691162109375,0.16778564453125,-0.686431884765625,-0.06103515625,0.0,0.06103515625,0.4664306640625,-0.727294921875,0.5025634765625,-248.0,190.0,-131.0,102367.0,-8.638999938964844,0,0
1192.3539919999146,0.5296630859375,-0.4691162109375,0.16778564453125,-0.686431884765625,-0.18310546875,0.0,0.0,0.4661865234375,-0.726806640625,0.501220703125,-248.0,190.0,-131.0,102367.0,-8.638999938964844,0,0
1192.3589929999146,0.5296630859375,-0.4691162109375,0.16778564453125,-0.686431884765625,0.18310546875,0.1220703125,-0.06103515625,0.46630859375,-0.7257080078125,0.503173828125,-248.0,190.0,-131.0,102367.0,-8.638999938964844,0,0
1192.3639929999147,0.5296630859375,-0.4691162109375,0.16778564453125,-0.686431884765625,0.1220703125,0.30517578125,0.0,0.4649658203125,-0.7257080078125,0.50048828125,-248.0,190.0,-131.0,102367.0,-8.638999938964844,0,0
1192.3689939999147,0.529632568359375,-0.469146728515625,0.16778564453125,-0.686431884765625,0.0,0.244140625,0.06103515625,0.46728515625,-0.7264404296875,0.5020751953125,-248.0,190.0,-131.0,102367.0,-8.638999938964844,0,0
1192.3739969999147,0.529632568359375,-0.469146728515625,0.16778564453125,-0.686431884765625,0.0,0.42724609375,-0.06103515625,0.4669189453125,-0.727294921875,0.5010986328125,-248.0,190.0,-131.0,102367.0,-8.638999938964844,0,0
1192.3789939999147,0.529632568359375,-0.469146728515625,0.16778564453125,-0.686431884765625,-0.48828125,0.06103515625,-0.1220703125,0.4666748046875,-0.7261962890625,0.503173828125,-248.0,190.0,-131.0,102367.0,-8.638999938964844,0,0
1192.3839939999148,0.529632568359375,-0.469146728515625,0.16778564453125,-0.686431884765625,-0.06103515625,0.3662109375,-0.06103515625,0.46630859375,-0.72509765625,0.50244140625,-248.0,190.0,-131.0,102367.0,-8.638999938964844,0,0
1192.3889949999148,0.529632568359375,-0.469146728515625,0.16778564453125,-0.686431884765625,-0.18310546875,0.18310546875,0.0,0.468017578125,-0.7265625,0.5023193359375,-248.0,190.0,-131.0,102367.0,-8.638999938964844,0,0
1192.3939969999149,0.52978515625,-0.46917724609375,0.16766357421875,-0.686309814453125,-0.18310546875,0.18310546875,0.0,0.468017578125,-0.7265625,0.5023193359375,-247.0,189.0,-133.0,102367.0,-8.638999938964844,0,0
1192.398996999915,0.52978515625,-0.46917724609375,0.16766357421875,-0.686309814453125,-0.54931640625,-0.18310546875,-0.244140625,0.4654541015625,-0.7264404296875,0.503662109375,-247.0,189.0,-133.0,102367.0,-8.638999938964844,0,0
1192.403993999915,0.52978515625,-0.46917724609375,0.16766357421875,-0.686309814453125,-0.1220703125,0.06103515625,-0.1220703125,0.4661865234375,-0.727783203125,0.50341796875,-247.0,189.0,-133.0,102367.0,-8.638999938964844,0,0
1192.408023999915,0.52978515625,-0.46917724609375,0.16766357421875,-0.686309814453125,-0.1220703125,0.06103515625,-0.1220703125,0.4661865234375,-0.727783203125,0.50341796875,-247.0,189.0,-133.0,102367.0,-8.638999938964844,0,0
1192.412994999915,0.52978515625,-0.46917724609375,0.16766357421875,-0.686309814453125,-0.30517578125,-0.06103515625,0.0,0.4664306640625,-0.7269287109375,0.50244140625,-247.0,189.0,-133.0,102367.0,-8.638999938964844,0,0
1192.417993999915,0.52978515625,-0.46917724609375,0.167694091796875,-0.686309814453125,-0.244140625,0.06103515625,-0.1220703125,0.465576171875,-0.727783203125,0.5029296875,-247.0,189.0,-133.0,102367.0,-8.638999938964844,0,0
1192.4229939999152,0.529815673828125,-0.46917724609375,0.167694091796875,-0.686309814453125,0.18310546875,0.18310546875,0.06103515625,0.465576171875,-0.7276611328125,0.5040283203125,-247.0,189.0,-133.0,102367.0,-8.638999938964844,0,0
1192.4279969999152,0.529815673828125,-0.46917724609375,0.16766357421875,-0.686309814453125,-0.1220703125,0.06103515625,-0.06103515625,0.4652099609375,-0.72509765625,0.5037841796875,-247.0,189.0,-133.0,102367.0,-8.638999938964844,0,0
1192.4329939999152,0.52978515625,-0.46917724609375,0.16766357421875,-0.686309814453125,-0.3662109375,0.18310546875,-0.1220703125,0.467041015625,-0.7254638671875,0.5032958984375,-247.0,189.0,-133.0,102367.0,-8.638999938964844,0,0
1192.4379929999152,0.52978515625,-0.46917724609375,0.16766357421875,-0.686309814453125,-0.3662109375,0.18310546875,-0.1220703125,0.467041015625,-0.7254638671875,0.5032958984375,-247.0,189.0,-133.0,102367.0,-8.638999938964844,0,0
1192.4429939999152,0.52978515625,-0.46917724609375,0.16766357421875,-0.686309814453125,-0.06103515625,0.244140625,-0.18310546875,0.467529296875,-0.72607421875,0.5042724609375,-247.0,189.0,-133.0,102367.0,-8.638999938964844,0,0
1192.4479949999152,0.529815673828125,-0.46917724609375,0.16766357421875,-0.686309814453125,-0.18310546875,-0.06103515625,0.1220703125,0.4649658203125,-0.7271728515625,0.50244140625,-247.0,189.0,-133.0,102367.0,-8.638999938964844,0,0
1192.452992999915,0.52978515625,-0.46917724609375,0.16766357421875,-0.686309814453125,-0.1220703125,0.1220703125,0.1220703125,0.46630859375,-0.726318359375,0.501220703125,-247.0,189.0,-133.0,102367.0,-8.638999938964844,0,0
1192.4579929999152,0.52978515625,-0.46917724609375,0.16766357421875,-0.686309814453125,-0.18310546875,-0.18310546875,0.06103515625,0.46630859375,-0.727294921875,0.501708984375,-247.0,189.0,-133.0,102367.0,-8.638999938964844,0,0
1192.4629929999153,0.52978515625,-0.46917724609375,0.16766357421875,-0.686309814453125,0.244140625,0.1220703125,0.1220703125,0.466796875,-0.7274169921875,0.5037841796875,-247.0,189.0,-133.0,102367.0,-8.638999938964844,0,0
1192.4770279999154,0.52978515625,-0.469207763671875,0.16766357421875,-0.686309814453125,-0.244140625,0.06103515625,-0.244140625,0.466064453125,-0.727783203125,0.5009765625,-247.0,189.0,-133.0,102367.0,-8.638999938964844,0,0
1192.4819959999154,0.52978515625,-0.469207763671875,0.16766357421875,-0.686309814453125,-0.06103515625,0.0,-0.1220703125,0.4664306640625,-0.7281494140625,0.5020751953125,-247.0,189.0,-133.0,102367.0,-8.638999938964844,0,0
1192.4869929999154,0.52978515625,-0.469207763671875,0.16766357421875,-0.686309814453125,-0.18310546875,0.06103515625,0.06103515625,0.4666748046875,-0.7286376953125,0.503662109375,-247.0,189.0,-133.0,102367.0,-8.638999938964844,0,0
1192.4919929999155,0.52978515625,-0.469207763671875,0.16766357421875,-0.686279296875,-0.1220703125,0.18310546875,0.06103515625,0.4669189453125,-0.7269287109375,0.5008544921875,-247.0,190.0,-133.0,102367.0,-8.638999938964844,0,0
1192.4969939999155,0.529937744140625,-0.46923828125,0.167572021484375,-0.6861572265625,-0.30517578125,0.30517578125,0.06103515625,0.46533203125,-0.72705078125,0.5023193359375,-247.0,190.0,-133.0,102367.0,-8.638999938964844,0,0
1192.5019949999155,0.529937744140625,-0.46923828125,0.167572021484375,-0.6861572265625,-0.06103515625,0.06103515625,-0.18310546875,0.4644775390625,-0.7271728515625,0.501220703125,-247.0,190.0,-133.0,102367.0,-8.638999938964844,0,0
1192.5069959999155,0.529937744140625,-0.46923828125,0.167572021484375,-0.6861572265625,-0.18310546875,0.18310546875,0.1220703125,0.4654541015625,-0.7261962890625,0.5037841796875,-247.0,190.0,-133.0,102367.0,-8.638999938964844,0,0
1192.5119929999155,0.529937744140625,-0.46923828125,0.167572021484375,-0.6861572265625,0.18310546875,0.3662109375,0.0,0.46533203125,-0.727294921875,0.50244140625,-247.0,190.0,-133.0,102367.0,-8.638999938964844,0,0
1192.5169929999156,0.529937744140625,-0.46923828125,0.167572021484375,-0.6861572265625,-0.1220703125,0.244140625,0.0,0.4647216796875,-0.7265625,0.502197265625,-247.0,190.0,-133.0,102367.0,-8.638999938964844,0,0
1192.5219939999156,0.529937744140625,-0.46923828125,0.1676025390625,-0.6861572265625,-0.18310546875,0.06103515625,0.1220703125,0.4638671875,-0.725830078125,0.501953125,-247.0,190.0,-133.0,102367.0,-8.638999938964844,0,0
1192.5269959999157,0.529937744140625,-0.46923828125,0.167572021484375,-0.6861572265625,-0.3662109375,0.1220703125,0.06103515625,0.4658203125,-0.7288818359375,0.502685546875,-247.0,190.0,-133.0,102367.0,-8.638999938964844,0,0
1192.5410219999158,0.52996826171875,-0.46923828125,0.1676025390625,-0.6861572265625,-0.30517578125,0.18310546875,-0.42724609375,0.4642333984375,-0.7265625,0.50439453125,-247.0,190.0,-133.0,102367.0,-8.638999938964844,0,0
1192.5459929999158,0.52996826171875,-0.46923828125,0.167572021484375,-0.6861572265625,0.06103515625,0.18310546875,0.06103515625,0.4681396484375,-0.7249755859375,0.5040283203125,-247.0,190.0,-133.0,102367.0,-8.638999938964844,0,0
1192.5509939999158,0.52996826171875,-0.46923828125,0.167572021484375,-0.6861572265625,0.18310546875,0.244140625,0.0,0.4632568359375,-0.7264404296875,0.5028076171875,-247.0,190.0,-133.0,102367.0,-8.638999938964844,0,0
1192.5559949999158,0.52996826171875,-0.46923828125,0.1676025390625,-0.6861572265625,-0.30517578125,0.0,-0.1220703125,0.46435546875,-0.726806640625,0.5020751953125,-247.0,190.0,-133.0,102367.0,-8.638999938964844,0,0
1192.5609929999157,0.52996826171875,-0.46923828125,0.1676025390625,-0.6861572265625,-0.30517578125,-0.06103515625,-0.06103515625,0.46484375,-0.7255859375,0.5023193359375,-247.0,190.0,-133.0,102367.0,-8.638999938964844,0,0
1192.5659929999158,0.52996826171875,-0.46923828125,0.1676025390625,-0.6861572265625,0.1220703125,0.42724609375,-0.244140625,0.4654541015625,-0.7264404296875,0.5018310546875,-247.0,190.0,-133.0,102367.0,-8.638999938964844,0,0
1192.570992999916,0.52996826171875,-0.46923828125,0.1676025390625,-0.6861572265625,-0.244140625,0.06103515625,-0.18310546875,0.46484375,-0.7259521484375,0.503173828125,-247.0,190.0,-133.0,102367.0,-8.638999938964844,0,0
1192.575993999916,0.52996826171875,-0.46923828125,0.167572021484375,-0.6861572265625,-0.1220703125,0.1220703125,0.0,0.4681396484375,-0.725830078125,0.5040283203125,-247.0,190.0,-133.0,102367.0,-8.638999938964844,0,0
1192.580996999916,0.52996826171875,-0.46923828125,0.167572021484375,-0.6861572265625,0.0,0.18310546875,-0.06103515625,0.4656982421875,-0.7254638671875,0.504150390625,-247.0,190.0,-133.0,102367.0,-8.638999938964844,0,0
1192.585993999916,0.52996826171875,-0.46923828125,0.167572021484375,-0.6861572265625,-0.18310546875,-0.06103515625,-0.244140625,0.4669189453125,-0.726318359375,0.500732421875,-247.0,190.0,-133.0,102366.0,-8.638999938964844,0,0
1192.590993999916,0.529937744140625,-0.46923828125,0.167572021484375,-0.6861572265625,-0.244140625,0.244140625,0.0,0.46630859375,-0.727294921875,0.501708984375,-247.0,191.0,-132.0,102366.0,-8.638999938964844,0,0
1192.595994999916,0.5302734375,-0.46929931640625,0.1673583984375,-0.685943603515625,0.0,0.54931640625,-0.244140625,0.4652099609375,-0.7252197265625,0.5032958984375,-247.0,191.0,-132.0,102366.0,-8.638999938964844,0,0
1192.600996999916,0.5302734375,-0.46929931640625,0.1673583984375,-0.685943603515625,0.1220703125,-0.1220703125,-0.1220703125,0.4686279296875,-0.7264404296875,0.502685546875,-247.0,191.0,-132.0,102366.0,-8.638999938964844,0,0
1192.605995999916,0.5302734375,-0.46929931640625,0.1673583984375,-0.6859130859375,-0.06103515625,0.1220703125,-0.06103515625,0.4647216796875,-0.7271728515625,0.5015869140625,-247.0,191.0,-132.0,102366.0,-8.638999938964844,0,0
1192.610022999916,0.5302734375,-0.46929931640625,0.1673583984375,-0.6859130859375,-0.06103515625,0.1220703125,-0.06103515625,0.4647216796875,-0.7271728515625,0.5015869140625,-247.0,191.0,-132.0,102366.0,-8.638999938964844,0,0
1192.614996999916,0.5302734375,-0.469329833984375,0.167388916015625,-0.6859130859375,0.18310546875,0.06103515625,0.0,0.4647216796875,-0.72705078125,0.500732421875,-247.0,191.0,-132.0,102366.0,-8.638999938964844,0,0
1192.619993999916,0.5302734375,-0.469329833984375,0.1673583984375,-0.6859130859375,-0.06103515625,0.18310546875,0.0,0.467041015625,-0.72607421875,0.502685546875,-247.0,191.0,-132.0,102366.0,-8.638999938964844,0,0
1192.6249939999161,0.5302734375,-0.469329833984375,0.1673583984375,-0.6859130859375,-0.18310546875,0.06103515625,-0.18310546875,0.468017578125,-0.726806640625,0.5035400390625,-247.0,191.0,-132.0,102366.0,-8.638999938964844,0,0
1192.6299939999162,0.5302734375,-0.469329833984375,0.1673583984375,-0.6859130859375,-0.244140625,0.1220703125,0.0,0.4659423828125,-0.7242431640625,0.5023193359375,-247.0,191.0,-132.0,102366.0,-8.638999938964844,0,0
1192.6349969999162,0.5302734375,-0.469329833984375,0.1673583984375,-0.6859130859375,-0.30517578125,0.244140625,-0.1220703125,0.4652099609375,-0.72607421875,0.5035400390625,-247.0,191.0,-132.0,102366.0,-8.638999938964844,0,0
1192.6399939999162,0.5302734375,-0.469329833984375,0.1673583984375,-0.6859130859375,0.30517578125,0.18310546875,-0.1220703125,0.466552734375,-0.7265625,0.503173828125,-247.0,191.0,-132.0,102366.0,-8.638999938964844,0,0
1192.6449939999163,0.5302734375,-0.469329833984375,0.1673583984375,-0.6859130859375,-0.18310546875,0.06103515625,-0.06103515625,0.4664306640625,-0.7266845703125,0.5018310546875,-247.0,191.0,-132.0,102366.0,-8.638999938964844,0,0
1192.6499939999164,0.5302734375,-0.469329833984375,0.1673583984375,-0.685943603515625,0.244140625,0.1220703125,-0.18310546875,0.4664306640625,-0.7265625,0.503662109375,-247.0,191.0,-132.0,102366.0,-8.638999938964844,0,0
1192.6649929999164,0.530242919921875,-0.469329833984375,0.1673583984375,-0.685943603515625,0.1220703125,0.1220703125,0.1220703125,0.464599609375,-0.727294921875,0.502197265625,-247.0,191.0,-132.0,102366.0,-8.638999938964844,0,0
1192.6699929999165,0.530242919921875,-0.469329833984375,0.1673583984375,-0.6859130859375,-0.3662109375,-0.06103515625,0.06103515625,0.46484375,-0.7257080078125,0.4993896484375,-247.0,191.0,-132.0,102366.0,-8.638999938964844,0,0
1192.6740219999165,0.530242919921875,-0.469329833984375,0.1673583984375,-0.6859130859375,-0.3662109375,-0.06103515625,0.06103515625,0.46484375,-0.7257080078125,0.4993896484375,-247.0,191.0,-132.0,102366.0,-8.638999938964844,0,0
1192.6789929999165,0.530242919921875,-0.469329833984375,0.1673583984375,-0.685943603515625,0.06103515625,-0.06103515625,0.1220703125,0.468017578125,-0.7264404296875,0.5028076171875,-247.0,191.0,-132.0,102366.0,-8.638999938964844,0,0
1192.6839939999165,0.530242919921875,-0.469329833984375,0.1673583984375,-0.685943603515625,-0.18310546875,0.06103515625,0.06103515625,0.4659423828125,-0.727294921875,0.502685546875,-247.0,191.0,-132.0,102366.0,-8.638999938964844,0,0
1192.6889959999166,0.530242919921875,-0.469329833984375,0.1673583984375,-0.685943603515625,-0.18310546875,0.06103515625,0.06103515625,0.4659423828125,-0.727294921875,0.502685546875,-247.0,191.0,-130.0,102367.0,-8.640000343322754,0,0
1192.6939929999166,0.530242919921875,-0.469329833984375,0.1673583984375,-0.685943603515625,0.06103515625,0.18310546875,0.06103515625,0.466552734375,-0.726806640625,0.5020751953125,-247.0,191.0,-130.0,102367.0,-8.640000343322754,0,0
1192.6989929999168,0.5308837890625,-0.469482421875,0.16693115234375,-0.6854248046875,-0.1220703125,0.18310546875,0.1220703125,0.4659423828125,-0.7271728515625,0.50439453125,-247.0,191.0,-130.0,102367.0,-8.640000343322754,0,0
1192.7039939999167,0.5308837890625,-0.469482421875,0.16693115234375,-0.6854248046875,-0.54931640625,0.1220703125,0.0,0.467529296875,-0.7283935546875,0.5040283203125,-247.0,191.0,-130.0,102367.0,-8.640000343322754,0,0
1192.7089949999167,0.5308837890625,-0.469482421875,0.16693115234375,-0.6854248046875,-0.244140625,0.244140625,-0.1220703125,0.46533203125,-0.7286376953125,0.5010986328125,-247.0,191.0,-130.0,102367.0,-8.640000343322754,0,0
1192.7239929999168,0.5308837890625,-0.469482421875,0.16693115234375,-0.6854248046875,0.18310546875,0.1220703125,-0.1220703125,0.467529296875,-0.7274169921875,0.5028076171875,-247.0,191.0,-130.0,102367.0,-8.640000343322754,0,0
1192.7289939999168,0.5308837890625,-0.469482421875,0.16693115234375,-0.6854248046875,0.0,0.18310546875,-0.18310546875,0.4683837890625,-0.728515625,0.5025634765625,-247.0,191.0,-130.0,102367.0,-8.640000343322754,0,0
1192.733995999917,0.5308837890625,-0.469482421875,0.16693115234375,-0.6854248046875,-0.30517578125,0.0,-0.06103515625,0.4658203125,-0.7291259765625,0.50341796875,-247.0,191.0,-130.0,102367.0,-8.640000343322754,0,0
1192.738992999917,0.5308837890625,-0.469482421875,0.16693115234375,-0.6854248046875,-0.30517578125,0.0,-0.06103515625,0.4658203125,-0.7291259765625,0.50341796875,-247.0,191.0,-130.0,102367.0,-8.640000343322754,0,0
1192.743021999917,0.5308837890625,-0.469482421875,0.16693115234375,-0.6854248046875,-0.30517578125,0.0,-0.06103515625,0.4658203125,-0.7291259765625,0.50341796875,-247.0,191.0,-130.0,102367.0,-8.640000343322754,0,0
1192.747992999917,0.5308837890625,-0.469482421875,0.16693115234375,-0.6854248046875,-0.1220703125,0.06103515625,-0.1220703125,0.466796875,-0.72607421875,0.5028076171875,-247.0,191.0,-130.0,102367.0,-8.640000343322754,0,0
1192.752992999917,0.5308837890625,-0.469482421875,0.16693115234375,-0.6854248046875,-0.06103515625,0.18310546875,-0.06103515625,0.46533203125,-0.7269287109375,0.5048828125,-247.0,191.0,-130.0,102367.0,-8.640000343322754,0,0
1192.757993999917,0.5308837890625,-0.469482421875,0.16693115234375,-0.6854248046875,0.06103515625,0.244140625,0.1220703125,0.4676513671875,-0.7266845703125,0.5045166015625,-247.0,191.0,-130.0,102367.0,-8.640000343322754,0,0
1192.762994999917,0.5308837890625,-0.469482421875,0.16693115234375,-0.6854248046875,-0.30517578125,0.1220703125,0.06103515625,0.4664306640625,-0.7269287109375,0.5028076171875,-247.0,191.0,-130.0,102367.0,-8.640000343322754,0,0
1192.767991999917,0.5308837890625,-0.469482421875,0.16693115234375,-0.6854248046875,-0.06103515625,0.244140625,0.06103515625,0.4647216796875,-0.725341796875,0.50244140625,-247.0,191.0,-130.0,102367.0,-8.640000343322754,0,0
1192.772992999917,0.5308837890625,-0.469512939453125,0.16693115234375,-0.6854248046875,-0.30517578125,0.1220703125,0.0,0.4659423828125,-0.7286376953125,0.5042724609375,-247.0,191.0,-130.0,102367.0,-8.640000343322754,0,0
1192.7779929999172,0.5308837890625,-0.469512939453125,0.166961669921875,-0.6854248046875,0.0,0.244140625,-0.1220703125,0.4664306640625,-0.728515625,0.501708984375,-247.0,191.0,-130.0,102367.0,-8.640000343322754,0,0
1192.7829939999172,0.5308837890625,-0.469482421875,0.166961669921875,-0.6854248046875,0.18310546875,0.0,-0.18310546875,0.464599609375,-0.728271484375,0.5030517578125,-247.0,191.0,-130.0,102367.0,-8.640000343322754,0,0
1192.7879959999173,0.5308837890625,-0.469482421875,0.166961669921875,-0.6854248046875,-0.06103515625,0.06103515625,0.18310546875,0.4635009765625,-0.7274169921875,0.502685546875,-247.0,190.0,-130.0,102367.0,-8.638999938964844,0,0
1192.7929939999171,0.5308837890625,-0.469482421875,0.166961669921875,-0.6854248046875,-0.1220703125,0.244140625,-0.1220703125,0.466796875,-0.72607421875,0.503662109375,-247.0,190.0,-130.0,102367.0,-8.638999938964844,0,0
1192.7979939999173,0.531524658203125,-0.469635009765625,0.166534423828125,-0.6849365234375,-0.06103515625,0.1220703125,0.0,0.465087890625,-0.7257080078125,0.5009765625,-247.0,190.0,-130.0,102367.0,-8.638999938964844,0,0
1192.8029949999172,0.531524658203125,-0.469635009765625,0.166534423828125,-0.6849365234375,0.18310546875,0.1220703125,0.0,0.46435546875,-0.7249755859375,0.50341796875,-247.0,190.0,-130.0,102367.0,-8.638999938964844,0,0
1192.8070249999173,0.531524658203125,-0.469635009765625,0.166534423828125,-0.6849365234375,0.18310546875,0.1220703125,0.0,0.46435546875,-0.7249755859375,0.50341796875,-247.0,190.0,-130.0,102367.0,-8.638999938964844,0,0
1192.8119949999173,0.531524658203125,-0.469635009765625,0.166534423828125,-0.6849365234375,0.0,0.18310546875,-0.06103515625,0.466796875,-0.7266845703125,0.5009765625,-247.0,190.0,-130.0,102367.0,-8.638999938964844,0,0
1192.8169969999174,0.531524658203125,-0.469635009765625,0.166534423828125,-0.6849365234375,0.0,0.1220703125,-0.1220703125,0.4652099609375,-0.7276611328125,0.5030517578125,-247.0,190.0,-130.0,102367.0,-8.638999938964844,0,0
1192.8219959999174,0.531524658203125,-0.469635009765625,0.166534423828125,-0.6849365234375,0.06103515625,0.18310546875,-0.18310546875,0.4669189453125,-0.726318359375,0.5037841796875,-247.0,190.0,-130.0,102367.0,-8.638999938964844,0,0
1192.8269939999172,0.531524658203125,-0.469635009765625,0.166534423828125,-0.6849365234375,-0.1220703125,0.0,0.1220703125,0.4647216796875,-0.7269287109375,0.50390625,-247.0,190.0,-130.0,102367.0,-8.638999938964844,0,0
1192.8319939999174,0.531524658203125,-0.469635009765625,0.166534423828125,-0.6849365234375,-0.42724609375,0.06103515625,0.06103515625,0.46533203125,-0.726806640625,0.5028076171875,-247.0,190.0,-130.0,102367.0,-8.638999938964844,0,0
1192.8469939999175,0.531524658203125,-0.469635009765625,0.166534423828125,-0.6849365234375,-0.1220703125,-0.06103515625,0.18310546875,0.4654541015625,-0.7286376953125,0.5023193359375,-247.0,190.0,-130.0,102367.0,-8.638999938964844,0,0
1192.8519939999176,0.531524658203125,-0.469635009765625,0.166534423828125,-0.6849365234375,-0.06103515625,0.18310546875,0.18310546875,0.4659423828125,-0.728515625,0.5029296875,-247.0,190.0,-130.0,102367.0,-8.638999938964844,0,0
1192.8569949999176,0.531524658203125,-0.469635009765625,0.166534423828125,-0.6849365234375,0.18310546875,0.1220703125,0.0,0.461669921875,-0.728271484375,0.503173828125,-247.0,190.0,-130.0,102367.0,-8.638999938964844,0,0
1192.8619949999177,0.531524658203125,-0.469635009765625,0.166534423828125,-0.6849365234375,-0.1220703125,0.1220703125,-0.18310546875,0.46630859375,-0.7265625,0.5048828125,-247.0,190.0,-130.0,102367.0,-8.638999938964844,0,0
1192.8669959999177,0.531524658203125,-0.469635009765625,0.166534423828125,-0.6849365234375,-0.18310546875,0.1220703125,0.06103515625,0.46533203125,-0.7271728515625,0.503173828125,-247.0,190.0,-130.0,102367.0,-8.638999938964844,0,0
1192.8710219999177,0.531524658203125,-0.469635009765625,0.166534423828125,-0.6849365234375,-0.18310546875,0.1220703125,0.06103515625,0.46533203125,-0.7271728515625,0.503173828125,-247.0,190.0,-130.0,102367.0,-8.638999938964844,0,0
1192.8759919999177,0.531524658203125,-0.469635009765625,0.166534423828125,-0.6849365234375,-0.06103515625,0.06103515625,0.18310546875,0.4671630859375,-0.7259521484375,0.5042724609375,-247.0,190.0,-130.0,102367.0,-8.638999938964844,0,0
1192.8809929999177,0.531524658203125,-0.469635009765625,0.166534423828125,-0.6849365234375,0.06103515625,0.18310546875,0.0,0.465576171875,-0.727783203125,0.5018310546875,-247.0,190.0,-130.0,102367.0,-8.638999938964844,0,0
1192.8859929999178,0.531524658203125,-0.469635009765625,0.166534423828125,-0.6849365234375,0.18310546875,0.0,-0.30517578125,0.466064453125,-0.728271484375,0.5032958984375,-247.0,190.0,-130.0,102367.0,-8.638999938964844,0,0
1192.8909939999178,0.531524658203125,-0.469635009765625,0.166534423828125,-0.6849365234375,0.18310546875,0.0,-0.30517578125,0.466064453125,-0.728271484375,0.5032958984375,-248.0,190.0,-129.0,102367.0,-8.640000343322754,0,0
1192.895995999918,0.532135009765625,-0.46978759765625,0.166107177734375,-0.6844482421875,0.244140625,-0.06103515625,-0.18310546875,0.4671630859375,-0.7276611328125,0.5047607421875,-248.0,190.0,-129.0,102367.0,-8.640000343322754,0,0
1192.910993999918,0.532135009765625,-0.469757080078125,0.166107177734375,-0.6844482421875,-0.1220703125,0.1220703125,0.1220703125,0.4666748046875,-0.7266845703125,0.5042724609375,-248.0,190.0,-129.0,102367.0,-8.640000343322754,0,0
1192.915994999918,0.532135009765625,-0.469757080078125,0.166107177734375,-0.6844482421875,-0.30517578125,0.06103515625,0.18310546875,0.4671630859375,-0.7264404296875,0.503173828125,-248.0,190.0,-129.0,102367.0,-8.640000343322754,0,0
1192.9209929999179,0.532135009765625,-0.469757080078125,0.166107177734375,-0.6844482421875,0.06103515625,-0.06103515625,0.18310546875,0.4666748046875,-0.7265625,0.502685546875,-248.0,190.0,-129.0,102367.0,-8.640000343322754,0,0
1192.925992999918,0.532135009765625,-0.469757080078125,0.166107177734375,-0.6844482421875,0.1220703125,0.0,-0.1220703125,0.46435546875,-0.7244873046875,0.504150390625,-248.0,190.0,-129.0,102367.0,-8.640000343322754,0,0
1192.930992999918,0.53216552734375,-0.469757080078125,0.166107177734375,-0.6844482421875,0.0,0.244140625,-0.06103515625,0.46630859375,-0.727783203125,0.504638671875,-248.0,190.0,-129.0,102367.0,-8.640000343322754,0,0
1192.935993999918,0.53216552734375,-0.469757080078125,0.166107177734375,-0.684478759765625,0.18310546875,0.244140625,-0.06103515625,0.465576171875,-0.72705078125,0.5040283203125,-248.0,190.0,-129.0,102367.0,-8.640000343322754,0,0
1192.9400259999181,0.53216552734375,-0.469757080078125,0.166107177734375,-0.684478759765625,0.18310546875,0.244140625,-0.06103515625,0.465576171875,-0.72705078125,0.5040283203125,-248.0,190.0,-129.0,102367.0,-8.640000343322754,0,0
1192.944993999918,0.53216552734375,-0.469757080078125,0.166107177734375,-0.6844482421875,0.06103515625,0.30517578125,-0.1220703125,0.46630859375,-0.7257080078125,0.5032958984375,-248.0,190.0,-129.0,102367.0,-8.640000343322754,0,0
1192.9499959999182,0.53216552734375,-0.469757080078125,0.166107177734375,-0.6844482421875,0.06103515625,0.30517578125,0.244140625,0.465087890625,-0.7276611328125,0.5035400390625,-248.0,190.0,-129.0,102367.0,-8.640000343322754,0,0
1192.9549929999182,0.53216552734375,-0.469757080078125,0.166107177734375,-0.6844482421875,-0.18310546875,0.0,-0.1220703125,0.4656982421875,-0.7294921875,0.504150390625,-248.0,190.0,-129.0,102367.0,-8.640000343322754,0,0
1192.9599929999183,0.53216552734375,-0.469757080078125,0.166107177734375,-0.6844482421875,0.0,0.06103515625,-0.18310546875,0.4644775390625,-0.7264404296875,0.5029296875,-248.0,190.0,-129.0,102367.0,-8.640000343322754,0,0
1192.9649939999183,0.53216552734375,-0.469757080078125,0.1661376953125,-0.6844482421875,-0.244140625,0.1220703125,-0.18310546875,0.4654541015625,-0.727294921875,0.5040283203125,-248.0,190.0,-129.0,102367.0,-8.640000343322754,0,0
1192.9699949999183,0.53216552734375,-0.469757080078125,0.1661376953125,-0.6844482421875,-0.244140625,0.30517578125,0.30517578125,0.4647216796875,-0.726318359375,0.5023193359375,-248.0,190.0,-129.0,102367.0,-8.640000343322754,0,0
1192.9749959999183,0.53216552734375,-0.469757080078125,0.1661376953125,-0.6844482421875,0.0,0.18310546875,-0.18310546875,0.46630859375,-0.7244873046875,0.502685546875,-248.0,190.0,-129.0,102367.0,-8.640000343322754,0,0
1192.9799929999183,0.53216552734375,-0.469757080078125,0.166107177734375,-0.6844482421875,-0.244140625,0.18310546875,-0.1220703125,0.4649658203125,-0.72509765625,0.503173828125,-248.0,190.0,-129.0,102367.0,-8.640000343322754,0,0
1192.9849929999184,0.53216552734375,-0.469757080078125,0.166107177734375,-0.6844482421875,0.06103515625,0.244140625,-0.1220703125,0.4658203125,-0.7264404296875,0.50244140625,-248.0,190.0,-129.0,102367.0,-8.640000343322754,0,0
1192.9899939999184,0.53216552734375,-0.469757080078125,0.166107177734375,-0.6844482421875,0.06103515625,0.244140625,-0.1220703125,0.4658203125,-0.7264404296875,0.50244140625,-247.0,190.0,-130.0,102367.0,-8.641000747680664,0,0
1192.9949959999185,0.532470703125,-0.469818115234375,0.1658935546875,-0.684234619140625,0.1220703125,0.06103515625,-0.18310546875,0.46728515625,-0.7281494140625,0.50537109375,-247.0,190.0,-130.0,102367.0,-8.641000747680664,0,0
1192.9999929999185,0.532470703125,-0.469818115234375,0.1658935546875,-0.684234619140625,0.18310546875,0.1220703125,0.06103515625,0.4661865234375,-0.727783203125,0.5047607421875,-247.0,190.0,-130.0,102367.0,-8.641000747680664,0,0
1193.0040219999185,0.532470703125,-0.469818115234375,0.1658935546875,-0.684234619140625,0.18310546875,0.1220703125,0.06103515625,0.4661865234375,-0.727783203125,0.5047607421875,-247.0,190.0,-130.0,102367.0,-8.641000747680664,0,0
1193.0089979999184,0.532470703125,-0.469818115234375,0.1658935546875,-0.684234619140625,-0.18310546875,-0.1220703125,-0.06103515625,0.4656982421875,-0.725341796875,0.505859375,-247.0,190.0,-130.0,102367.0,-8.641000747680664,0,0
1193.0139939999183,0.532470703125,-0.469818115234375,0.1658935546875,-0.684234619140625,-0.18310546875,-0.1220703125,-0.06103515625,0.4656982421875,-0.725341796875,0.505859375,-247.0,190.0,-130.0,102367.0,-8.641000747680664,0,0
1193.0189949999183,0.532470703125,-0.469818115234375,0.1658935546875,-0.684234619140625,0.1220703125,0.30517578125,0.1220703125,0.46728515625,-0.72705078125,0.502685546875,-247.0,190.0,-130.0,102367.0,-8.641000747680664,0,0
1193.0339939999185,0.532470703125,-0.46978759765625,0.1658935546875,-0.684234619140625,-0.48828125,-0.1220703125,-0.06103515625,0.4644775390625,-0.726806640625,0.504638671875,-247.0,190.0,-130.0,102367.0,-8.641000747680664,0,0
1193.0389939999186,0.532470703125,-0.46978759765625,0.1658935546875,-0.684234619140625,0.06103515625,0.244140625,0.06103515625,0.466552734375,-0.7276611328125,0.5045166015625,-247.0,190.0,-130.0,102367.0,-8.641000747680664,0,0
1193.0439939999187,0.532470703125,-0.46978759765625,0.1658935546875,-0.684234619140625,0.06103515625,0.1220703125,-0.18310546875,0.4637451171875,-0.7274169921875,0.50341796875,-247.0,190.0,-130.0,102367.0,-8.641000747680664,0,0
1193.0489959999188,0.532470703125,-0.46978759765625,0.1658935546875,-0.684234619140625,-0.1220703125,-0.1220703125,-0.06103515625,0.464111328125,-0.72705078125,0.503662109375,-247.0,190.0,-130.0,102367.0,-8.641000747680664,0,0
1193.0539939999187,0.532470703125,-0.46978759765625,0.1658935546875,-0.684234619140625,0.1220703125,-0.06103515625,-0.06103515625,0.4659423828125,-0.7264404296875,0.5045166015625,-247.0,190.0,-130.0,102367.0,-8.641000747680664,0,0
1193.0589939999188,0.532470703125,-0.46978759765625,0.1658935546875,-0.684234619140625,-0.1220703125,-0.06103515625,0.18310546875,0.466552734375,-0.727294921875,0.503173828125,-247.0,190.0,-130.0,102367.0,-8.641000747680664,0,0
1193.0639949999188,0.532470703125,-0.46978759765625,0.1658935546875,-0.684234619140625,-0.18310546875,-0.1220703125,-0.06103515625,0.4661865234375,-0.7271728515625,0.503173828125,-247.0,190.0,-130.0,102367.0,-8.641000747680664,0,0
1193.068996999919,0.532470703125,-0.46978759765625,0.1658935546875,-0.684234619140625,0.0,0.30517578125,-0.18310546875,0.4658203125,-0.7274169921875,0.5050048828125,-247.0,190.0,-130.0,102367.0,-8.641000747680664,0,0
1193.073024999919,0.532470703125,-0.46978759765625,0.1658935546875,-0.684234619140625,0.0,0.30517578125,-0.18310546875,0.4658203125,-0.7274169921875,0.5050048828125,-247.0,190.0,-130.0,102367.0,-8.641000747680664,0,0
1193.077994999919,0.532470703125,-0.46978759765625,0.1658935546875,-0.684234619140625,0.06103515625,0.06103515625,0.06103515625,0.4659423828125,-0.7257080078125,0.5048828125,-247.0,190.0,-130.0,102367.0,-8.641000747680664,0,0
1193.082995999919,0.532470703125,-0.46978759765625,0.1658935546875,-0.684234619140625,-0.18310546875,0.18310546875,0.0,0.4649658203125,-0.728515625,0.5032958984375,-247.0,190.0,-130.0,102367.0,-8.641000747680664,0,0
1193.097993999919,0.53265380859375,-0.469818115234375,0.165771484375,-0.684112548828125,-0.1220703125,0.18310546875,-0.1220703125,0.46533203125,-0.7279052734375,0.5037841796875,-246.0,190.0,-131.0,102367.0,-8.641000747680664,0,0
1193.1029959999191,0.53265380859375,-0.469818115234375,0.165771484375,-0.684112548828125,0.244140625,0.18310546875,-0.06103515625,0.4664306640625,-0.728515625,0.5030517578125,-246.0,190.0,-131.0,102367.0,-8.641000747680664,0,0
1193.1079929999191,0.53265380859375,-0.469818115234375,0.165771484375,-0.684112548828125,0.18310546875,0.30517578125,0.1220703125,0.4654541015625,-0.72705078125,0.504150390625,-246.0,190.0,-131.0,102367.0,-8.641000747680664,0,0
1193.1129929999192,0.53265380859375,-0.469818115234375,0.165771484375,-0.684112548828125,0.06103515625,0.1220703125,-0.06103515625,0.463623046875,-0.7252197265625,0.5045166015625,-246.0,190.0,-131.0,102367.0,-8.641000747680664,0,0
1193.1179939999192,0.53265380859375,-0.469818115234375,0.165802001953125,-0.684112548828125,0.18310546875,0.3662109375,-0.1220703125,0.4635009765625,-0.7271728515625,0.503173828125,-246.0,190.0,-131.0,102367.0,-8.641000747680664,0,0
1193.1229949999192,0.53265380859375,-0.469818115234375,0.165802001953125,-0.684112548828125,-0.30517578125,0.0,0.0,0.4664306640625,-0.7255859375,0.5035400390625,-246.0,190.0,-131.0,102367.0,-8.641000747680664,0,0
1193.1279919999192,0.53265380859375,-0.469818115234375,0.165802001953125,-0.684112548828125,0.18310546875,0.06103515625,-0.1220703125,0.466064453125,-0.726318359375,0.5029296875,-246.0,190.0,-131.0,102367.0,-8.641000747680664,0,0
1193.1329929999192,0.53265380859375,-0.469818115234375,0.165802001953125,-0.684112548828125,-0.1220703125,0.0,-0.1220703125,0.46630859375,-0.7275390625,0.503662109375,-246.0,190.0,-131.0,102367.0,-8.641000747680664,0,0
1193.1370219999192,0.53265380859375,-0.469818115234375,0.165802001953125,-0.684112548828125,-0.1220703125,0.0,-0.1220703125,0.46630859375,-0.7275390625,0.503662109375,-246.0,190.0,-131.0,102367.0,-8.641000747680664,0,0
1193.1419929999192,0.53265380859375,-0.46978759765625,0.165802001953125,-0.684112548828125,0.06103515625,0.1220703125,0.1220703125,0.4647216796875,-0.726806640625,0.505615234375,-246.0,190.0,-131.0,102367.0,-8.641000747680664,0,0
1193.1469929999193,0.53265380859375,-0.46978759765625,0.165802001953125,-0.684112548828125,-0.48828125,-0.06103515625,0.1220703125,0.4649658203125,-0.7259521484375,0.503662109375,-246.0,190.0,-131.0,102367.0,-8.641000747680664,0,0
1193.1519939999193,0.53265380859375,-0.46978759765625,0.165771484375,-0.684112548828125,0.1220703125,-0.06103515625,-0.06103515625,0.468505859375,-0.7274169921875,0.50244140625,-246.0,190.0,-131.0,102367.0,-8.641000747680664,0,0
1193.1569959999194,0.53265380859375,-0.46978759765625,0.165771484375,-0.68414306640625,-0.06103515625,0.06103515625,0.0,0.4652099609375,-0.7274169921875,0.5048828125,-246.0,190.0,-131.0,102367.0,-8.641000747680664,0,0
1193.1619929999194,0.53265380859375,-0.46978759765625,0.165771484375,-0.68414306640625,-0.3662109375,0.18310546875,-0.1220703125,0.4652099609375,-0.72705078125,0.505126953125,-246.0,190.0,-131.0,102367.0,-8.641000747680664,0,0
1193.1669929999196,0.53265380859375,-0.46978759765625,0.165802001953125,-0.68414306640625,-0.06103515625,0.06103515625,-0.1220703125,0.46484375,-0.7271728515625,0.5048828125,-246.0,190.0,-131.0,102367.0,-8.641000747680664,0,0
1193.1719939999196,0.53265380859375,-0.46978759765625,0.165802001953125,-0.68414306640625,0.0,0.18310546875,-0.18310546875,0.465087890625,-0.72509765625,0.5035400390625,-246.0,190.0,-131.0,102367.0,-8.641000747680664,0,0
1193.1769949999195,0.53265380859375,-0.46978759765625,0.165802001953125,-0.68414306640625,0.1220703125,0.244140625,-0.06103515625,0.465576171875,-0.727294921875,0.505126953125,-246.0,190.0,-131.0,102367.0,-8.641000747680664,0,0
1193.1819919999195,0.53265380859375,-0.469757080078125,0.165802001953125,-0.68414306640625,0.0,0.1220703125,-0.18310546875,0.4637451171875,-0.7274169921875,0.505126953125,-246.0,190.0,-131.0,102367.0,-8.641000747680664,0,0
1193.1869929999195,0.53265380859375,-0.46978759765625,0.165802001953125,-0.68414306640625,0.0,0.1220703125,-0.18310546875,0.4637451171875,-0.7274169921875,0.505126953125,-246.0,190.0,-131.0,102367.0,-8.641000747680664,0,0
1193.1919929999196,0.532989501953125,-0.4698486328125,0.16558837890625,-0.68389892578125,0.0,0.18310546875,-0.1220703125,0.46630859375,-0.72705078125,0.5037841796875,-246.0,190.0,-130.0,102367.0,-8.641000747680664,0,0
1193.1969939999196,0.532989501953125,-0.4698486328125,0.165557861328125,-0.68389892578125,-0.244140625,-0.06103515625,0.0,0.4659423828125,-0.7269287109375,0.504150390625,-246.0,190.0,-130.0,102367.0,-8.641000747680664,0,0
1193.2019959999197,0.532989501953125,-0.4698486328125,0.165557861328125,-0.68389892578125,-0.06103515625,0.30517578125,0.0,0.467041015625,-0.7269287109375,0.504638671875,-246.0,190.0,-130.0,102367.0,-8.641000747680664,0,0
1193.2060279999198,0.532989501953125,-0.4698486328125,0.165557861328125,-0.68389892578125,-0.06103515625,0.30517578125,0.0,0.467041015625,-0.7269287109375,0.504638671875,-246.0,190.0,-130.0,102367.0,-8.641000747680664,0,0
1193.2209939999198,0.532989501953125,-0.469818115234375,0.165557861328125,-0.68389892578125,-0.18310546875,0.30517578125,-0.18310546875,0.4658203125,-0.7261962890625,0.5048828125,-246.0,190.0,-130.0,102367.0,-8.641000747680664,0,0
1193.2259949999197,0.532989501953125,-0.469818115234375,0.165557861328125,-0.68389892578125,-0.06103515625,-0.1220703125,0.1220703125,0.46630859375,-0.726806640625,0.50537109375,-246.0,190.0,-130.0,102367.0,-8.641000747680664,0,0
1193.2309969999199,0.532989501953125,-0.469818115234375,0.165557861328125,-0.68389892578125,0.0,0.244140625,-0.1220703125,0.464111328125,-0.7274169921875,0.5035400390625,-246.0,190.0,-130.0,102367.0,-8.641000747680664,0,0
1193.23599699992,0.532989501953125,-0.469818115234375,0.165557861328125,-0.68389892578125,-0.1220703125,0.244140625,-0.06103515625,0.4676513671875,-0.7298583984375,0.5050048828125,-246.0,190.0,-130.0,102367.0,-8.641000747680664,0,0
1193.24099399992,0.532989501953125,-0.469818115234375,0.165557861328125,-0.68389892578125,-0.06103515625,0.3662109375,-0.18310546875,0.4649658203125,-0.7275390625,0.504150390625,-246.0,190.0,-130.0,102367.0,-8.641000747680664,0,0
1193.24599399992,0.532989501953125,-0.469818115234375,0.165557861328125,-0.68389892578125,-0.1220703125,0.06103515625,-0.06103515625,0.46630859375,-0.7257080078125,0.5050048828125,-246.0,190.0,-130.0,102367.0,-8.641000747680664,0,0
1193.2509939999202,0.532989501953125,-0.469818115234375,0.165557861328125,-0.68389892578125,-0.3662109375,0.06103515625,0.06103515625,0.466064453125,-0.7264404296875,0.5052490234375,-246.0,190.0,-130.0,102367.0,-8.641000747680664,0,0
1193.2559969999202,0.532989501953125,-0.469818115234375,0.165557861328125,-0.68389892578125,0.1220703125,0.1220703125,-0.06103515625,0.4656982421875,-0.7261962890625,0.5047607421875,-246.0,190.0,-130.0,102367.0,-8.641000747680664,0,0
1193.2609939999202,0.532989501953125,-0.469818115234375,0.165557861328125,-0.68389892578125,-0.42724609375,0.244140625,0.244140625,0.463623046875,-0.7269287109375,0.50244140625,-246.0,190.0,-130.0,102367.0,-8.641000747680664,0,0
1193.2659939999203,0.532989501953125,-0.469818115234375,0.165557861328125,-0.68389892578125,-0.3662109375,0.18310546875,0.244140625,0.46533203125,-0.72802734375,0.50390625,-246.0,190.0,-130.0,102367.0,-8.641000747680664,0,0
1193.2700239999203,0.532989501953125,-0.469818115234375,0.165557861328125,-0.68389892578125,-0.3662109375,0.18310546875,0.244140625,0.46533203125,-0.72802734375,0.50390625,-246.0,190.0,-130.0,102367.0,-8.641000747680664,0,0
1193.2849959999205,0.532989501953125,-0.469818115234375,0.165557861328125,-0.68389892578125,0.0,0.1220703125,0.18310546875,0.467529296875,-0.728271484375,0.50537109375,-246.0,190.0,-130.0,102367.0,-8.640000343322754,0,0
1193.2899919999204,0.532989501953125,-0.46978759765625,0.165557861328125,-0.68389892578125,-0.244140625,-0.06103515625,0.1220703125,0.4664306640625,-0.727294921875,0.5059814453125,-247.0,190.0,-130.0,102367.0,-8.640000343322754,0,0
1193.2949929999204,0.5333251953125,-0.469879150390625,0.16534423828125,-0.683685302734375,0.18310546875,0.244140625,-0.06103515625,0.4652099609375,-0.727294921875,0.5050048828125,-247.0,190.0,-130.0,102367.0,-8.640000343322754,0,0
1193.2999929999205,0.5333251953125,-0.469879150390625,0.16534423828125,-0.68365478515625,0.06103515625,0.244140625,-0.244140625,0.4654541015625,-0.7271728515625,0.5030517578125,-247.0,190.0,-130.0,102367.0,-8.640000343322754,0,0
1193.3049939999205,0.5333251953125,-0.469879150390625,0.16534423828125,-0.683685302734375,-0.06103515625,0.0,-0.18310546875,0.4642333984375,-0.7259521484375,0.5045166015625,-247.0,190.0,-130.0,102367.0,-8.640000343322754,0,0
1193.3099959999206,0.5333251953125,-0.4698486328125,0.16534423828125,-0.683685302734375,0.0,0.1220703125,0.1220703125,0.466796875,-0.7276611328125,0.5047607421875,-247.0,190.0,-130.0,102367.0,-8.640000343322754,0,0
1193.3149929999206,0.5333251953125,-0.4698486328125,0.16534423828125,-0.683685302734375,-0.06103515625,0.06103515625,-0.06103515625,0.4647216796875,-0.726318359375,0.506103515625,-247.0,190.0,-130.0,102367.0,-8.640000343322754,0,0
1193.3199929999207,0.5333251953125,-0.4698486328125,0.16534423828125,-0.683685302734375,0.0,-0.06103515625,0.0,0.4654541015625,-0.727294921875,0.504150390625,-247.0,190.0,-130.0,102367.0,-8.640000343322754,0,0
1193.3249939999207,0.5333251953125,-0.4698486328125,0.16534423828125,-0.683685302734375,-0.18310546875,-0.06103515625,-0.06103515625,0.4649658203125,-0.7252197265625,0.504150390625,-247.0,190.0,-130.0,102367.0,-8.640000343322754,0,0
1193.3299949999207,0.5333251953125,-0.4698486328125,0.16534423828125,-0.683685302734375,-0.18310546875,0.0,0.0,0.4654541015625,-0.729248046875,0.50390625,-247.0,190.0,-130.0,102367.0,-8.640000343322754,0,0
1193.3349959999207,0.5333251953125,-0.4698486328125,0.16534423828125,-0.683685302734375,0.06103515625,0.18310546875,0.06103515625,0.466796875,-0.7265625,0.505859375,-247.0,190.0,-130.0,102367.0,-8.640000343322754,0,0
1193.3390219999208,0.5333251953125,-0.4698486328125,0.16534423828125,-0.683685302734375,0.06103515625,0.18310546875,0.06103515625,0.466796875,-0.7265625,0.505859375,-247.0,190.0,-130.0,102367.0,-8.640000343322754,0,0
1193.3439919999207,0.5333251953125,-0.469818115234375,0.16534423828125,-0.683685302734375,0.06103515625,0.06103515625,0.0,0.4625244140625,-0.7259521484375,0.5050048828125,-247.0,190.0,-130.0,102367.0,-8.640000343322754,0,0
1193.3489929999207,0.5333251953125,-0.469818115234375,0.16534423828125,-0.683685302734375,0.06103515625,0.06103515625,0.0,0.4669189453125,-0.7249755859375,0.504638671875,-247.0,190.0,-130.0,102367.0,-8.640000343322754,0,0
1193.3539929999208,0.5333251953125,-0.469818115234375,0.16534423828125,-0.683685302734375,-0.18310546875,0.18310546875,0.0,0.463623046875,-0.7266845703125,0.504638671875,-247.0,190.0,-130.0,102367.0,-8.640000343322754,0,0
1193.3589939999208,0.5333251953125,-0.469818115234375,0.16534423828125,-0.683685302734375,0.0,0.0,0.0,0.466552734375,-0.7266845703125,0.5045166015625,-247.0,190.0,-130.0,102367.0,-8.640000343322754,0,0
1193.363995999921,0.5333251953125,-0.469818115234375,0.16534423828125,-0.683685302734375,-0.06103515625,0.244140625,0.06103515625,0.4658203125,-0.72802734375,0.5047607421875,-247.0,190.0,-130.0,102367.0,-8.640000343322754,0,0
1193.368992999921,0.533355712890625,-0.469818115234375,0.16534423828125,-0.683685302734375,-0.06103515625,0.1220703125,0.06103515625,0.46484375,-0.7266845703125,0.5050048828125,-247.0,190.0,-130.0,102367.0,-8.640000343322754,0,0
1193.373992999921,0.533355712890625,-0.469818115234375,0.16534423828125,-0.683685302734375,0.06103515625,0.18310546875,-0.1220703125,0.466064453125,-0.728515625,0.5048828125,-247.0,190.0,-130.0,102367.0,-8.640000343322754,0,0
1193.378993999921,0.533355712890625,-0.46978759765625,0.16534423828125,-0.683685302734375,0.1220703125,0.18310546875,0.0,0.4644775390625,-0.7271728515625,0.506103515625,-247.0,190.0,-130.0,102367.0,-8.640000343322754,0,0
1193.383994999921,0.533355712890625,-0.46978759765625,0.16534423828125,-0.683685302734375,0.18310546875,0.18310546875,-0.18310546875,0.4671630859375,-0.72900390625,0.5047607421875,-247.0,190.0,-130.0,102367.0,-8.641000747680664,0,0
1193.388995999921,0.533355712890625,-0.46978759765625,0.16534423828125,-0.683685302734375,0.0,0.06103515625,-0.1220703125,0.46728515625,-0.727783203125,0.505859375,-247.0,190.0,-130.0,102367.0,-8.641000747680664,0,0
1193.393992999921,0.533355712890625,-0.46978759765625,0.16534423828125,-0.6837158203125,-0.3662109375,-0.1220703125,-0.1220703125,0.4656982421875,-0.727294921875,0.50537109375,-246.0,190.0,-130.0,102367.0,-8.641000747680664,0,0
1193.4079929999211,0.533355712890625,-0.46978759765625,0.165313720703125,-0.6837158203125,0.0,0.18310546875,-0.18310546875,0.46484375,-0.7261962890625,0.5032958984375,-246.0,190.0,-130.0,102367.0,-8.641000747680664,0,0
1193.4129939999211,0.533355712890625,-0.46978759765625,0.165313720703125,-0.6837158203125,-0.42724609375,0.18310546875,0.0,0.4669189453125,-0.7274169921875,0.5048828125,-246.0,190.0,-130.0,102367.0,-8.641000747680664,0,0
1193.4179959999212,0.533355712890625,-0.46978759765625,0.165313720703125,-0.6837158203125,0.0,0.1220703125,0.06103515625,0.4656982421875,-0.727294921875,0.5050048828125,-246.0,190.0,-130.0,102367.0,-8.641000747680664,0,0
1193.4229929999212,0.533355712890625,-0.46978759765625,0.165313720703125,-0.6837158203125,0.3662109375,0.06103515625,-0.06103515625,0.4654541015625,-0.725830078125,0.505615234375,-246.0,190.0,-130.0,102367.0,-8.641000747680664,0,0
1193.4279929999213,0.533355712890625,-0.46978759765625,0.165313720703125,-0.6837158203125,-0.18310546875,0.244140625,-0.1220703125,0.4659423828125,-0.7265625,0.5037841796875,-246.0,190.0,-130.0,102367.0,-8.641000747680664,0,0
1193.4329949999214,0.533355712890625,-0.469757080078125,0.165313720703125,-0.6837158203125,0.06103515625,0.30517578125,0.1220703125,0.466552734375,-0.728271484375,0.505859375,-246.0,190.0,-130.0,102367.0,-8.641000747680664,0,0
1193.4379969999216,0.533355712890625,-0.469757080078125,0.165313720703125,-0.6837158203125,-0.1220703125,0.18310546875,-0.1220703125,0.4666748046875,-0.7261962890625,0.5072021484375,-246.0,190.0,-130.0,102367.0,-8.641000747680664,0,0
1193.4429959999215,0.533355712890625,-0.469757080078125,0.165313720703125,-0.6837158203125,-0.30517578125,-0.18310546875,0.1220703125,0.4678955078125,-0.7288818359375,0.5045166015625,-246.0,190.0,-130.0,102367.0,-8.641000747680664,0,0
1193.4479939999214,0.533355712890625,-0.469757080078125,0.165313720703125,-0.6837158203125,-0.06103515625,0.30517578125,-0.06103515625,0.4644775390625,-0.7279052734375,0.504638671875,-246.0,190.0,-130.0,102367.0,-8.641000747680664,0,0
1193.4529939999215,0.533355712890625,-0.469757080078125,0.165313720703125,-0.6837158203125,-0.1220703125,0.18310546875,-0.244140625,0.46533203125,-0.725830078125,0.5035400390625,-246.0,190.0,-130.0,102367.0,-8.641000747680664,0,0
1193.4579939999217,0.533355712890625,-0.469757080078125,0.165313720703125,-0.6837158203125,-0.18310546875,0.06103515625,-0.18310546875,0.465576171875,-0.7259521484375,0.5052490234375,-246.0,190.0,-130.0,102367.0,-8.641000747680664,0,0
1193.4720239999217,0.533355712890625,-0.469757080078125,0.165313720703125,-0.6837158203125,-0.06103515625,0.06103515625,0.0,0.466796875,-0.728759765625,0.5045166015625,-246.0,190.0,-130.0,102367.0,-8.641000747680664,0,0
1193.4769979999217,0.533355712890625,-0.4697265625,0.165313720703125,-0.6837158203125,0.0,0.18310546875,-0.1220703125,0.4649658203125,-0.7264404296875,0.50390625,-246.0,190.0,-130.0,102367.0,-8.641000747680664,0,0
1193.4819939999215,0.533355712890625,-0.4697265625,0.165313720703125,-0.6837158203125,-0.06103515625,0.244140625,0.06103515625,0.46533203125,-0.728271484375,0.5037841796875,-246.0,190.0,-130.0,102367.0,-8.641000747680664,0,0
1193.4869949999215,0.533355712890625,-0.4697265625,0.165313720703125,-0.6837158203125,-0.06103515625,0.244140625,0.06103515625,0.46533203125,-0.728271484375,0.5037841796875,-246.0,190.0,-130.0,102367.0,-8.638999938964844,0,0
1193.4919969999216,0.533538818359375,-0.469757080078125,0.165191650390625,-0.68359375,-0.1220703125,-0.06103515625,0.06103515625,0.4676513671875,-0.726318359375,0.507080078125,-247.0,190.0,-131.0,102367.0,-8.638999938964844,0,0
1193.4969959999216,0.533538818359375,-0.469757080078125,0.165191650390625,-0.683624267578125,-0.1220703125,-0.06103515625,0.0,0.4681396484375,-0.7266845703125,0.5057373046875,-247.0,190.0,-131.0,102367.0,-8.638999938964844,0,0
1193.5019929999216,0.533538818359375,-0.469757080078125,0.165191650390625,-0.683624267578125,0.18310546875,0.1220703125,0.06103515625,0.466064453125,-0.7261962890625,0.50634765625,-247.0,190.0,-131.0,102367.0,-8.638999938964844,0,0
1193.5069929999217,0.533538818359375,-0.469757080078125,0.165191650390625,-0.683624267578125,-0.3662109375,-0.1220703125,0.06103515625,0.467529296875,-0.7275390625,0.5050048828125,-247.0,190.0,-131.0,102367.0,-8.638999938964844,0,0
1193.5119939999217,0.533538818359375,-0.469757080078125,0.165191650390625,-0.683624267578125,0.1220703125,0.18310546875,0.1220703125,0.46630859375,-0.726318359375,0.5045166015625,-247.0,190.0,-131.0,102367.0,-8.638999938964844,0,0
1193.5169959999218,0.533538818359375,-0.469757080078125,0.165191650390625,-0.683624267578125,-0.244140625,0.0,0.18310546875,0.46728515625,-0.7265625,0.5050048828125,-247.0,190.0,-131.0,102367.0,-8.638999938964844,0,0
1193.5219929999218,0.53350830078125,-0.469757080078125,0.165191650390625,-0.683624267578125,0.0,0.244140625,-0.1220703125,0.466796875,-0.7269287109375,0.5042724609375,-247.0,190.0,-131.0,102367.0,-8.638999938964844,0,0
1193.526992999922,0.533538818359375,-0.469757080078125,0.165191650390625,-0.683624267578125,-0.1220703125,0.244140625,-0.18310546875,0.4656982421875,-0.7271728515625,0.505615234375,-247.0,190.0,-131.0,102367.0,-8.638999938964844,0,0
1193.531993999922,0.533538818359375,-0.469757080078125,0.165191650390625,-0.683624267578125,0.0,0.0,0.0,0.466552734375,-0.7261962890625,0.504150390625,-247.0,190.0,-131.0,102367.0,-8.638999938964844,0,0
1193.536022999922,0.533538818359375,-0.469757080078125,0.165191650390625,-0.683624267578125,0.0,0.0,0.0,0.466552734375,-0.7261962890625,0.504150390625,-247.0,190.0,-131.0,102367.0,-8.638999938964844,0,0
1193.540993999922,0.533538818359375,-0.469757080078125,0.165191650390625,-0.683624267578125,0.0,0.30517578125,0.18310546875,0.465087890625,-0.7271728515625,0.5042724609375,-247.0,190.0,-131.0,102367.0,-8.638999938964844,0,0
1193.545994999922,0.533538818359375,-0.469757080078125,0.165191650390625,-0.683624267578125,-0.244140625,-0.1220703125,0.06103515625,0.4659423828125,-0.7264404296875,0.5057373046875,-247.0,190.0,-131.0,102367.0,-8.638999938964844,0,0
1193.550995999922,0.533538818359375,-0.469757080078125,0.165191650390625,-0.683624267578125,-0.3662109375,-0.1220703125,-0.1220703125,0.46533203125,-0.7275390625,0.505859375,-247.0,190.0,-131.0,102367.0,-8.638999938964844,0,0
1193.555992999922,0.533538818359375,-0.469757080078125,0.165191650390625,-0.683624267578125,-0.18310546875,0.06103515625,0.0,0.4649658203125,-0.7274169921875,0.5030517578125,-247.0,190.0,-131.0,102367.0,-8.638999938964844,0,0
1193.560992999922,0.533538818359375,-0.4697265625,0.165191650390625,-0.683624267578125,-0.18310546875,0.1220703125,0.18310546875,0.465576171875,-0.7261962890625,0.5047607421875,-247.0,190.0,-131.0,102367.0,-8.638999938964844,0,0
1193.565993999922,0.533538818359375,-0.4697265625,0.165191650390625,-0.683624267578125,0.30517578125,-0.06103515625,-0.1220703125,0.4661865234375,-0.725830078125,0.504638671875,-247.0,190.0,-131.0,102367.0,-8.638999938964844,0,0
1193.5709959999222,0.533538818359375,-0.4697265625,0.165191650390625,-0.683624267578125,-0.06103515625,0.18310546875,0.244140625,0.4654541015625,-0.7265625,0.5045166015625,-247.0,190.0,-131.0,102367.0,-8.638999938964844,0,0
1193.5759929999222,0.533538818359375,-0.4697265625,0.165191650390625,-0.683624267578125,0.30517578125,0.3662109375,-0.18310546875,0.4674072265625,-0.7269287109375,0.5064697265625,-247.0,190.0,-131.0,102367.0,-8.638999938964844,0,0
1193.5809929999223,0.533538818359375,-0.4697265625,0.165191650390625,-0.683624267578125,-0.06103515625,0.06103515625,0.1220703125,0.4661865234375,-0.7271728515625,0.506103515625,-247.0,190.0,-131.0,102367.0,-8.638999938964844,0,0
1193.5959919999223,0.533538818359375,-0.4697265625,0.1651611328125,-0.683624267578125,-0.1220703125,0.42724609375,0.0,0.465576171875,-0.724365234375,0.504150390625,-247.0,189.0,-132.0,102367.0,-8.643000602722168,0,0
1193.6009929999223,0.533538818359375,-0.4697265625,0.1651611328125,-0.683624267578125,-0.06103515625,0.1220703125,-0.06103515625,0.4664306640625,-0.725341796875,0.505859375,-247.0,189.0,-132.0,102367.0,-8.643000602722168,0,0
1193.6050219999222,0.533538818359375,-0.4697265625,0.1651611328125,-0.683624267578125,-0.06103515625,0.1220703125,-0.06103515625,0.4664306640625,-0.725341796875,0.505859375,-247.0,189.0,-132.0,102367.0,-8.643000602722168,0,0
1193.6099929999223,0.533538818359375,-0.4697265625,0.1651611328125,-0.68365478515625,-0.06103515625,0.18310546875,0.06103515625,0.4659423828125,-0.7265625,0.50439453125,-247.0,189.0,-132.0,102367.0,-8.643000602722168,0,0
1193.6149929999224,0.533538818359375,-0.4697265625,0.1651611328125,-0.68365478515625,-0.06103515625,0.244140625,-0.1220703125,0.4658203125,-0.7271728515625,0.5037841796875,-247.0,189.0,-132.0,102367.0,-8.643000602722168,0,0
1193.6199939999224,0.533538818359375,-0.4697265625,0.1651611328125,-0.68365478515625,0.244140625,-0.18310546875,-0.18310546875,0.46826171875,-0.7293701171875,0.5050048828125,-247.0,189.0,-132.0,102367.0,-8.643000602722168,0,0
1193.6249959999225,0.533538818359375,-0.4697265625,0.1651611328125,-0.68365478515625,-0.06103515625,-0.1220703125,0.06103515625,0.46630859375,-0.7259521484375,0.5052490234375,-247.0,189.0,-132.0,102367.0,-8.643000602722168,0,0
1193.6299929999225,0.533538818359375,-0.4697265625,0.1651611328125,-0.68365478515625,0.0,0.18310546875,-0.06103515625,0.46484375,-0.7255859375,0.5028076171875,-247.0,189.0,-132.0,102367.0,-8.643000602722168,0,0
1193.6349929999226,0.533538818359375,-0.4697265625,0.1651611328125,-0.68365478515625,-0.244140625,0.244140625,0.0,0.4661865234375,-0.7271728515625,0.502685546875,-247.0,189.0,-132.0,102367.0,-8.643000602722168,0,0
1193.6399939999226,0.533538818359375,-0.4697265625,0.1651611328125,-0.68365478515625,-0.18310546875,0.244140625,-0.18310546875,0.4652099609375,-0.7266845703125,0.5047607421875,-247.0,189.0,-132.0,102367.0,-8.643000602722168,0,0
1193.6549939999227,0.533538818359375,-0.4697265625,0.1651611328125,-0.68365478515625,0.18310546875,0.30517578125,0.06103515625,0.46630859375,-0.7269287109375,0.5047607421875,-247.0,189.0,-132.0,102367.0,-8.643000602722168,0,0
1193.6599939999228,0.533538818359375,-0.4697265625,0.1651611328125,-0.68365478515625,-0.06103515625,0.1220703125,0.1220703125,0.467041015625,-0.7276611328125,0.5035400390625,-247.0,189.0,-132.0,102367.0,-8.643000602722168,0,0
1193.664993999923,0.533538818359375,-0.4697265625,0.1651611328125,-0.68365478515625,0.18310546875,0.244140625,-0.06103515625,0.4666748046875,-0.7261962890625,0.50244140625,-247.0,189.0,-132.0,102367.0,-8.643000602722168,0,0
1193.669025999923,0.533538818359375,-0.4697265625,0.1651611328125,-0.68365478515625,0.18310546875,0.244140625,-0.06103515625,0.4666748046875,-0.7261962890625,0.50244140625,-247.0,189.0,-132.0,102367.0,-8.643000602722168,0,0
1193.673993999923,0.533538818359375,-0.4697265625,0.1651611328125,-0.68365478515625,-0.42724609375,0.1220703125,-0.1220703125,0.465087890625,-0.7269287109375,0.5029296875,-247.0,189.0,-132.0,102367.0,-8.643000602722168,0,0
1193.678996999923,0.533538818359375,-0.4697265625,0.1651611328125,-0.68365478515625,0.06103515625,0.3662109375,0.1220703125,0.4664306640625,-0.72900390625,0.5052490234375,-247.0,189.0,-132.0,102367.0,-8.643000602722168,0,0
1193.683993999923,0.533538818359375,-0.4697265625,0.1651611328125,-0.68365478515625,0.1220703125,0.18310546875,-0.1220703125,0.4674072265625,-0.725830078125,0.50439453125,-247.0,189.0,-132.0,102367.0,-8.643000602722168,0,0
1193.688993999923,0.533538818359375,-0.4697265625,0.1651611328125,-0.68365478515625,0.1220703125,0.18310546875,-0.1220703125,0.4674072265625,-0.725830078125,0.50439453125,-247.0,190.0,-134.0,102367.0,-8.643000602722168,0,0
1193.693994999923,0.533233642578125,-0.469635009765625,0.165374755859375,-0.68389892578125,0.0,0.0,-0.1220703125,0.4656982421875,-0.7265625,0.505859375,-247.0,190.0,-134.0,102367.0,-8.643000602722168,0,0
1193.698996999923,0.533233642578125,-0.469635009765625,0.165374755859375,-0.68389892578125,-0.1220703125,0.0,-0.06103515625,0.4654541015625,-0.7261962890625,0.5042724609375,-247.0,190.0,-134.0,102367.0,-8.643000602722168,0,0
1193.7039969999232,0.533233642578125,-0.469635009765625,0.165374755859375,-0.68389892578125,-0.30517578125,0.18310546875,0.0,0.4674072265625,-0.7281494140625,0.5035400390625,-247.0,190.0,-134.0,102367.0,-8.643000602722168,0,0
1193.7089939999232,0.533233642578125,-0.469635009765625,0.165374755859375,-0.68389892578125,0.18310546875,0.18310546875,-0.06103515625,0.4669189453125,-0.728515625,0.5045166015625,-247.0,190.0,-134.0,102367.0,-8.643000602722168,0,0
1193.7139929999232,0.533233642578125,-0.469635009765625,0.165374755859375,-0.68389892578125,0.06103515625,0.1220703125,0.0,0.4644775390625,-0.7275390625,0.5030517578125,-247.0,190.0,-134.0,102367.0,-8.643000602722168,0,0
1193.7189939999232,0.533233642578125,-0.469635009765625,0.165374755859375,-0.68389892578125,0.244140625,0.1220703125,0.0,0.465087890625,-0.7257080078125,0.502685546875,-247.0,190.0,-134.0,102367.0,-8.643000602722168,0,0
1193.7239959999233,0.533233642578125,-0.469635009765625,0.165374755859375,-0.68389892578125,-0.1220703125,0.1220703125,-0.06103515625,0.4652099609375,-0.7275390625,0.5040283203125,-247.0,190.0,-134.0,102367.0,-8.643000602722168,0,0
1193.7289929999233,0.533233642578125,-0.469635009765625,0.165374755859375,-0.68389892578125,-0.06103515625,0.30517578125,-0.1220703125,0.4674072265625,-0.728515625,0.5030517578125,-247.0,190.0,-134.0,102367.0,-8.643000602722168,0,0
1193.7339929999234,0.533233642578125,-0.469635009765625,0.165374755859375,-0.68389892578125,-0.1220703125,0.244140625,-0.244140625,0.466796875,-0.7264404296875,0.503173828125,-247.0,190.0,-134.0,102367.0,-8.643000602722168,0,0
1193.7380219999234,0.533233642578125,-0.469635009765625,0.165374755859375,-0.68389892578125,-0.1220703125,0.244140625,-0.244140625,0.466796875,-0.7264404296875,0.503173828125,-247.0,190.0,-134.0,102367.0,-8.643000602722168,0,0
1193.7429929999234,0.533203125,-0.46966552734375,0.165374755859375,-0.68389892578125,-0.18310546875,-0.06103515625,-0.06103515625,0.467041015625,-0.72607421875,0.5020751953125,-247.0,190.0,-134.0,102367.0,-8.638999938964844,0,0
1193.7479939999234,0.533203125,-0.46966552734375,0.165374755859375,-0.683868408203125,-0.18310546875,0.0,-0.06103515625,0.466552734375,-0.728271484375,0.50390625,-247.0,190.0,-134.0,102367.0,-8.638999938964844,0,0
1193.7529949999234,0.533203125,-0.46966552734375,0.165374755859375,-0.68389892578125,0.244140625,0.0,0.0,0.4664306640625,-0.7288818359375,0.5028076171875,-247.0,190.0,-134.0,102367.0,-8.638999938964844,0,0
1193.7579919999234,0.533203125,-0.46966552734375,0.165374755859375,-0.68389892578125,-0.1220703125,0.0,0.06103515625,0.46923828125,-0.7252197265625,0.50390625,-247.0,190.0,-134.0,102367.0,-8.638999938964844,0,0
1193.7629929999234,0.533203125,-0.46966552734375,0.165374755859375,-0.683868408203125,0.0,-0.06103515625,-0.18310546875,0.466064453125,-0.7271728515625,0.503173828125,-247.0,190.0,-134.0,102367.0,-8.638999938964844,0,0
1193.7779959999236,0.533203125,-0.469696044921875,0.165374755859375,-0.683868408203125,0.18310546875,0.3662109375,-0.06103515625,0.466064453125,-0.72509765625,0.501708984375,-247.0,190.0,-134.0,102367.0,-8.638999938964844,0,0
1193.7829929999236,0.533203125,-0.469696044921875,0.165374755859375,-0.683868408203125,-0.06103515625,0.244140625,-0.1220703125,0.46630859375,-0.7266845703125,0.50390625,-247.0,190.0,-134.0,102367.0,-8.638999938964844,0,0
1193.7879929999237,0.533203125,-0.469696044921875,0.165374755859375,-0.683868408203125,0.0,0.1220703125,0.1220703125,0.466796875,-0.72607421875,0.504150390625,-248.0,189.0,-134.0,102367.0,-8.638999938964844,0,0
1193.7929939999237,0.533203125,-0.469696044921875,0.16534423828125,-0.683868408203125,-0.3662109375,0.1220703125,-0.06103515625,0.46728515625,-0.7276611328125,0.503662109375,-248.0,189.0,-134.0,102367.0,-8.638999938964844,0,0
1193.7979949999237,0.532745361328125,-0.469573974609375,0.165679931640625,-0.684234619140625,-0.30517578125,0.06103515625,-0.06103515625,0.4638671875,-0.726318359375,0.5028076171875,-248.0,189.0,-134.0,102367.0,-8.638999938964844,0,0
1193.8020239999237,0.532745361328125,-0.469573974609375,0.165679931640625,-0.684234619140625,-0.30517578125,0.06103515625,-0.06103515625,0.4638671875,-0.726318359375,0.5028076171875,-248.0,189.0,-134.0,102367.0,-8.638999938964844,0,0
1193.8069959999236,0.532745361328125,-0.469573974609375,0.165679931640625,-0.684234619140625,0.06103515625,0.244140625,0.06103515625,0.4659423828125,-0.724853515625,0.5037841796875,-248.0,189.0,-134.0,102367.0,-8.638999938964844,0,0
1193.8119919999235,0.532745361328125,-0.469573974609375,0.165679931640625,-0.684234619140625,-0.06103515625,0.1220703125,-0.06103515625,0.465087890625,-0.7259521484375,0.5047607421875,-248.0,189.0,-134.0,102367.0,-8.638999938964844,0,0
1193.8169929999235,0.532745361328125,-0.469573974609375,0.165679931640625,-0.684234619140625,-0.06103515625,-0.06103515625,-0.06103515625,0.466796875,-0.7254638671875,0.5023193359375,-248.0,189.0,-134.0,102367.0,-8.638999938964844,0,0
1193.8219929999236,0.532745361328125,-0.469573974609375,0.165679931640625,-0.684234619140625,-0.1220703125,-0.06103515625,-0.1220703125,0.465576171875,-0.726806640625,0.50439453125,-248.0,189.0,-134.0,102367.0,-8.638999938964844,0,0
1193.8269939999236,0.532745361328125,-0.469573974609375,0.165679931640625,-0.684234619140625,-0.18310546875,-0.1220703125,-0.06103515625,0.466796875,-0.726806640625,0.501953125,-248.0,189.0,-134.0,102367.0,-8.638999938964844,0,0
1193.8419929999238,0.532745361328125,-0.4696044921875,0.165679931640625,-0.684234619140625,-0.06103515625,0.0,0.06103515625,0.464599609375,-0.7265625,0.5008544921875,-248.0,189.0,-134.0,102367.0,-8.641000747680664,0,0
1193.8469939999238,0.532745361328125,-0.4696044921875,0.165679931640625,-0.684234619140625,0.42724609375,0.30517578125,-0.1220703125,0.4666748046875,-0.726318359375,0.5035400390625,-248.0,189.0,-134.0,102367.0,-8.641000747680664,0,0
1193.8519949999238,0.532745361328125,-0.4696044921875,0.165679931640625,-0.684234619140625,-0.18310546875,0.18310546875,0.06103515625,0.466796875,-0.7254638671875,0.50390625,-248.0,189.0,-134.0,102367.0,-8.641000747680664,0,0
1193.8569959999238,0.53271484375,-0.4696044921875,0.165679931640625,-0.684234619140625,0.0,0.1220703125,-0.18310546875,0.46484375,-0.7269287109375,0.5015869140625,-248.0,189.0,-134.0,102367.0,-8.641000747680664,0,0
1193.8619939999237,0.53271484375,-0.4696044921875,0.165679931640625,-0.684234619140625,0.1220703125,0.1220703125,0.0,0.466796875,-0.7281494140625,0.5028076171875,-248.0,189.0,-134.0,102367.0,-8.641000747680664,0,0
1193.8669939999238,0.53271484375,-0.4696044921875,0.165679931640625,-0.684234619140625,-0.18310546875,-0.1220703125,0.06103515625,0.46728515625,-0.7276611328125,0.504150390625,-248.0,189.0,-134.0,102367.0,-8.641000747680664,0,0
1193.8710239999239,0.53271484375,-0.4696044921875,0.165679931640625,-0.684234619140625,-0.18310546875,-0.1220703125,0.06103515625,0.46728515625,-0.7276611328125,0.504150390625,-248.0,189.0,-134.0,102367.0,-8.641000747680664,0,0
1193.8759939999238,0.53271484375,-0.4696044921875,0.165679931640625,-0.684234619140625,0.06103515625,0.18310546875,0.06103515625,0.4676513671875,-0.7266845703125,0.50390625,-248.0,189.0,-134.0,102367.0,-8.641000747680664,0,0
1193.880993999924,0.53271484375,-0.4696044921875,0.165679931640625,-0.684234619140625,-0.18310546875,0.1220703125,-0.42724609375,0.4666748046875,-0.72705078125,0.504150390625,-248.0,189.0,-134.0,102367.0,-8.641000747680664,0,0
1193.885996999924,0.53271484375,-0.4696044921875,0.165679931640625,-0.684234619140625,0.06103515625,0.18310546875,0.0,0.466064453125,-0.7265625,0.5030517578125,-248.0,189.0,-134.0,102367.0,-8.641000747680664,0,0
1193.890993999924,0.53271484375,-0.4696044921875,0.165679931640625,-0.684234619140625,-0.30517578125,0.1220703125,0.0,0.46630859375,-0.7255859375,0.5035400390625,-248.0,189.0,-135.0,102367.0,-8.641000747680664,0,0
1193.895993999924,0.532257080078125,-0.469482421875,0.165985107421875,-0.684600830078125,-0.1220703125,0.0,-0.06103515625,0.4658203125,-0.7244873046875,0.504150390625,-248.0,189.0,-135.0,102367.0,-8.641000747680664,0,0
1193.900994999924,0.532257080078125,-0.469482421875,0.165985107421875,-0.684600830078125,0.0,0.06103515625,-0.06103515625,0.4661865234375,-0.7244873046875,0.5028076171875,-248.0,189.0,-135.0,102367.0,-8.641000747680664,0,0
1193.9059969999241,0.532257080078125,-0.469482421875,0.165985107421875,-0.684600830078125,-0.1220703125,0.1220703125,0.18310546875,0.4639892578125,-0.724609375,0.5040283203125,-248.0,189.0,-135.0,102367.0,-8.641000747680664,0,0
1193.9109969999242,0.532257080078125,-0.469482421875,0.165985107421875,-0.684600830078125,0.18310546875,0.18310546875,0.06103515625,0.466796875,-0.7257080078125,0.503173828125,-248.0,189.0,-135.0,102367.0,-8.641000747680664,0,0
1193.9159939999242,0.532257080078125,-0.469482421875,0.165985107421875,-0.684600830078125,-0.42724609375,0.0,-0.244140625,0.4659423828125,-0.7249755859375,0.5025634765625,-248.0,189.0,-135.0,102367.0,-8.641000747680664,0,0
1193.9209939999243,0.532257080078125,-0.469482421875,0.165985107421875,-0.684600830078125,-0.06103515625,-0.06103515625,0.18310546875,0.4644775390625,-0.726806640625,0.5040283203125,-248.0,189.0,-135.0,102367.0,-8.641000747680664,0,0
1193.9259939999245,0.532257080078125,-0.469512939453125,0.165985107421875,-0.684600830078125,0.42724609375,0.06103515625,0.06103515625,0.468017578125,-0.7276611328125,0.5032958984375,-248.0,189.0,-135.0,102367.0,-8.641000747680664,0,0
1193.9309959999246,0.532257080078125,-0.469512939453125,0.165985107421875,-0.684600830078125,-0.3662109375,0.244140625,0.18310546875,0.467529296875,-0.728271484375,0.5045166015625,-248.0,189.0,-135.0,102367.0,-8.641000747680664,0,0
1193.9350279999246,0.532257080078125,-0.469512939453125,0.165985107421875,-0.684600830078125,-0.3662109375,0.244140625,0.18310546875,0.467529296875,-0.728271484375,0.5045166015625,-248.0,189.0,-135.0,102367.0,-8.641000747680664,0,0
1193.9399959999246,0.532257080078125,-0.469512939453125,0.165985107421875,-0.6845703125,0.48828125,0.244140625,0.18310546875,0.465576171875,-0.72705078125,0.5029296875,-248.0,189.0,-135.0,102367.0,-8.638999938964844,0,0
1193.9449929999246,0.532257080078125,-0.469512939453125,0.165985107421875,-0.6845703125,-0.1220703125,0.06103515625,0.18310546875,0.4683837890625,-0.7276611328125,0.5028076171875,-248.0,189.0,-135.0,102367.0,-8.638999938964844,0,0
1193.9499929999247,0.532257080078125,-0.469512939453125,0.165985107421875,-0.6845703125,-0.18310546875,0.1220703125,0.1220703125,0.4654541015625,-0.7274169921875,0.5032958984375,-248.0,189.0,-135.0,102367.0,-8.638999938964844,0,0
1193.9649959999247,0.532257080078125,-0.469512939453125,0.165985107421875,-0.6845703125,-0.18310546875,0.06103515625,-0.06103515625,0.4676513671875,-0.72802734375,0.5020751953125,-248.0,189.0,-135.0,102367.0,-8.638999938964844,0,0
1193.9699929999247,0.532257080078125,-0.469512939453125,0.166015625,-0.6845703125,0.1220703125,0.0,-0.1220703125,0.463623046875,-0.726318359375,0.503173828125,-248.0,189.0,-135.0,102367.0,-8.638999938964844,0,0
1193.9749929999248,0.532257080078125,-0.469512939453125,0.166015625,-0.6845703125,0.0,0.244140625,-0.1220703125,0.4644775390625,-0.7257080078125,0.5032958984375,-248.0,189.0,-135.0,102367.0,-8.638999938964844,0,0
1193.9799939999248,0.532257080078125,-0.469512939453125,0.166015625,-0.6845703125,-0.1220703125,0.06103515625,0.0,0.4644775390625,-0.728759765625,0.50390625,-248.0,189.0,-135.0,102367.0,-8.638999938964844,0,0
1193.9849959999249,0.532257080078125,-0.469512939453125,0.166015625,-0.6845703125,0.06103515625,0.244140625,0.1220703125,0.4642333984375,-0.7291259765625,0.503662109375,-248.0,189.0,-135.0,102367.0,-8.638999938964844,0,0
1193.9899929999249,0.532257080078125,-0.469512939453125,0.166015625,-0.6845703125,0.06103515625,0.244140625,0.1220703125,0.4642333984375,-0.7291259765625,0.503662109375,-248.0,189.0,-134.0,102367.0,-8.638999938964844,0,0
1193.994992999925,0.5321044921875,-0.469482421875,0.1661376953125,-0.6846923828125,-0.244140625,0.30517578125,-0.1220703125,0.466064453125,-0.7265625,0.5035400390625,-248.0,189.0,-134.0,102367.0,-8.638999938964844,0,0
1193.999993999925,0.5321044921875,-0.469482421875,0.166107177734375,-0.6846923828125,-0.06103515625,0.30517578125,0.0,0.4671630859375,-0.725341796875,0.504150390625,-248.0,189.0,-134.0,102367.0,-8.638999938964844,0,0
1194.004022999925,0.5321044921875,-0.469482421875,0.166107177734375,-0.6846923828125,-0.06103515625,0.30517578125,0.0,0.4671630859375,-0.725341796875,0.504150390625,-248.0,189.0,-134.0,102367.0,-8.638999938964844,0,0
1194.008993999925,0.5321044921875,-0.469482421875,0.166107177734375,-0.6846923828125,-0.18310546875,0.06103515625,0.06103515625,0.4652099609375,-0.7271728515625,0.501953125,-248.0,189.0,-134.0,102367.0,-8.638999938964844,0,0
1194.013994999925,0.5321044921875,-0.469482421875,0.166107177734375,-0.6846923828125,-0.18310546875,0.0,-0.18310546875,0.4688720703125,-0.7276611328125,0.503662109375,-248.0,189.0,-134.0,102367.0,-8.638999938964844,0,0
1194.028992999925,0.5321044921875,-0.469482421875,0.166107177734375,-0.6846923828125,-0.3662109375,0.18310546875,-0.06103515625,0.4659423828125,-0.7254638671875,0.50390625,-248.0,189.0,-134.0,102367.0,-8.638999938964844,0,0
1194.033993999925,0.5321044921875,-0.469482421875,0.166107177734375,-0.6846923828125,0.0,0.18310546875,0.0,0.46875,-0.7261962890625,0.503173828125,-248.0,189.0,-134.0,102367.0,-8.638999938964844,0,0
1194.0389959999252,0.5321044921875,-0.469482421875,0.166107177734375,-0.6846923828125,0.0,0.18310546875,0.0,0.46875,-0.7261962890625,0.503173828125,-248.0,189.0,-134.0,102367.0,-8.638999938964844,0,0
1194.0439929999252,0.5321044921875,-0.469482421875,0.166107177734375,-0.6846923828125,-0.06103515625,0.0,-0.06103515625,0.467041015625,-0.7266845703125,0.501953125,-248.0,189.0,-134.0,102367.0,-8.638999938964844,0,0
1194.0489929999253,0.5321044921875,-0.469482421875,0.166107177734375,-0.6846923828125,0.244140625,0.244140625,-0.244140625,0.4647216796875,-0.727783203125,0.5040283203125,-248.0,189.0,-134.0,102367.0,-8.638999938964844,0,0
1194.0539939999253,0.5321044921875,-0.469482421875,0.166107177734375,-0.6846923828125,-0.30517578125,0.30517578125,0.06103515625,0.4656982421875,-0.725830078125,0.5057373046875,-248.0,189.0,-134.0,102367.0,-8.638999938964844,0,0
1194.0589949999253,0.5321044921875,-0.469482421875,0.166107177734375,-0.6846923828125,-0.1220703125,0.18310546875,0.06103515625,0.466796875,-0.7255859375,0.5045166015625,-248.0,189.0,-134.0,102367.0,-8.638999938964844,0,0
1194.0639919999253,0.5321044921875,-0.469482421875,0.166107177734375,-0.6846923828125,0.06103515625,0.18310546875,-0.1220703125,0.46728515625,-0.7252197265625,0.5025634765625,-248.0,189.0,-134.0,102367.0,-8.638999938964844,0,0
1194.0680209999252,0.5321044921875,-0.469482421875,0.166107177734375,-0.6846923828125,0.06103515625,0.18310546875,-0.1220703125,0.46728515625,-0.7252197265625,0.5025634765625,-248.0,189.0,-134.0,102367.0,-8.638999938964844,0,0
1194.0729969999252,0.5321044921875,-0.469482421875,0.166107177734375,-0.6846923828125,0.0,0.0,-0.244140625,0.464599609375,-0.7264404296875,0.5048828125,-248.0,189.0,-134.0,102367.0,-8.638999938964844,0,0
1194.0779939999252,0.5321044921875,-0.469482421875,0.166107177734375,-0.6846923828125,0.30517578125,0.06103515625,-0.244140625,0.4652099609375,-0.7265625,0.5032958984375,-248.0,189.0,-134.0,102367.0,-8.638999938964844,0,0
1194.0829939999253,0.5321044921875,-0.469482421875,0.16607666015625,-0.684722900390625,0.06103515625,0.0,-0.18310546875,0.465576171875,-0.725341796875,0.504150390625,-248.0,189.0,-134.0,102367.0,-8.638999938964844,0,0
1194.0879939999254,0.5321044921875,-0.469482421875,0.16607666015625,-0.684722900390625,-0.244140625,0.06103515625,-0.1220703125,0.468017578125,-0.72509765625,0.5050048828125,-249.0,188.0,-134.0,102367.0,-8.638999938964844,0,0
1194.0929969999254,0.5321044921875,-0.469482421875,0.16607666015625,-0.684722900390625,-0.06103515625,0.06103515625,0.1220703125,0.4671630859375,-0.725830078125,0.5040283203125,-249.0,188.0,-134.0,102367.0,-8.638999938964844,0,0
1194.0979939999254,0.531646728515625,-0.4693603515625,0.1663818359375,-0.68505859375,0.0,-0.1220703125,-0.1220703125,0.4676513671875,-0.7275390625,0.50390625,-249.0,188.0,-134.0,102367.0,-8.638999938964844,0,0
1194.1029939999255,0.531646728515625,-0.4693603515625,0.1663818359375,-0.68505859375,-0.1220703125,0.06103515625,-0.06103515625,0.467041015625,-0.7255859375,0.503173828125,-249.0,188.0,-134.0,102367.0,-8.638999938964844,0,0
1194.1079949999255,0.531646728515625,-0.4693603515625,0.1663818359375,-0.68505859375,0.06103515625,0.1220703125,0.1220703125,0.464599609375,-0.7269287109375,0.505859375,-249.0,188.0,-134.0,102367.0,-8.638999938964844,0,0
1194.1129969999256,0.531646728515625,-0.4693603515625,0.1663818359375,-0.68505859375,-0.06103515625,-0.06103515625,-0.1220703125,0.4661865234375,-0.7266845703125,0.50341796875,-249.0,188.0,-134.0,102367.0,-8.638999938964844,0,0
1194.1179969999257,0.531646728515625,-0.4693603515625,0.1663818359375,-0.68505859375,0.244140625,-0.06103515625,-0.244140625,0.467041015625,-0.7257080078125,0.5037841796875,-249.0,188.0,-134.0,102367.0,-8.638999938964844,0,0
1194.1229939999257,0.531646728515625,-0.4693603515625,0.1663818359375,-0.68505859375,0.1220703125,0.0,-0.1220703125,0.4658203125,-0.726806640625,0.5028076171875,-249.0,188.0,-134.0,102367.0,-8.638999938964844,0,0
1194.1279939999258,0.531646728515625,-0.4693603515625,0.1663818359375,-0.68505859375,-0.42724609375,0.06103515625,0.18310546875,0.4664306640625,-0.7265625,0.5028076171875,-249.0,188.0,-134.0,102367.0,-8.638999938964844,0,0
1194.1320239999259,0.531646728515625,-0.4693603515625,0.1663818359375,-0.68505859375,-0.42724609375,0.06103515625,0.18310546875,0.4664306640625,-0.7265625,0.5028076171875,-249.0,188.0,-134.0,102367.0,-8.638999938964844,0,0
1194.1369939999258,0.531646728515625,-0.4693603515625,0.1663818359375,-0.68505859375,-0.244140625,0.244140625,0.0,0.465576171875,-0.72607421875,0.5045166015625,-249.0,188.0,-134.0,102367.0,-8.640000343322754,0,0
1194.151992999926,0.531646728515625,-0.4693603515625,0.1663818359375,-0.68505859375,-0.06103515625,0.0,0.0,0.4659423828125,-0.727783203125,0.5054931640625,-249.0,188.0,-134.0,102367.0,-8.640000343322754,0,0
1194.1569929999262,0.531646728515625,-0.4693603515625,0.1663818359375,-0.68505859375,-0.06103515625,0.0,0.0,0.4659423828125,-0.727783203125,0.5054931640625,-249.0,188.0,-134.0,102367.0,-8.640000343322754,0,0
1194.1619939999262,0.531646728515625,-0.4693603515625,0.1663818359375,-0.68505859375,-0.244140625,0.244140625,-0.1220703125,0.465087890625,-0.7249755859375,0.50341796875,-249.0,188.0,-134.0,102367.0,-8.640000343322754,0,0
1194.1669949999261,0.531646728515625,-0.4693603515625,0.1663818359375,-0.68505859375,0.1220703125,0.1220703125,-0.244140625,0.4647216796875,-0.7254638671875,0.503662109375,-249.0,188.0,-134.0,102367.0,-8.640000343322754,0,0
1194.1719919999261,0.531646728515625,-0.4693603515625,0.1663818359375,-0.68505859375,-0.18310546875,0.06103515625,0.0,0.465576171875,-0.7279052734375,0.50341796875,-249.0,188.0,-134.0,102367.0,-8.640000343322754,0,0
1194.1769929999261,0.531646728515625,-0.4693603515625,0.1663818359375,-0.68505859375,-0.06103515625,0.1220703125,0.0,0.464111328125,-0.72607421875,0.505126953125,-249.0,188.0,-134.0,102367.0,-8.640000343322754,0,0
1194.1819929999263,0.531646728515625,-0.4693603515625,0.1663818359375,-0.68505859375,-0.30517578125,-0.1220703125,0.0,0.4654541015625,-0.7271728515625,0.5035400390625,-249.0,188.0,-134.0,102367.0,-8.640000343322754,0,0
1194.1869939999262,0.531646728515625,-0.4693603515625,0.1663818359375,-0.68505859375,-0.18310546875,-0.18310546875,-0.06103515625,0.4681396484375,-0.726806640625,0.5037841796875,-249.0,188.0,-134.0,102367.0,-8.640000343322754,0,0
1194.1919959999263,0.531646728515625,-0.4693603515625,0.1663818359375,-0.68505859375,0.06103515625,-0.1220703125,-0.06103515625,0.4658203125,-0.7259521484375,0.5054931640625,-248.0,188.0,-134.0,102367.0,-8.640000343322754,0,0
1194.1969929999264,0.53118896484375,-0.46923828125,0.16668701171875,-0.6854248046875,0.0,0.30517578125,0.0,0.46484375,-0.724609375,0.505615234375,-248.0,188.0,-134.0,102367.0,-8.640000343322754,0,0
1194.2010219999263,0.53118896484375,-0.46923828125,0.16668701171875,-0.6854248046875,0.0,0.30517578125,0.0,0.46484375,-0.724609375,0.505615234375,-248.0,188.0,-134.0,102367.0,-8.640000343322754,0,0
1194.2159939999265,0.53118896484375,-0.46923828125,0.166717529296875,-0.6854248046875,-0.06103515625,0.18310546875,-0.06103515625,0.4642333984375,-0.727294921875,0.5042724609375,-248.0,188.0,-134.0,102367.0,-8.640000343322754,0,0
1194.2209949999265,0.53118896484375,-0.46923828125,0.166717529296875,-0.6854248046875,-0.06103515625,0.1220703125,0.0,0.46533203125,-0.7286376953125,0.503662109375,-248.0,188.0,-134.0,102367.0,-8.640000343322754,0,0
1194.2259919999265,0.53118896484375,-0.46923828125,0.166717529296875,-0.6854248046875,-0.30517578125,0.0,-0.06103515625,0.4656982421875,-0.7286376953125,0.5010986328125,-248.0,188.0,-134.0,102367.0,-8.640000343322754,0,0
1194.2309929999265,0.53118896484375,-0.46923828125,0.166717529296875,-0.6854248046875,0.18310546875,0.1220703125,0.0,0.466064453125,-0.7281494140625,0.5047607421875,-248.0,188.0,-134.0,102367.0,-8.640000343322754,0,0
1194.2359929999266,0.53118896484375,-0.46923828125,0.166717529296875,-0.6854248046875,-0.244140625,0.06103515625,0.1220703125,0.466796875,-0.72705078125,0.5045166015625,-248.0,188.0,-134.0,102367.0,-8.640000343322754,0,0
1194.2409939999266,0.53118896484375,-0.46923828125,0.166717529296875,-0.6854248046875,-0.18310546875,0.06103515625,0.0,0.4642333984375,-0.726806640625,0.504638671875,-248.0,188.0,-134.0,102367.0,-8.638999938964844,0,0
1194.2459959999267,0.53118896484375,-0.46923828125,0.166717529296875,-0.6854248046875,-0.244140625,-0.06103515625,-0.1220703125,0.4647216796875,-0.7259521484375,0.503662109375,-248.0,188.0,-134.0,102367.0,-8.638999938964844,0,0
1194.2509929999267,0.53118896484375,-0.46923828125,0.166717529296875,-0.6854248046875,-0.06103515625,0.0,-0.244140625,0.4654541015625,-0.724853515625,0.5032958984375,-248.0,188.0,-134.0,102367.0,-8.638999938964844,0,0
1194.2559929999268,0.53118896484375,-0.46923828125,0.166717529296875,-0.6854248046875,0.06103515625,-0.18310546875,-0.244140625,0.4671630859375,-0.7269287109375,0.5035400390625,-248.0,188.0,-134.0,102367.0,-8.638999938964844,0,0
1194.2609939999268,0.53118896484375,-0.46923828125,0.166717529296875,-0.6854248046875,-0.18310546875,0.18310546875,0.0,0.4666748046875,-0.72607421875,0.5047607421875,-248.0,188.0,-134.0,102367.0,-8.638999938964844,0,0
1194.2650229999267,0.53118896484375,-0.46923828125,0.166717529296875,-0.6854248046875,-0.18310546875,0.18310546875,0.0,0.4666748046875,-0.72607421875,0.5047607421875,-248.0,188.0,-134.0,102367.0,-8.638999938964844,0,0
1194.2699939999268,0.53118896484375,-0.46923828125,0.166717529296875,-0.6854248046875,0.06103515625,0.244140625,0.0,0.464111328125,-0.7261962890625,0.5037841796875,-248.0,188.0,-134.0,102367.0,-8.638999938964844,0,0
1194.2749949999268,0.53118896484375,-0.46923828125,0.166717529296875,-0.6854248046875,-0.30517578125,0.1220703125,0.06103515625,0.4652099609375,-0.7275390625,0.504638671875,-248.0,188.0,-134.0,102367.0,-8.638999938964844,0,0
1194.2799929999267,0.53118896484375,-0.469207763671875,0.166717529296875,-0.6854248046875,0.0,-0.06103515625,0.0,0.4639892578125,-0.7247314453125,0.5048828125,-248.0,188.0,-134.0,102367.0,-8.638999938964844,0,0
1194.2849939999267,0.53118896484375,-0.469207763671875,0.166717529296875,-0.6854248046875,-0.1220703125,0.1220703125,-0.18310546875,0.465576171875,-0.7264404296875,0.5040283203125,-248.0,188.0,-134.0,102367.0,-8.638999938964844,0,0
1194.2899939999268,0.530731201171875,-0.4691162109375,0.16705322265625,-0.685791015625,-0.1220703125,0.1220703125,-0.18310546875,0.465576171875,-0.7264404296875,0.5040283203125,-246.0,188.0,-135.0,102367.0,-8.638999938964844,0,0
1194.2949939999269,0.530731201171875,-0.469085693359375,0.16705322265625,-0.685791015625,-0.18310546875,0.0,-0.1220703125,0.4649658203125,-0.7266845703125,0.5029296875,-246.0,188.0,-135.0,102367.0,-8.638999938964844,0,0
1194.299995999927,0.530731201171875,-0.469085693359375,0.16705322265625,-0.685791015625,-0.18310546875,0.1220703125,0.1220703125,0.4642333984375,-0.727783203125,0.5042724609375,-246.0,188.0,-135.0,102367.0,-8.638999938964844,0,0
1194.3049939999269,0.530731201171875,-0.469085693359375,0.16705322265625,-0.685791015625,-0.244140625,0.18310546875,-0.48828125,0.4649658203125,-0.7254638671875,0.504150390625,-246.0,188.0,-135.0,102367.0,-8.638999938964844,0,0
1194.309993999927,0.530731201171875,-0.469085693359375,0.16705322265625,-0.685791015625,0.1220703125,0.244140625,0.1220703125,0.46484375,-0.7266845703125,0.5042724609375,-246.0,188.0,-135.0,102367.0,-8.638999938964844,0,0
1194.314994999927,0.530731201171875,-0.469085693359375,0.16705322265625,-0.685791015625,0.0,0.0,-0.18310546875,0.4661865234375,-0.7252197265625,0.504638671875,-246.0,188.0,-135.0,102367.0,-8.638999938964844,0,0
1194.319996999927,0.530731201171875,-0.469085693359375,0.16705322265625,-0.685791015625,-0.244140625,0.1220703125,0.06103515625,0.4654541015625,-0.7275390625,0.504150390625,-246.0,188.0,-135.0,102367.0,-8.638999938964844,0,0
1194.3249969999272,0.530731201171875,-0.469085693359375,0.16705322265625,-0.685791015625,0.06103515625,0.30517578125,0.06103515625,0.4659423828125,-0.7249755859375,0.5032958984375,-246.0,188.0,-135.0,102367.0,-8.638999938964844,0,0
1194.3389949999273,0.530731201171875,-0.469085693359375,0.16705322265625,-0.685791015625,0.1220703125,0.0,-0.06103515625,0.4661865234375,-0.726806640625,0.5042724609375,-246.0,188.0,-135.0,102367.0,-8.641000747680664,0,0
1194.3439939999273,0.530731201171875,-0.469085693359375,0.16705322265625,-0.685791015625,-0.3662109375,-0.06103515625,-0.06103515625,0.4644775390625,-0.7265625,0.5032958984375,-246.0,188.0,-135.0,102367.0,-8.641000747680664,0,0
1194.3489939999274,0.530731201171875,-0.469085693359375,0.16705322265625,-0.685791015625,-0.06103515625,0.18310546875,0.244140625,0.4656982421875,-0.7281494140625,0.5030517578125,-246.0,188.0,-135.0,102367.0,-8.641000747680664,0,0
1194.3539959999275,0.530731201171875,-0.469085693359375,0.16705322265625,-0.685791015625,-0.244140625,0.1220703125,0.0,0.4666748046875,-0.7269287109375,0.50439453125,-246.0,188.0,-135.0,102367.0,-8.641000747680664,0,0
1194.3589929999275,0.530731201171875,-0.469085693359375,0.16705322265625,-0.685791015625,0.0,0.1220703125,-0.18310546875,0.468017578125,-0.7274169921875,0.5064697265625,-246.0,188.0,-135.0,102367.0,-8.641000747680664,0,0
1194.3639929999276,0.530731201171875,-0.469085693359375,0.16705322265625,-0.685791015625,0.18310546875,0.0,0.06103515625,0.4642333984375,-0.7265625,0.503662109375,-246.0,188.0,-135.0,102367.0,-8.641000747680664,0,0
1194.3689939999276,0.530731201171875,-0.469085693359375,0.16705322265625,-0.685791015625,-0.18310546875,0.18310546875,-0.1220703125,0.4658203125,-0.7271728515625,0.5047607421875,-246.0,188.0,-135.0,102367.0,-8.641000747680664,0,0
1194.3739949999276,0.530731201171875,-0.469085693359375,0.16705322265625,-0.685791015625,0.0,0.06103515625,0.0,0.468017578125,-0.7281494140625,0.5035400390625,-246.0,188.0,-135.0,102367.0,-8.641000747680664,0,0
1194.3789959999276,0.530731201171875,-0.469085693359375,0.16705322265625,-0.685791015625,0.0,-0.06103515625,0.0,0.4656982421875,-0.7257080078125,0.5025634765625,-246.0,188.0,-135.0,102367.0,-8.641000747680664,0,0
1194.3839929999276,0.530731201171875,-0.469085693359375,0.16705322265625,-0.685791015625,-0.1220703125,0.244140625,0.0,0.4683837890625,-0.7247314453125,0.504150390625,-246.0,188.0,-135.0,102367.0,-8.641000747680664,0,0
1194.3889929999277,0.530731201171875,-0.469085693359375,0.16705322265625,-0.685791015625,-0.1220703125,0.06103515625,0.0,0.46484375,-0.7276611328125,0.504638671875,-246.0,187.0,-135.0,102367.0,-8.641000747680664,0,0
1194.4029939999277,0.5302734375,-0.468963623046875,0.167388916015625,-0.6861572265625,-0.06103515625,0.06103515625,0.1220703125,0.46630859375,-0.7279052734375,0.505126953125,-246.0,187.0,-135.0,102367.0,-8.641000747680664,0,0
1194.4079959999278,0.530242919921875,-0.468963623046875,0.1673583984375,-0.6861572265625,0.06103515625,0.18310546875,-0.3662109375,0.466064453125,-0.7261962890625,0.5029296875,-246.0,187.0,-135.0,102367.0,-8.641000747680664,0,0
1194.4129929999278,0.530242919921875,-0.468963623046875,0.1673583984375,-0.6861572265625,0.0,0.18310546875,0.06103515625,0.4666748046875,-0.7266845703125,0.505615234375,-246.0,187.0,-135.0,102367.0,-8.641000747680664,0,0
1194.417992999928,0.530242919921875,-0.468963623046875,0.1673583984375,-0.6861572265625,-0.3662109375,0.18310546875,0.06103515625,0.4666748046875,-0.727294921875,0.5047607421875,-246.0,187.0,-135.0,102367.0,-8.641000747680664,0,0
1194.422993999928,0.5302734375,-0.468963623046875,0.1673583984375,-0.6861572265625,0.0,0.1220703125,-0.1220703125,0.46533203125,-0.7281494140625,0.504150390625,-246.0,187.0,-135.0,102367.0,-8.641000747680664,0,0
1194.427994999928,0.530242919921875,-0.468963623046875,0.1673583984375,-0.6861572265625,-0.06103515625,0.06103515625,0.0,0.4664306640625,-0.7259521484375,0.503662109375,-246.0,187.0,-135.0,102367.0,-8.641000747680664,0,0
1194.432995999928,0.5302734375,-0.468963623046875,0.1673583984375,-0.6861572265625,-0.06103515625,0.06103515625,0.06103515625,0.464111328125,-0.727294921875,0.5040283203125,-246.0,187.0,-135.0,102367.0,-8.641000747680664,0,0
1194.437992999928,0.5302734375,-0.468963623046875,0.1673583984375,-0.6861572265625,0.244140625,0.1220703125,0.06103515625,0.4661865234375,-0.7269287109375,0.505126953125,-246.0,187.0,-135.0,102367.0,-8.641000747680664,0,0
1194.442992999928,0.5302734375,-0.468963623046875,0.1673583984375,-0.6861572265625,-0.42724609375,0.244140625,0.06103515625,0.46826171875,-0.725830078125,0.5047607421875,-246.0,187.0,-135.0,102367.0,-8.641000747680664,0,0
1194.447993999928,0.5302734375,-0.468963623046875,0.1673583984375,-0.6861572265625,0.06103515625,0.1220703125,0.0,0.4649658203125,-0.725341796875,0.502197265625,-246.0,187.0,-135.0,102367.0,-8.641000747680664,0,0
1194.4529959999281,0.530242919921875,-0.468963623046875,0.1673583984375,-0.6861572265625,-0.06103515625,0.42724609375,0.06103515625,0.468017578125,-0.7279052734375,0.5032958984375,-246.0,187.0,-135.0,102367.0,-8.641000747680664,0,0
1194.4579929999281,0.5302734375,-0.468963623046875,0.1673583984375,-0.6861572265625,-0.18310546875,0.06103515625,0.1220703125,0.4654541015625,-0.72705078125,0.506591796875,-246.0,187.0,-135.0,102367.0,-8.641000747680664,0,0
1194.4629929999282,0.530242919921875,-0.468963623046875,0.1673583984375,-0.6861572265625,0.18310546875,0.06103515625,-0.1220703125,0.4661865234375,-0.727294921875,0.503173828125,-246.0,187.0,-135.0,102367.0,-8.641000747680664,0,0
1194.4670219999282,0.530242919921875,-0.468963623046875,0.1673583984375,-0.6861572265625,0.18310546875,0.06103515625,-0.1220703125,0.4661865234375,-0.727294921875,0.503173828125,-246.0,187.0,-135.0,102367.0,-8.641000747680664,0,0
1194.4719929999283,0.530242919921875,-0.468963623046875,0.1673583984375,-0.686187744140625,-0.06103515625,0.18310546875,-0.1220703125,0.46826171875,-0.7259521484375,0.503662109375,-246.0,187.0,-135.0,102367.0,-8.641000747680664,0,0
1194.4769939999283,0.530242919921875,-0.468963623046875,0.1673583984375,-0.686187744140625,-0.1220703125,0.1220703125,0.244140625,0.4647216796875,-0.7264404296875,0.503662109375,-246.0,187.0,-135.0,102367.0,-8.641000747680664,0,0
1194.4819949999282,0.530242919921875,-0.468963623046875,0.1673583984375,-0.686187744140625,-0.18310546875,0.06103515625,-0.06103515625,0.4661865234375,-0.726806640625,0.5045166015625,-246.0,187.0,-135.0,102367.0,-8.641000747680664,0,0
1194.4869959999282,0.5302734375,-0.468963623046875,0.1673583984375,-0.686187744140625,-0.18310546875,0.0,-0.1220703125,0.4647216796875,-0.725830078125,0.5045166015625,-246.0,187.0,-135.0,102367.0,-8.641000747680664,0,0
1194.4919929999282,0.52978515625,-0.468841552734375,0.16766357421875,-0.686553955078125,-0.18310546875,0.0,-0.1220703125,0.4647216796875,-0.725830078125,0.5045166015625,-245.0,187.0,-135.0,102367.0,-8.641000747680664,0,0
1194.4969939999282,0.52978515625,-0.468841552734375,0.167694091796875,-0.686553955078125,-0.18310546875,0.06103515625,-0.1220703125,0.4656982421875,-0.7274169921875,0.505126953125,-245.0,187.0,-135.0,102367.0,-8.641000747680664,0,0
1194.5019939999283,0.52978515625,-0.468841552734375,0.16766357421875,-0.686553955078125,0.06103515625,0.3662109375,0.0,0.4666748046875,-0.72705078125,0.503662109375,-245.0,187.0,-135.0,102367.0,-8.641000747680664,0,0
1194.5069959999284,0.52978515625,-0.468841552734375,0.167694091796875,-0.686553955078125,-0.06103515625,0.18310546875,0.06103515625,0.4656982421875,-0.7265625,0.5023193359375,-245.0,187.0,-135.0,102367.0,-8.641000747680664,0,0
1194.5119939999283,0.52978515625,-0.468841552734375,0.16766357421875,-0.686553955078125,0.0,0.18310546875,0.0,0.4676513671875,-0.727294921875,0.502685546875,-245.0,187.0,-135.0,102367.0,-8.641000747680664,0,0
1194.5269969999285,0.52978515625,-0.468841552734375,0.167694091796875,-0.686553955078125,-0.1220703125,0.06103515625,0.0,0.46435546875,-0.7257080078125,0.5057373046875,-245.0,187.0,-135.0,102367.0,-8.641000747680664,0,0
1194.5310269999286,0.52978515625,-0.468841552734375,0.167694091796875,-0.686553955078125,-0.1220703125,0.06103515625,0.0,0.46435546875,-0.7257080078125,0.5057373046875,-245.0,187.0,-135.0,102367.0,-8.641000747680664,0,0
1194.5359969999286,0.52978515625,-0.468841552734375,0.167694091796875,-0.686553955078125,0.244140625,-0.06103515625,0.0,0.4635009765625,-0.7279052734375,0.50537109375,-245.0,187.0,-135.0,102367.0,-8.641000747680664,0,0
1194.5409969999287,0.52978515625,-0.468841552734375,0.167694091796875,-0.686553955078125,0.244140625,-0.06103515625,0.0,0.4635009765625,-0.7279052734375,0.50537109375,-245.0,187.0,-135.0,102367.0,-8.640000343322754,0,0
1194.5459939999287,0.52978515625,-0.468841552734375,0.167694091796875,-0.686553955078125,0.18310546875,0.244140625,0.30517578125,0.4664306640625,-0.725830078125,0.504638671875,-245.0,187.0,-135.0,102367.0,-8.640000343322754,0,0
1194.5509939999288,0.52978515625,-0.468841552734375,0.167694091796875,-0.686553955078125,-0.42724609375,0.1220703125,0.30517578125,0.4661865234375,-0.7276611328125,0.5035400390625,-245.0,187.0,-135.0,102367.0,-8.640000343322754,0,0
1194.555993999929,0.52978515625,-0.468841552734375,0.167694091796875,-0.686553955078125,-0.18310546875,0.1220703125,0.244140625,0.466552734375,-0.72802734375,0.505615234375,-245.0,187.0,-135.0,102367.0,-8.640000343322754,0,0
1194.5609969999289,0.52978515625,-0.468841552734375,0.167694091796875,-0.686553955078125,0.0,0.1220703125,0.06103515625,0.4661865234375,-0.7266845703125,0.5050048828125,-245.0,187.0,-135.0,102367.0,-8.640000343322754,0,0
1194.5659929999288,0.52978515625,-0.46881103515625,0.167694091796875,-0.686553955078125,-0.1220703125,-0.06103515625,-0.06103515625,0.46337890625,-0.7276611328125,0.5045166015625,-245.0,187.0,-135.0,102367.0,-8.640000343322754,0,0
1194.5709929999289,0.52978515625,-0.468841552734375,0.167694091796875,-0.686553955078125,-0.06103515625,0.18310546875,-0.1220703125,0.465576171875,-0.7276611328125,0.503662109375,-245.0,187.0,-135.0,102367.0,-8.640000343322754,0,0
1194.5859919999289,0.52978515625,-0.468841552734375,0.167694091796875,-0.686553955078125,-0.244140625,0.18310546875,0.0,0.466796875,-0.72802734375,0.5048828125,-245.0,187.0,-135.0,102367.0,-8.640000343322754,0,0
1194.5909929999289,0.52978515625,-0.468841552734375,0.167694091796875,-0.686553955078125,-0.06103515625,0.06103515625,0.06103515625,0.4669189453125,-0.7265625,0.50439453125,-245.0,188.0,-135.0,102367.0,-8.640000343322754,0,0
1194.595992999929,0.529327392578125,-0.468719482421875,0.16802978515625,-0.686920166015625,0.1220703125,0.06103515625,0.18310546875,0.4676513671875,-0.728759765625,0.5023193359375,-245.0,188.0,-135.0,102367.0,-8.640000343322754,0,0
1194.600021999929,0.529327392578125,-0.468719482421875,0.16802978515625,-0.686920166015625,0.1220703125,0.06103515625,0.18310546875,0.4676513671875,-0.728759765625,0.5023193359375,-245.0,188.0,-135.0,102367.0,-8.640000343322754,0,0
1194.604992999929,0.529327392578125,-0.468719482421875,0.16802978515625,-0.686920166015625,-0.18310546875,0.06103515625,0.0,0.4654541015625,-0.7275390625,0.50634765625,-245.0,188.0,-135.0,102367.0,-8.640000343322754,0,0
1194.609993999929,0.529327392578125,-0.468719482421875,0.16802978515625,-0.686920166015625,-0.244140625,0.18310546875,0.0,0.4671630859375,-0.724853515625,0.505859375,-245.0,188.0,-135.0,102367.0,-8.640000343322754,0,0
1194.614995999929,0.529327392578125,-0.468719482421875,0.167999267578125,-0.686920166015625,0.06103515625,-0.06103515625,-0.06103515625,0.46728515625,-0.7275390625,0.5050048828125,-245.0,188.0,-135.0,102367.0,-8.640000343322754,0,0
1194.619992999929,0.529327392578125,-0.468719482421875,0.167999267578125,-0.686920166015625,-0.18310546875,0.18310546875,-0.06103515625,0.467529296875,-0.7249755859375,0.5040283203125,-245.0,188.0,-135.0,102367.0,-8.640000343322754,0,0
1194.6249929999292,0.529327392578125,-0.46868896484375,0.167999267578125,-0.686920166015625,-0.3662109375,0.1220703125,-0.06103515625,0.4656982421875,-0.7259521484375,0.504150390625,-245.0,188.0,-135.0,102367.0,-8.640000343322754,0,0
1194.6299939999292,0.529327392578125,-0.468719482421875,0.167999267578125,-0.686920166015625,0.0,0.1220703125,0.0,0.4661865234375,-0.7266845703125,0.5037841796875,-245.0,188.0,-135.0,102367.0,-8.640000343322754,0,0
1194.6349949999292,0.529327392578125,-0.468719482421875,0.167999267578125,-0.686920166015625,-0.3662109375,0.06103515625,-0.1220703125,0.4674072265625,-0.7274169921875,0.50439453125,-245.0,188.0,-135.0,102367.0,-8.640000343322754,0,0
1194.6399919999292,0.529327392578125,-0.468719482421875,0.167999267578125,-0.686920166015625,-0.06103515625,-0.06103515625,0.0,0.4661865234375,-0.7275390625,0.5040283203125,-245.0,188.0,-135.0,102367.0,-8.640000343322754,0,0
1194.6449929999292,0.529327392578125,-0.46868896484375,0.167999267578125,-0.686920166015625,0.0,0.3662109375,0.18310546875,0.46728515625,-0.727294921875,0.5045166015625,-245.0,188.0,-135.0,102367.0,-8.640000343322754,0,0
1194.6499929999293,0.529327392578125,-0.46868896484375,0.167999267578125,-0.686920166015625,-0.18310546875,0.18310546875,-0.06103515625,0.4658203125,-0.7254638671875,0.5050048828125,-245.0,188.0,-135.0,102367.0,-8.640000343322754,0,0
1194.6549939999293,0.529327392578125,-0.46868896484375,0.167999267578125,-0.686920166015625,0.0,0.18310546875,0.06103515625,0.4664306640625,-0.72802734375,0.50634765625,-245.0,188.0,-135.0,102367.0,-8.640000343322754,0,0
1194.6599959999294,0.529327392578125,-0.46868896484375,0.167999267578125,-0.686920166015625,-0.3662109375,0.06103515625,-0.1220703125,0.4669189453125,-0.7255859375,0.504638671875,-245.0,188.0,-135.0,102367.0,-8.640000343322754,0,0
1194.6640279999294,0.529327392578125,-0.46868896484375,0.167999267578125,-0.686920166015625,-0.3662109375,0.06103515625,-0.1220703125,0.4669189453125,-0.7255859375,0.504638671875,-245.0,188.0,-135.0,102367.0,-8.640000343322754,0,0
