Time stamp(sec),quaternion_0,quaternion_1,quaternion_2,quaternion_3,roll_angular_rate,pitch_angular_rate,yaw_angular_rate,acc_X,acc_Y,acc_Z,mag_X,mag_Y,mag_Z,pressure,altitude
1921.179019,-0.67156982421875,0.038970947265625,0.039093017578125,0.738861083984375,0.0,-0.06103515625,0.1220703125,0.1114501953125,0.006103515625,1.001220703125,-394.0,-21.0,11.0,101941.0,-5.117000102996826,0,0
1921.185998,-0.67156982421875,0.038970947265625,0.039093017578125,0.738861083984375,0.244140625,0.1220703125,-0.1220703125,0.111572265625,0.004638671875,1.0028076171875,-394.0,-21.0,11.0,101941.0,-5.117000102996826,0,0
1921.192998,-0.67156982421875,0.038970947265625,0.039093017578125,0.738861083984375,-0.06103515625,0.42724609375,0.06103515625,0.110107421875,0.00439453125,1.0013427734375,-394.0,-21.0,11.0,101941.0,-5.117000102996826,0,0
1921.200018,-0.67156982421875,0.038970947265625,0.039093017578125,0.738861083984375,0.244140625,0.42724609375,0.0,0.11376953125,0.0042724609375,1.0018310546875,-394.0,-21.0,11.0,101941.0,-5.117000102996826,0,0
1921.207001,-0.67156982421875,0.038970947265625,0.039093017578125,0.738861083984375,0.0,0.30517578125,0.42724609375,0.1094970703125,0.0054931640625,1.0025634765625,-394.0,-21.0,11.0,101941.0,-5.117000102996826,0,0
1921.214018,-0.67156982421875,0.038970947265625,0.039093017578125,0.738861083984375,-0.244140625,0.18310546875,0.18310546875,0.113037109375,0.0068359375,1.0020751953125,-394.0,-21.0,11.0,101941.0,-5.117000102996826,0,0
1921.220995,-0.67156982421875,0.03900146484375,0.039093017578125,0.738861083984375,0.18310546875,0.18310546875,0.0,0.1104736328125,0.0032958984375,1.002685546875,-394.0,-19.0,11.0,101941.0,-5.117000102996826,0,0
1921.227996,-0.672454833984375,0.0389404296875,0.039154052734375,0.738037109375,-0.06103515625,0.18310546875,-0.06103515625,0.1123046875,0.0048828125,1.0013427734375,-394.0,-19.0,11.0,101941.0,-5.117000102996826,0,0
1921.23502,-0.672454833984375,0.0389404296875,0.03912353515625,0.738037109375,0.0,0.0,0.1220703125,0.1070556640625,0.005126953125,1.0015869140625,-394.0,-19.0,11.0,101941.0,-5.117000102996826,0,0
1921.241999,-0.672454833984375,0.0389404296875,0.03912353515625,0.738037109375,0.0,0.30517578125,0.18310546875,0.1114501953125,0.0068359375,1.00244140625,-394.0,-19.0,11.0,101941.0,-5.117000102996826,0,0
1921.248031,-0.672454833984375,0.0389404296875,0.03912353515625,0.738037109375,0.0,0.30517578125,0.18310546875,0.1114501953125,0.0068359375,1.00244140625,-394.0,-19.0,11.0,101941.0,-5.117000102996826,0,0
1921.255016,-0.672454833984375,0.038909912109375,0.039154052734375,0.738037109375,0.0,0.30517578125,0.1220703125,0.1094970703125,0.00634765625,1.0029296875,-394.0,-19.0,11.0,101941.0,-5.117000102996826,0,0
1921.275998,-0.672454833984375,0.038909912109375,0.039154052734375,0.738037109375,-0.06103515625,0.18310546875,0.06103515625,0.1112060546875,0.0068359375,1.001220703125,-394.0,-19.0,11.0,101941.0,-5.117000102996826,0,0
1921.282998,-0.672454833984375,0.038909912109375,0.039154052734375,0.738037109375,-0.06103515625,0.3662109375,0.1220703125,0.1112060546875,0.00439453125,1.0018310546875,-394.0,-19.0,11.0,101941.0,-5.117000102996826,0,0
1921.290018,-0.672454833984375,0.038909912109375,0.039154052734375,0.738037109375,0.0,0.42724609375,-0.244140625,0.1103515625,0.0042724609375,1.0015869140625,-394.0,-19.0,11.0,101941.0,-5.117000102996826,0,0
1921.297001,-0.672454833984375,0.038909912109375,0.039154052734375,0.738037109375,-0.18310546875,0.30517578125,0.1220703125,0.1126708984375,0.0079345703125,1.0015869140625,-394.0,-19.0,11.0,101941.0,-5.117000102996826,0,0
1921.304018,-0.672454833984375,0.038909912109375,0.039154052734375,0.738037109375,-0.244140625,0.244140625,0.06103515625,0.1083984375,0.0089111328125,1.00146484375,-394.0,-19.0,11.0,101941.0,-5.117000102996826,0,0
1921.310996,-0.672454833984375,0.038909912109375,0.039154052734375,0.738037109375,0.06103515625,0.30517578125,0.06103515625,0.11328125,0.0059814453125,1.0015869140625,-394.0,-19.0,11.0,101941.0,-5.117000102996826,0,0
1921.318,-0.672454833984375,0.038909912109375,0.039154052734375,0.738037109375,-0.244140625,0.06103515625,0.06103515625,0.109375,0.0052490234375,1.0010986328125,-394.0,-19.0,11.0,101941.0,-5.116000175476074,0,0
1921.32502,-0.672454833984375,0.03887939453125,0.039154052734375,0.738037109375,-0.18310546875,0.06103515625,0.18310546875,0.1090087890625,0.006591796875,1.0018310546875,-394.0,-19.0,12.0,101941.0,-5.116000175476074,0,0
1921.331999,-0.673309326171875,0.038848876953125,0.039215087890625,0.737274169921875,0.0,0.18310546875,0.0,0.110595703125,0.0052490234375,1.002685546875,-394.0,-19.0,12.0,101941.0,-5.116000175476074,0,0
1921.339016,-0.673309326171875,0.038848876953125,0.0391845703125,0.737274169921875,-0.30517578125,0.18310546875,0.0,0.1116943359375,0.004638671875,1.0018310546875,-394.0,-19.0,12.0,101941.0,-5.116000175476074,0,0
1921.345051,-0.673309326171875,0.038848876953125,0.0391845703125,0.737274169921875,-0.30517578125,0.18310546875,0.0,0.1116943359375,0.004638671875,1.0018310546875,-394.0,-19.0,12.0,101941.0,-5.116000175476074,0,0
1921.365998,-0.673309326171875,0.038848876953125,0.0391845703125,0.737274169921875,0.06103515625,0.18310546875,0.0,0.110107421875,0.0047607421875,1.0023193359375,-394.0,-19.0,12.0,101941.0,-5.116000175476074,0,0
1921.372998,-0.673309326171875,0.038818359375,0.0391845703125,0.737274169921875,0.06103515625,0.42724609375,-0.06103515625,0.1112060546875,0.0072021484375,1.0020751953125,-394.0,-19.0,12.0,101941.0,-5.116000175476074,0,0
1921.380018,-0.673309326171875,0.038848876953125,0.0391845703125,0.737274169921875,0.30517578125,0.0,0.06103515625,0.1116943359375,0.0047607421875,1.0025634765625,-394.0,-19.0,12.0,101941.0,-5.116000175476074,0,0
1921.387001,-0.673309326171875,0.038848876953125,0.0391845703125,0.737274169921875,-0.1220703125,0.06103515625,-0.06103515625,0.1099853515625,0.0048828125,1.003662109375,-394.0,-19.0,12.0,101941.0,-5.116000175476074,0,0
1921.394018,-0.673309326171875,0.038848876953125,0.0391845703125,0.737274169921875,0.0,0.18310546875,0.30517578125,0.1094970703125,0.0040283203125,1.0035400390625,-394.0,-19.0,12.0,101941.0,-5.116000175476074,0,0
1921.400995,-0.673309326171875,0.038848876953125,0.0391845703125,0.737274169921875,-0.06103515625,0.18310546875,-0.06103515625,0.1112060546875,0.0057373046875,1.001953125,-394.0,-19.0,12.0,101941.0,-5.116000175476074,0,0
1921.407995,-0.673309326171875,0.038848876953125,0.0391845703125,0.737274169921875,-0.06103515625,0.244140625,0.1220703125,0.1112060546875,0.0047607421875,1.0003662109375,-394.0,-19.0,12.0,101941.0,-5.116000175476074,0,0
1921.41502,-0.673309326171875,0.038848876953125,0.0391845703125,0.737274169921875,0.06103515625,0.30517578125,-0.1220703125,0.1116943359375,0.004638671875,1.0,-394.0,-19.0,12.0,101941.0,-5.116000175476074,0,0
1921.421999,-0.674102783203125,0.038818359375,0.039215087890625,0.736541748046875,0.0,0.18310546875,0.1220703125,0.1082763671875,0.0037841796875,1.00048828125,-393.0,-20.0,11.0,101941.0,-5.117000102996826,0,0
1921.429016,-0.674102783203125,0.038818359375,0.039215087890625,0.736541748046875,0.0,0.06103515625,-0.244140625,0.1107177734375,0.0042724609375,1.0032958984375,-393.0,-20.0,11.0,101941.0,-5.117000102996826,0,0
1921.435047,-0.674102783203125,0.038818359375,0.039215087890625,0.736541748046875,0.0,0.06103515625,-0.244140625,0.1107177734375,0.0042724609375,1.0032958984375,-393.0,-20.0,11.0,101941.0,-5.117000102996826,0,0
1921.442004,-0.674102783203125,0.038818359375,0.039215087890625,0.736541748046875,0.0,0.18310546875,-0.244140625,0.1104736328125,0.0062255859375,0.999755859375,-393.0,-20.0,11.0,101941.0,-5.117000102996826,0,0
1921.449018,-0.674102783203125,0.038818359375,0.039215087890625,0.736541748046875,-0.18310546875,0.30517578125,-0.06103515625,0.111328125,0.0052490234375,1.0009765625,-393.0,-20.0,11.0,101941.0,-5.117000102996826,0,0
1921.455998,-0.674102783203125,0.038787841796875,0.039215087890625,0.736541748046875,0.0,0.3662109375,-0.06103515625,0.1107177734375,0.0064697265625,1.000732421875,-393.0,-20.0,11.0,101941.0,-5.117000102996826,0,0
1921.462997,-0.674102783203125,0.038818359375,0.039215087890625,0.736541748046875,-0.30517578125,0.244140625,0.06103515625,0.112060546875,0.0032958984375,1.0028076171875,-393.0,-20.0,11.0,101941.0,-5.117000102996826,0,0
1921.470018,-0.674102783203125,0.038818359375,0.039215087890625,0.736541748046875,-0.18310546875,0.48828125,0.18310546875,0.111083984375,0.0067138671875,1.0018310546875,-393.0,-20.0,11.0,101941.0,-5.117000102996826,0,0
1921.477001,-0.674102783203125,0.038787841796875,0.03924560546875,0.736541748046875,0.06103515625,0.0,-0.06103515625,0.1112060546875,0.0081787109375,1.0015869140625,-393.0,-20.0,11.0,101941.0,-5.117000102996826,0,0
1921.484018,-0.674102783203125,0.038787841796875,0.03924560546875,0.736541748046875,0.0,0.1220703125,0.0,0.11083984375,0.0035400390625,0.9998779296875,-393.0,-20.0,11.0,101941.0,-5.117000102996826,0,0
1921.490995,-0.674102783203125,0.038787841796875,0.039215087890625,0.736541748046875,-0.18310546875,0.18310546875,0.06103515625,0.1092529296875,0.0057373046875,1.003173828125,-393.0,-20.0,11.0,101941.0,-5.117000102996826,0,0
1921.497995,-0.674102783203125,0.038787841796875,0.039215087890625,0.736541748046875,-0.1220703125,0.3662109375,0.0,0.1102294921875,0.00439453125,1.0023193359375,-393.0,-20.0,11.0,101941.0,-5.117000102996826,0,0
1921.50502,-0.674102783203125,0.038787841796875,0.039215087890625,0.736541748046875,-0.1220703125,0.0,0.06103515625,0.110595703125,0.0076904296875,1.00146484375,-393.0,-20.0,11.0,101941.0,-5.117000102996826,0,0
1921.511999,-0.674102783203125,0.038787841796875,0.039215087890625,0.736541748046875,-0.1220703125,0.06103515625,-0.30517578125,0.110595703125,0.0037841796875,1.0052490234375,-393.0,-20.0,11.0,101941.0,-5.117000102996826,0,0
1921.519016,-0.674102783203125,0.038787841796875,0.03924560546875,0.736541748046875,0.06103515625,0.1220703125,0.18310546875,0.1126708984375,0.008056640625,1.0010986328125,-393.0,-20.0,11.0,101941.0,-5.118000030517578,0,0
1921.539019,-0.6748046875,0.038787841796875,0.039276123046875,0.73590087890625,0.18310546875,0.244140625,0.0,0.1123046875,0.0042724609375,1.0025634765625,-393.0,-20.0,11.0,101941.0,-5.118000030517578,0,0
1921.545998,-0.6748046875,0.03875732421875,0.039276123046875,0.73590087890625,-0.3662109375,0.1220703125,-0.1220703125,0.1097412109375,0.0079345703125,1.003662109375,-393.0,-20.0,11.0,101941.0,-5.118000030517578,0,0
1921.552997,-0.6748046875,0.03875732421875,0.039276123046875,0.73590087890625,0.1220703125,0.30517578125,0.1220703125,0.10888671875,0.0057373046875,1.0028076171875,-393.0,-20.0,11.0,101941.0,-5.118000030517578,0,0
1921.560018,-0.6748046875,0.03875732421875,0.039276123046875,0.73590087890625,0.0,0.48828125,-0.06103515625,0.1094970703125,0.0059814453125,1.00048828125,-393.0,-20.0,11.0,101941.0,-5.118000030517578,0,0
1921.567001,-0.6748046875,0.03875732421875,0.039276123046875,0.73590087890625,-0.06103515625,0.244140625,0.244140625,0.1109619140625,0.005859375,1.0006103515625,-393.0,-20.0,11.0,101941.0,-5.118000030517578,0,0
1921.574018,-0.6748046875,0.03875732421875,0.039276123046875,0.73590087890625,-0.30517578125,0.3662109375,-0.1220703125,0.11083984375,0.0047607421875,1.0006103515625,-393.0,-20.0,11.0,101941.0,-5.118000030517578,0,0
1921.580995,-0.6748046875,0.03875732421875,0.039276123046875,0.73590087890625,-0.06103515625,0.18310546875,-0.18310546875,0.1126708984375,0.0048828125,1.00048828125,-393.0,-20.0,11.0,101941.0,-5.118000030517578,0,0
1921.588,-0.6748046875,0.03875732421875,0.039276123046875,0.73590087890625,-0.1220703125,0.244140625,-0.18310546875,0.1126708984375,0.005859375,1.0010986328125,-393.0,-20.0,11.0,101941.0,-5.118000030517578,0,0
1921.59502,-0.6748046875,0.03875732421875,0.039276123046875,0.73590087890625,0.1220703125,0.30517578125,0.1220703125,0.1114501953125,0.0072021484375,1.00341796875,-393.0,-20.0,11.0,101941.0,-5.118000030517578,0,0
1921.601999,-0.6748046875,0.03875732421875,0.039306640625,0.73590087890625,0.18310546875,0.18310546875,0.06103515625,0.11083984375,0.00732421875,1.001220703125,-393.0,-20.0,11.0,101941.0,-5.118000030517578,0,0
1921.609016,-0.6748046875,0.03875732421875,0.039276123046875,0.73590087890625,-0.1220703125,0.18310546875,0.0,0.1112060546875,0.002685546875,1.00146484375,-393.0,-20.0,11.0,101941.0,-5.118000030517578,0,0
1921.629018,-0.675506591796875,0.038726806640625,0.039337158203125,0.735260009765625,0.06103515625,0.0,0.18310546875,0.1107177734375,0.0064697265625,1.0030517578125,-394.0,-20.0,11.0,101941.0,-5.118000030517578,0,0
1921.635998,-0.675506591796875,0.038726806640625,0.039337158203125,0.735260009765625,0.06103515625,0.244140625,-0.1220703125,0.1112060546875,0.0074462890625,1.0018310546875,-394.0,-20.0,11.0,101941.0,-5.118000030517578,0,0
1921.642998,-0.675506591796875,0.038726806640625,0.039337158203125,0.735260009765625,-0.30517578125,0.30517578125,0.1220703125,0.11181640625,0.0047607421875,1.0023193359375,-394.0,-20.0,11.0,101941.0,-5.118000030517578,0,0
1921.650018,-0.675506591796875,0.038726806640625,0.039337158203125,0.735260009765625,-0.18310546875,0.3662109375,0.18310546875,0.1124267578125,0.0068359375,0.9998779296875,-394.0,-20.0,11.0,101941.0,-5.118000030517578,0,0
1921.657001,-0.675506591796875,0.038726806640625,0.039337158203125,0.735260009765625,-0.1220703125,0.244140625,-0.1220703125,0.1102294921875,0.0059814453125,1.000244140625,-394.0,-20.0,11.0,101941.0,-5.118000030517578,0,0
1921.664018,-0.675506591796875,0.038726806640625,0.039337158203125,0.735260009765625,-0.1220703125,0.30517578125,0.06103515625,0.1116943359375,0.006591796875,1.001708984375,-394.0,-20.0,11.0,101941.0,-5.118000030517578,0,0
1921.670996,-0.675506591796875,0.038726806640625,0.039337158203125,0.735260009765625,0.18310546875,0.244140625,0.18310546875,0.1109619140625,0.0029296875,1.001953125,-394.0,-20.0,11.0,101941.0,-5.118000030517578,0,0
1921.678,-0.675506591796875,0.038726806640625,0.039337158203125,0.735260009765625,0.06103515625,0.3662109375,-0.06103515625,0.110595703125,0.0023193359375,1.001953125,-394.0,-20.0,11.0,101941.0,-5.118000030517578,0,0
1921.68502,-0.675506591796875,0.038726806640625,0.039337158203125,0.735260009765625,0.06103515625,-0.06103515625,0.244140625,0.10986328125,0.0052490234375,1.0006103515625,-394.0,-20.0,11.0,101941.0,-5.118000030517578,0,0
1921.691999,-0.675506591796875,0.038726806640625,0.039337158203125,0.735260009765625,0.06103515625,0.30517578125,0.0,0.1124267578125,0.005126953125,1.00146484375,-394.0,-20.0,11.0,101941.0,-5.118000030517578,0,0
1921.699016,-0.675506591796875,0.03875732421875,0.039337158203125,0.735260009765625,-0.06103515625,0.30517578125,0.18310546875,0.112060546875,0.005615234375,1.0009765625,-394.0,-20.0,11.0,101941.0,-5.118000030517578,0,0
1921.705997,-0.675506591796875,0.03875732421875,0.039337158203125,0.735260009765625,0.06103515625,0.1220703125,0.06103515625,0.1102294921875,0.007080078125,1.0020751953125,-394.0,-20.0,11.0,101941.0,-5.118000030517578,0,0
1921.712997,-0.675506591796875,0.038726806640625,0.039337158203125,0.735260009765625,-0.3662109375,0.30517578125,0.06103515625,0.1126708984375,0.0089111328125,1.001220703125,-394.0,-20.0,11.0,101941.0,-5.118000030517578,0,0
1921.719025,-0.675506591796875,0.038726806640625,0.039337158203125,0.735260009765625,-0.3662109375,0.30517578125,0.06103515625,0.1126708984375,0.0089111328125,1.001220703125,-394.0,-20.0,11.0,101941.0,-5.118000030517578,0,0
1921.725998,-0.67620849609375,0.038726806640625,0.03936767578125,0.734619140625,-0.30517578125,0.30517578125,0.1220703125,0.111083984375,0.003662109375,1.0010986328125,-393.0,-19.0,9.0,101940.0,-5.115000247955322,0,0
1921.732998,-0.67620849609375,0.038726806640625,0.03936767578125,0.734619140625,-0.18310546875,0.30517578125,0.244140625,0.1121826171875,0.0040283203125,1.0013427734375,-393.0,-19.0,9.0,101940.0,-5.115000247955322,0,0
1921.740018,-0.67620849609375,0.038726806640625,0.039398193359375,0.734619140625,0.06103515625,0.1220703125,0.1220703125,0.1131591796875,0.00634765625,1.0006103515625,-393.0,-19.0,9.0,101940.0,-5.115000247955322,0,0
1921.747001,-0.67620849609375,0.038726806640625,0.039398193359375,0.734619140625,0.1220703125,0.3662109375,0.1220703125,0.111328125,0.00439453125,1.0015869140625,-393.0,-19.0,9.0,101940.0,-5.115000247955322,0,0
1921.754018,-0.67620849609375,0.038726806640625,0.039398193359375,0.734619140625,-0.06103515625,0.3662109375,0.0,0.1123046875,0.008544921875,1.0025634765625,-393.0,-19.0,9.0,101940.0,-5.115000247955322,0,0
1921.760995,-0.67620849609375,0.038726806640625,0.039398193359375,0.734619140625,0.0,0.1220703125,-0.06103515625,0.10888671875,0.0069580078125,0.999755859375,-393.0,-19.0,9.0,101940.0,-5.115000247955322,0,0
1921.767995,-0.67620849609375,0.038726806640625,0.039398193359375,0.734619140625,0.06103515625,0.30517578125,0.1220703125,0.1109619140625,0.0048828125,1.000732421875,-393.0,-19.0,9.0,101940.0,-5.115000247955322,0,0
1921.77502,-0.67620849609375,0.0386962890625,0.039398193359375,0.734619140625,0.0,0.3662109375,0.06103515625,0.1090087890625,0.0069580078125,1.0025634765625,-393.0,-19.0,9.0,101940.0,-5.115000247955322,0,0
1921.781999,-0.67620849609375,0.0386962890625,0.039398193359375,0.734619140625,-0.06103515625,0.18310546875,0.0,0.1119384765625,0.0076904296875,1.00146484375,-393.0,-19.0,9.0,101940.0,-5.115000247955322,0,0
1921.802997,-0.67620849609375,0.0386962890625,0.039398193359375,0.734619140625,0.1220703125,0.18310546875,-0.06103515625,0.1109619140625,0.0062255859375,1.0,-393.0,-19.0,9.0,101940.0,-5.115000247955322,0,0
1921.809025,-0.67620849609375,0.0386962890625,0.039398193359375,0.734619140625,0.1220703125,0.18310546875,-0.06103515625,0.1109619140625,0.0062255859375,1.0,-393.0,-19.0,9.0,101940.0,-5.115000247955322,0,0
1921.815998,-0.67620849609375,0.0386962890625,0.039398193359375,0.734619140625,-0.06103515625,0.42724609375,0.0,0.111328125,0.005615234375,1.001220703125,-393.0,-19.0,9.0,101941.0,-5.115000247955322,0,0
1921.822998,-0.6768798828125,0.038665771484375,0.039459228515625,0.7340087890625,-0.1220703125,0.18310546875,0.1220703125,0.112548828125,0.0052490234375,1.0010986328125,-394.0,-19.0,8.0,101941.0,-5.115000247955322,0,0
1921.830018,-0.6768798828125,0.038665771484375,0.0394287109375,0.7340087890625,-0.1220703125,0.244140625,-0.1220703125,0.1112060546875,0.003173828125,1.0003662109375,-394.0,-19.0,8.0,101941.0,-5.115000247955322,0,0
1921.837001,-0.6768798828125,0.038665771484375,0.0394287109375,0.7340087890625,-0.06103515625,0.244140625,0.18310546875,0.1129150390625,0.0029296875,1.0015869140625,-394.0,-19.0,8.0,101941.0,-5.115000247955322,0,0
1921.844018,-0.6768798828125,0.038665771484375,0.0394287109375,0.7340087890625,-0.1220703125,0.1220703125,0.244140625,0.110595703125,0.007080078125,1.0001220703125,-394.0,-19.0,8.0,101941.0,-5.115000247955322,0,0
1921.850995,-0.6768798828125,0.038665771484375,0.0394287109375,0.7340087890625,0.1220703125,0.1220703125,-0.1220703125,0.1116943359375,0.005615234375,1.001708984375,-394.0,-19.0,8.0,101941.0,-5.115000247955322,0,0
1921.857996,-0.6768798828125,0.0386962890625,0.0394287109375,0.7340087890625,-0.244140625,0.1220703125,-0.18310546875,0.1107177734375,0.0062255859375,1.0006103515625,-394.0,-19.0,8.0,101941.0,-5.115000247955322,0,0
1921.86502,-0.6768798828125,0.038665771484375,0.0394287109375,0.7340087890625,0.1220703125,0.1220703125,0.244140625,0.1104736328125,0.008056640625,0.9981689453125,-394.0,-19.0,8.0,101941.0,-5.115000247955322,0,0
1921.885998,-0.6768798828125,0.038665771484375,0.0394287109375,0.7340087890625,-0.06103515625,0.42724609375,0.06103515625,0.1114501953125,0.004150390625,1.0003662109375,-394.0,-19.0,8.0,101941.0,-5.115000247955322,0,0
1921.892997,-0.6768798828125,0.038665771484375,0.0394287109375,0.7340087890625,-0.06103515625,0.3662109375,0.0,0.112060546875,0.0035400390625,1.0,-394.0,-19.0,8.0,101941.0,-5.115000247955322,0,0
1921.89903,-0.6768798828125,0.038665771484375,0.0394287109375,0.7340087890625,-0.06103515625,0.3662109375,0.0,0.112060546875,0.0035400390625,1.0,-394.0,-19.0,8.0,101941.0,-5.115000247955322,0,0
1921.905998,-0.6768798828125,0.0386962890625,0.0394287109375,0.7340087890625,-0.42724609375,0.3662109375,0.18310546875,0.111083984375,0.0057373046875,1.0013427734375,-394.0,-19.0,8.0,101941.0,-5.115000247955322,0,0
1921.912998,-0.6768798828125,0.0386962890625,0.0394287109375,0.7340087890625,0.06103515625,0.244140625,0.0,0.1102294921875,0.0064697265625,1.001953125,-394.0,-19.0,8.0,101941.0,-5.115000247955322,0,0
1921.920018,-0.6768798828125,0.0386962890625,0.0394287109375,0.7340087890625,-0.244140625,0.244140625,0.18310546875,0.1103515625,0.004638671875,1.002197265625,-394.0,-18.0,9.0,101941.0,-5.116000175476074,0,0
1921.927001,-0.677581787109375,0.038665771484375,0.039459228515625,0.73333740234375,-0.1220703125,0.3662109375,0.06103515625,0.1121826171875,0.0040283203125,1.002685546875,-394.0,-18.0,9.0,101941.0,-5.116000175476074,0,0
1921.934018,-0.677581787109375,0.038665771484375,0.039459228515625,0.73333740234375,0.06103515625,-0.06103515625,0.0,0.1107177734375,0.006103515625,1.0009765625,-394.0,-18.0,9.0,101941.0,-5.116000175476074,0,0
1921.940996,-0.677581787109375,0.038665771484375,0.039459228515625,0.73333740234375,0.0,0.18310546875,0.0,0.112060546875,0.0032958984375,1.0,-394.0,-18.0,9.0,101941.0,-5.116000175476074,0,0
1921.948,-0.677581787109375,0.03863525390625,0.0394287109375,0.73333740234375,-0.1220703125,0.1220703125,0.1220703125,0.1092529296875,0.0078125,1.0013427734375,-394.0,-18.0,9.0,101941.0,-5.116000175476074,0,0
1921.95502,-0.677581787109375,0.03863525390625,0.0394287109375,0.73333740234375,0.18310546875,0.18310546875,0.1220703125,0.1080322265625,0.0079345703125,1.0013427734375,-394.0,-18.0,9.0,101941.0,-5.116000175476074,0,0
1921.961999,-0.677581787109375,0.03863525390625,0.0394287109375,0.73333740234375,0.1220703125,0.244140625,0.06103515625,0.1094970703125,0.005859375,1.001220703125,-394.0,-18.0,9.0,101941.0,-5.116000175476074,0,0
1921.969016,-0.677581787109375,0.03863525390625,0.039459228515625,0.73333740234375,-0.1220703125,0.30517578125,0.18310546875,0.1109619140625,0.005615234375,0.9989013671875,-394.0,-18.0,9.0,101941.0,-5.116000175476074,0,0
1921.975998,-0.677581787109375,0.038604736328125,0.0394287109375,0.73333740234375,0.0,0.30517578125,0.06103515625,0.1099853515625,0.00634765625,1.0023193359375,-394.0,-18.0,9.0,101941.0,-5.116000175476074,0,0
1921.982997,-0.677581787109375,0.038604736328125,0.039459228515625,0.733367919921875,-0.244140625,0.244140625,0.0,0.1083984375,0.0076904296875,1.0013427734375,-394.0,-18.0,9.0,101941.0,-5.116000175476074,0,0
1921.990022,-0.677581787109375,0.038604736328125,0.039459228515625,0.733367919921875,0.1220703125,0.3662109375,0.0,0.1126708984375,0.00537109375,1.0009765625,-394.0,-18.0,9.0,101941.0,-5.116000175476074,0,0
1921.99605,-0.677581787109375,0.038604736328125,0.039459228515625,0.733367919921875,0.1220703125,0.3662109375,0.0,0.1126708984375,0.00537109375,1.0009765625,-394.0,-18.0,9.0,101941.0,-5.116000175476074,0,0
1922.002998,-0.677581787109375,0.038604736328125,0.039459228515625,0.733367919921875,-0.18310546875,0.244140625,0.0,0.111572265625,0.0074462890625,1.00146484375,-394.0,-18.0,9.0,101941.0,-5.116000175476074,0,0
1922.010018,-0.677581787109375,0.038604736328125,0.039459228515625,0.733367919921875,0.1220703125,0.18310546875,0.18310546875,0.110107421875,0.0062255859375,1.001708984375,-394.0,-18.0,9.0,101941.0,-5.116000175476074,0,0
1922.017001,-0.677581787109375,0.038604736328125,0.039459228515625,0.733367919921875,0.1220703125,0.244140625,0.06103515625,0.1107177734375,0.0048828125,1.0,-394.0,-18.0,9.0,101941.0,-5.117000102996826,0,0
1922.024018,-0.677581787109375,0.038604736328125,0.039459228515625,0.733367919921875,0.1220703125,0.3662109375,-0.18310546875,0.11083984375,0.004150390625,1.0023193359375,-394.0,-20.0,8.0,101941.0,-5.117000102996826,0,0
1922.030995,-0.678070068359375,0.038604736328125,0.03948974609375,0.732879638671875,-0.1220703125,0.3662109375,-0.1220703125,0.1131591796875,0.0030517578125,1.0006103515625,-394.0,-20.0,8.0,101941.0,-5.117000102996826,0,0
1922.037995,-0.678070068359375,0.03857421875,0.03948974609375,0.732879638671875,0.06103515625,0.244140625,0.0,0.10986328125,0.005859375,1.0023193359375,-394.0,-20.0,8.0,101941.0,-5.117000102996826,0,0
1922.04502,-0.678070068359375,0.038604736328125,0.03948974609375,0.732879638671875,-0.06103515625,0.0,0.244140625,0.1119384765625,0.0068359375,0.999755859375,-394.0,-20.0,8.0,101941.0,-5.117000102996826,0,0
1922.065998,-0.678070068359375,0.038604736328125,0.039459228515625,0.732879638671875,0.0,0.30517578125,-0.18310546875,0.1129150390625,0.00390625,0.99951171875,-394.0,-20.0,8.0,101941.0,-5.117000102996826,0,0
1922.072997,-0.678070068359375,0.038604736328125,0.039459228515625,0.732879638671875,0.06103515625,0.42724609375,0.06103515625,0.11181640625,0.0057373046875,0.9996337890625,-394.0,-20.0,8.0,101941.0,-5.117000102996826,0,0
1922.080022,-0.678070068359375,0.038604736328125,0.039459228515625,0.732879638671875,0.1220703125,0.244140625,-0.30517578125,0.111572265625,0.00390625,1.0018310546875,-394.0,-20.0,8.0,101941.0,-5.117000102996826,0,0
1922.08605,-0.678070068359375,0.038604736328125,0.039459228515625,0.732879638671875,0.1220703125,0.244140625,-0.30517578125,0.111572265625,0.00390625,1.0018310546875,-394.0,-20.0,8.0,101941.0,-5.117000102996826,0,0
1922.092997,-0.678070068359375,0.038604736328125,0.03948974609375,0.732879638671875,-0.06103515625,0.30517578125,0.0,0.1126708984375,0.0062255859375,1.00341796875,-394.0,-20.0,8.0,101941.0,-5.117000102996826,0,0
1922.100018,-0.678070068359375,0.038604736328125,0.03948974609375,0.732879638671875,-0.18310546875,0.18310546875,0.06103515625,0.113037109375,0.0050048828125,1.0018310546875,-394.0,-20.0,8.0,101941.0,-5.117000102996826,0,0
1922.107001,-0.678070068359375,0.038604736328125,0.03948974609375,0.732879638671875,-0.1220703125,0.244140625,0.06103515625,0.111328125,0.0067138671875,1.00048828125,-394.0,-20.0,8.0,101941.0,-5.117000102996826,0,0
1922.114018,-0.678070068359375,0.038604736328125,0.03948974609375,0.732879638671875,-0.1220703125,0.244140625,-0.18310546875,0.1104736328125,0.0069580078125,1.0020751953125,-394.0,-20.0,8.0,101941.0,-5.117000102996826,0,0
1922.120995,-0.678070068359375,0.038604736328125,0.03948974609375,0.732879638671875,0.06103515625,0.54931640625,-0.1220703125,0.1107177734375,0.0059814453125,1.0013427734375,-393.0,-21.0,7.0,101941.0,-5.118000030517578,0,0
1922.127995,-0.678497314453125,0.03857421875,0.039520263671875,0.73248291015625,0.0,0.244140625,-0.1220703125,0.1109619140625,0.0067138671875,1.0023193359375,-393.0,-21.0,7.0,101941.0,-5.118000030517578,0,0
1922.149016,-0.678497314453125,0.03857421875,0.039520263671875,0.73248291015625,0.244140625,0.18310546875,-0.1220703125,0.1143798828125,0.005859375,1.00048828125,-393.0,-21.0,7.0,101941.0,-5.118000030517578,0,0
1922.155997,-0.678497314453125,0.03857421875,0.039520263671875,0.73248291015625,-0.06103515625,0.1220703125,-0.3662109375,0.110595703125,0.006103515625,1.0013427734375,-393.0,-21.0,7.0,101941.0,-5.118000030517578,0,0
1922.162997,-0.678497314453125,0.03857421875,0.039520263671875,0.73248291015625,-0.18310546875,0.18310546875,0.30517578125,0.1107177734375,0.0057373046875,0.99951171875,-393.0,-21.0,7.0,101941.0,-5.118000030517578,0,0
1922.170022,-0.678497314453125,0.03857421875,0.039520263671875,0.73248291015625,0.06103515625,0.1220703125,-0.18310546875,0.11083984375,0.005126953125,1.001708984375,-393.0,-21.0,7.0,101941.0,-5.118000030517578,0,0
1922.177001,-0.678497314453125,0.03857421875,0.039520263671875,0.73248291015625,0.244140625,0.244140625,-0.06103515625,0.1099853515625,0.00634765625,0.9990234375,-393.0,-21.0,7.0,101941.0,-5.118000030517578,0,0
1922.183033,-0.678497314453125,0.03857421875,0.039520263671875,0.73248291015625,0.244140625,0.244140625,-0.06103515625,0.1099853515625,0.00634765625,0.9990234375,-393.0,-21.0,7.0,101941.0,-5.118000030517578,0,0
1922.190018,-0.678497314453125,0.03857421875,0.039520263671875,0.73248291015625,-0.1220703125,0.244140625,0.0,0.10986328125,0.00537109375,1.0001220703125,-393.0,-21.0,7.0,101941.0,-5.118000030517578,0,0
1922.197001,-0.678497314453125,0.03857421875,0.039520263671875,0.73248291015625,0.18310546875,0.18310546875,0.0,0.1121826171875,0.0052490234375,1.0003662109375,-393.0,-21.0,7.0,101941.0,-5.118000030517578,0,0
1922.204018,-0.678497314453125,0.03857421875,0.039520263671875,0.73248291015625,0.18310546875,0.3662109375,0.18310546875,0.111328125,0.004638671875,1.000244140625,-393.0,-21.0,7.0,101941.0,-5.118000030517578,0,0
1922.210996,-0.678497314453125,0.03857421875,0.039520263671875,0.73248291015625,0.1220703125,0.1220703125,0.1220703125,0.10986328125,0.0037841796875,1.0009765625,-393.0,-21.0,7.0,101941.0,-5.118000030517578,0,0
1922.218,-0.678497314453125,0.03857421875,0.039520263671875,0.73248291015625,-0.06103515625,0.3662109375,0.0,0.1112060546875,0.006103515625,1.001953125,-392.0,-22.0,7.0,101941.0,-5.118000030517578,0,0
1922.22502,-0.67889404296875,0.03857421875,0.03955078125,0.732147216796875,-0.18310546875,0.1220703125,0.18310546875,0.111328125,0.0062255859375,0.99951171875,-392.0,-22.0,7.0,101941.0,-5.118000030517578,0,0
1922.231999,-0.67889404296875,0.03857421875,0.03955078125,0.732147216796875,0.1220703125,0.18310546875,0.06103515625,0.1116943359375,0.008056640625,1.001708984375,-392.0,-22.0,7.0,101941.0,-5.118000030517578,0,0
1922.239016,-0.67889404296875,0.038543701171875,0.03955078125,0.732147216796875,-0.244140625,0.0,-0.244140625,0.110595703125,0.0059814453125,1.0010986328125,-392.0,-22.0,7.0,101941.0,-5.118000030517578,0,0
1922.245998,-0.67889404296875,0.038543701171875,0.03955078125,0.732147216796875,-0.30517578125,0.30517578125,-0.06103515625,0.11083984375,0.0068359375,1.0006103515625,-392.0,-22.0,7.0,101941.0,-5.118000030517578,0,0
1922.252997,-0.678863525390625,0.038543701171875,0.03955078125,0.732147216796875,-0.06103515625,0.30517578125,0.0,0.1104736328125,0.0067138671875,0.998291015625,-392.0,-22.0,7.0,101941.0,-5.118000030517578,0,0
1922.260022,-0.678863525390625,0.038543701171875,0.03955078125,0.732147216796875,-0.06103515625,0.244140625,-0.1220703125,0.110107421875,0.006103515625,0.999755859375,-392.0,-22.0,7.0,101941.0,-5.118000030517578,0,0
1922.267001,-0.678863525390625,0.038543701171875,0.03955078125,0.732147216796875,-0.06103515625,0.18310546875,0.1220703125,0.10986328125,0.0067138671875,1.0001220703125,-392.0,-22.0,7.0,101941.0,-5.118000030517578,0,0
1922.273034,-0.678863525390625,0.038543701171875,0.03955078125,0.732147216796875,-0.06103515625,0.18310546875,0.1220703125,0.10986328125,0.0067138671875,1.0001220703125,-392.0,-22.0,7.0,101941.0,-5.118000030517578,0,0
1922.280018,-0.678863525390625,0.038543701171875,0.039581298828125,0.732147216796875,-0.18310546875,0.244140625,-0.1220703125,0.113525390625,0.005859375,1.001220703125,-392.0,-22.0,7.0,101941.0,-5.117000102996826,0,0
1922.287001,-0.678863525390625,0.038543701171875,0.039581298828125,0.732147216796875,-0.1220703125,0.3662109375,-0.06103515625,0.110107421875,0.00390625,0.9993896484375,-392.0,-22.0,7.0,101941.0,-5.117000102996826,0,0
1922.294018,-0.678863525390625,0.038543701171875,0.039581298828125,0.732147216796875,0.0,0.3662109375,0.18310546875,0.1102294921875,0.0045166015625,0.999755859375,-392.0,-22.0,7.0,101941.0,-5.117000102996826,0,0
1922.300995,-0.678863525390625,0.038543701171875,0.039581298828125,0.732147216796875,0.0,0.244140625,0.1220703125,0.109130859375,0.008056640625,1.000732421875,-392.0,-22.0,7.0,101941.0,-5.117000102996826,0,0
1922.321999,-0.679107666015625,0.038543701171875,0.039581298828125,0.73193359375,0.18310546875,0.244140625,-0.1220703125,0.111572265625,0.00537109375,1.000244140625,-391.0,-24.0,6.0,101941.0,-5.117000102996826,0,0
1922.329016,-0.679107666015625,0.03851318359375,0.039581298828125,0.73193359375,0.0,0.18310546875,0.1220703125,0.1099853515625,0.007080078125,1.0001220703125,-391.0,-24.0,6.0,101941.0,-5.117000102996826,0,0
1922.335998,-0.679107666015625,0.03851318359375,0.039581298828125,0.73193359375,0.1220703125,0.18310546875,-0.06103515625,0.107666015625,0.0052490234375,1.00048828125,-391.0,-24.0,6.0,101941.0,-5.117000102996826,0,0
1922.342997,-0.679107666015625,0.03851318359375,0.039581298828125,0.73193359375,-0.06103515625,0.244140625,-0.06103515625,0.1116943359375,0.0064697265625,1.0009765625,-391.0,-24.0,6.0,101941.0,-5.117000102996826,0,0
1922.350022,-0.679107666015625,0.03851318359375,0.039581298828125,0.73193359375,-0.06103515625,0.3662109375,-0.1220703125,0.109130859375,0.0045166015625,0.9993896484375,-391.0,-24.0,6.0,101941.0,-5.117000102996826,0,0
1922.357001,-0.679107666015625,0.03851318359375,0.039581298828125,0.73193359375,0.1220703125,0.42724609375,0.244140625,0.10986328125,0.005126953125,1.0010986328125,-391.0,-24.0,6.0,101941.0,-5.117000102996826,0,0
1922.364015,-0.679107666015625,0.03851318359375,0.039581298828125,0.73193359375,-0.06103515625,0.1220703125,0.1220703125,0.10986328125,0.008056640625,0.998291015625,-391.0,-24.0,6.0,101941.0,-5.117000102996826,0,0
1922.370048,-0.679107666015625,0.03851318359375,0.039581298828125,0.73193359375,-0.06103515625,0.1220703125,0.1220703125,0.10986328125,0.008056640625,0.998291015625,-391.0,-24.0,6.0,101941.0,-5.117000102996826,0,0
1922.377001,-0.679107666015625,0.03851318359375,0.039581298828125,0.73193359375,-0.18310546875,0.30517578125,0.0,0.1099853515625,0.0076904296875,1.0001220703125,-391.0,-24.0,6.0,101941.0,-5.117000102996826,0,0
1922.384018,-0.679107666015625,0.03851318359375,0.039581298828125,0.73193359375,0.0,0.42724609375,0.06103515625,0.1119384765625,0.0069580078125,0.9986572265625,-391.0,-24.0,6.0,101941.0,-5.117000102996826,0,0
1922.390995,-0.679107666015625,0.03851318359375,0.039581298828125,0.73193359375,-0.06103515625,0.06103515625,0.0,0.1109619140625,0.005859375,1.000732421875,-391.0,-24.0,6.0,101941.0,-5.117000102996826,0,0
1922.411999,-0.679107666015625,0.03851318359375,0.039581298828125,0.73193359375,0.06103515625,0.244140625,0.06103515625,0.1116943359375,0.006103515625,0.9993896484375,-391.0,-24.0,6.0,101941.0,-5.117000102996826,0,0
1922.419016,-0.679107666015625,0.03851318359375,0.039581298828125,0.73193359375,0.0,0.30517578125,0.18310546875,0.1131591796875,0.0067138671875,1.0015869140625,-390.0,-23.0,6.0,101941.0,-5.117000102996826,0,0
1922.425997,-0.679443359375,0.038482666015625,0.03961181640625,0.73162841796875,0.1220703125,0.18310546875,0.30517578125,0.108642578125,0.0048828125,0.9991455078125,-390.0,-23.0,6.0,101941.0,-5.117000102996826,0,0
1922.432997,-0.679443359375,0.03851318359375,0.03961181640625,0.73162841796875,-0.18310546875,0.42724609375,0.06103515625,0.112548828125,0.005615234375,0.9996337890625,-390.0,-23.0,6.0,101941.0,-5.117000102996826,0,0
1922.440022,-0.679443359375,0.038482666015625,0.03961181640625,0.73162841796875,0.06103515625,0.48828125,-0.18310546875,0.109619140625,0.007080078125,1.0,-390.0,-23.0,6.0,101941.0,-5.117000102996826,0,0
1922.447001,-0.679443359375,0.03851318359375,0.03961181640625,0.73162841796875,0.0,0.18310546875,0.0,0.1119384765625,0.005615234375,1.0001220703125,-390.0,-23.0,6.0,101941.0,-5.117000102996826,0,0
1922.454015,-0.679443359375,0.03851318359375,0.03961181640625,0.73162841796875,0.06103515625,0.1220703125,-0.1220703125,0.111083984375,0.0054931640625,1.000732421875,-390.0,-23.0,6.0,101941.0,-5.117000102996826,0,0
1922.460048,-0.679443359375,0.03851318359375,0.03961181640625,0.73162841796875,0.06103515625,0.1220703125,-0.1220703125,0.111083984375,0.0054931640625,1.000732421875,-390.0,-23.0,6.0,101941.0,-5.117000102996826,0,0
1922.467001,-0.679443359375,0.03851318359375,0.03961181640625,0.73162841796875,0.0,0.30517578125,0.06103515625,0.1103515625,0.00244140625,0.9993896484375,-390.0,-23.0,6.0,101941.0,-5.118000030517578,0,0
1922.474018,-0.679443359375,0.03851318359375,0.039581298828125,0.73162841796875,0.0,0.3662109375,-0.06103515625,0.1082763671875,0.005615234375,1.0006103515625,-390.0,-23.0,6.0,101941.0,-5.118000030517578,0,0
1922.480995,-0.679443359375,0.03851318359375,0.039581298828125,0.73162841796875,0.0,0.244140625,-0.06103515625,0.109130859375,0.00634765625,1.0042724609375,-390.0,-23.0,6.0,101941.0,-5.118000030517578,0,0
1922.488,-0.679443359375,0.03851318359375,0.039581298828125,0.73162841796875,0.18310546875,0.3662109375,0.1220703125,0.1092529296875,0.0054931640625,1.0009765625,-390.0,-23.0,6.0,101941.0,-5.118000030517578,0,0
1922.49502,-0.679443359375,0.03851318359375,0.039581298828125,0.73162841796875,0.0,0.1220703125,0.1220703125,0.109619140625,0.0042724609375,1.0023193359375,-390.0,-23.0,6.0,101941.0,-5.118000030517578,0,0
1922.501999,-0.679443359375,0.03851318359375,0.039581298828125,0.73162841796875,-0.06103515625,0.18310546875,-0.30517578125,0.112548828125,0.0054931640625,1.000244140625,-390.0,-23.0,6.0,101941.0,-5.118000030517578,0,0
1922.509016,-0.679443359375,0.03851318359375,0.039581298828125,0.73162841796875,0.0,0.30517578125,-0.06103515625,0.111328125,0.004638671875,1.0001220703125,-390.0,-23.0,6.0,101941.0,-5.118000030517578,0,0
1922.515998,-0.679443359375,0.03851318359375,0.039581298828125,0.73162841796875,-0.06103515625,0.1220703125,0.06103515625,0.1109619140625,0.0062255859375,0.9989013671875,-390.0,-23.0,6.0,101941.0,-5.118000030517578,0,0
1922.522997,-0.679718017578125,0.038482666015625,0.039581298828125,0.731353759765625,0.0,0.0,0.30517578125,0.11083984375,0.00537109375,1.0018310546875,-391.0,-23.0,6.0,101941.0,-5.118000030517578,0,0
1922.530022,-0.679718017578125,0.03851318359375,0.03961181640625,0.731353759765625,-0.18310546875,0.30517578125,-0.244140625,0.1131591796875,0.0052490234375,1.0001220703125,-391.0,-23.0,6.0,101941.0,-5.118000030517578,0,0
1922.537001,-0.679718017578125,0.038482666015625,0.039581298828125,0.731353759765625,-0.244140625,0.18310546875,-0.1220703125,0.109619140625,0.008056640625,1.00146484375,-391.0,-23.0,6.0,101941.0,-5.118000030517578,0,0
1922.544015,-0.679718017578125,0.038482666015625,0.039581298828125,0.731353759765625,-0.1220703125,0.06103515625,-0.06103515625,0.111328125,0.0062255859375,1.002197265625,-391.0,-23.0,6.0,101941.0,-5.118000030517578,0,0
1922.551,-0.679718017578125,0.03851318359375,0.03961181640625,0.731353759765625,0.06103515625,0.1220703125,0.06103515625,0.112060546875,0.005615234375,0.9996337890625,-391.0,-23.0,6.0,101941.0,-5.118000030517578,0,0
1922.557033,-0.679718017578125,0.03851318359375,0.03961181640625,0.731353759765625,0.06103515625,0.1220703125,0.06103515625,0.112060546875,0.005615234375,0.9996337890625,-391.0,-23.0,6.0,101941.0,-5.118000030517578,0,0
1922.564018,-0.679718017578125,0.038482666015625,0.03961181640625,0.731353759765625,0.1220703125,0.244140625,0.06103515625,0.111083984375,0.008056640625,1.0,-391.0,-23.0,6.0,101941.0,-5.117000102996826,0,0
1922.58502,-0.679718017578125,0.038482666015625,0.03961181640625,0.731353759765625,-0.06103515625,0.18310546875,0.1220703125,0.1107177734375,0.0072021484375,0.9998779296875,-391.0,-23.0,6.0,101941.0,-5.117000102996826,0,0
1922.591999,-0.679718017578125,0.038482666015625,0.03961181640625,0.731353759765625,-0.06103515625,0.30517578125,-0.244140625,0.110107421875,0.004150390625,1.000244140625,-391.0,-23.0,6.0,101941.0,-5.117000102996826,0,0
1922.599016,-0.679718017578125,0.038482666015625,0.03961181640625,0.731353759765625,-0.06103515625,0.30517578125,0.0,0.1116943359375,0.004638671875,1.0003662109375,-391.0,-23.0,6.0,101941.0,-5.117000102996826,0,0
1922.605997,-0.679718017578125,0.038482666015625,0.03961181640625,0.731353759765625,0.0,0.30517578125,0.06103515625,0.1090087890625,0.005859375,0.999267578125,-391.0,-23.0,6.0,101941.0,-5.117000102996826,0,0
1922.612997,-0.679718017578125,0.038482666015625,0.03961181640625,0.731353759765625,-0.1220703125,0.18310546875,0.1220703125,0.113037109375,0.006591796875,0.9989013671875,-391.0,-23.0,6.0,101941.0,-5.117000102996826,0,0
1922.67502,-0.67999267578125,0.03851318359375,0.039642333984375,0.7310791015625,-0.18310546875,0.06103515625,0.0,0.110595703125,0.0045166015625,0.9989013671875,-390.0,-23.0,6.0,101941.0,-5.117000102996826,0,0
1922.681999,-0.67999267578125,0.03851318359375,0.039642333984375,0.7310791015625,-0.244140625,-0.06103515625,-0.18310546875,0.1112060546875,0.006103515625,0.9979248046875,-390.0,-23.0,6.0,101941.0,-5.117000102996826,0,0
1922.689016,-0.67999267578125,0.03851318359375,0.039642333984375,0.7310791015625,0.18310546875,0.244140625,0.0,0.1131591796875,0.005126953125,1.0,-390.0,-23.0,6.0,101941.0,-5.117000102996826,0,0
1922.695998,-0.67999267578125,0.03851318359375,0.039642333984375,0.7310791015625,-0.244140625,0.30517578125,-0.06103515625,0.112548828125,0.0050048828125,0.9991455078125,-390.0,-23.0,6.0,101941.0,-5.117000102996826,0,0
1922.702997,-0.67999267578125,0.03851318359375,0.039642333984375,0.7310791015625,-0.06103515625,0.30517578125,-0.30517578125,0.1112060546875,0.0062255859375,0.9991455078125,-390.0,-23.0,6.0,101941.0,-5.117000102996826,0,0
1922.710022,-0.67999267578125,0.03851318359375,0.039642333984375,0.7310791015625,0.1220703125,-0.06103515625,0.18310546875,0.11181640625,0.006103515625,0.999755859375,-390.0,-23.0,6.0,101941.0,-5.117000102996826,0,0
1922.717001,-0.67999267578125,0.03851318359375,0.039642333984375,0.7310791015625,0.0,0.18310546875,0.06103515625,0.1112060546875,0.0045166015625,1.0018310546875,-391.0,-22.0,8.0,101941.0,-5.117000102996826,0,0
1922.724015,-0.680328369140625,0.038482666015625,0.039642333984375,0.73077392578125,-0.18310546875,0.18310546875,0.0,0.1092529296875,0.0057373046875,0.998046875,-391.0,-22.0,8.0,101941.0,-5.117000102996826,0,0
1922.730996,-0.680328369140625,0.03851318359375,0.0396728515625,0.73077392578125,-0.1220703125,0.1220703125,-0.06103515625,0.112060546875,0.0045166015625,1.0010986328125,-391.0,-22.0,8.0,101941.0,-5.117000102996826,0,0
1922.737995,-0.680328369140625,0.03851318359375,0.0396728515625,0.73077392578125,0.0,0.1220703125,-0.06103515625,0.1124267578125,0.0052490234375,0.9998779296875,-391.0,-22.0,8.0,101941.0,-5.117000102996826,0,0
1922.744023,-0.680328369140625,0.03851318359375,0.0396728515625,0.73077392578125,0.0,0.1220703125,-0.06103515625,0.1124267578125,0.0052490234375,0.9998779296875,-391.0,-22.0,8.0,101941.0,-5.117000102996826,0,0
1922.750995,-0.680328369140625,0.03851318359375,0.039642333984375,0.73077392578125,-0.18310546875,0.06103515625,0.1220703125,0.112548828125,0.0045166015625,0.9993896484375,-391.0,-22.0,8.0,101941.0,-5.117000102996826,0,0
1922.757995,-0.680328369140625,0.03851318359375,0.039642333984375,0.73077392578125,-0.06103515625,0.3662109375,-0.06103515625,0.1114501953125,0.0054931640625,0.999267578125,-391.0,-22.0,8.0,101941.0,-5.117000102996826,0,0
1922.76502,-0.680328369140625,0.03851318359375,0.0396728515625,0.73077392578125,-0.3662109375,0.30517578125,-0.06103515625,0.1129150390625,0.0076904296875,1.0018310546875,-391.0,-22.0,8.0,101941.0,-5.116000175476074,0,0
1922.771999,-0.680328369140625,0.03851318359375,0.0396728515625,0.73077392578125,-0.06103515625,0.42724609375,0.06103515625,0.1114501953125,0.0072021484375,1.0023193359375,-391.0,-22.0,8.0,101941.0,-5.116000175476074,0,0
1922.779016,-0.680328369140625,0.03851318359375,0.0396728515625,0.73077392578125,-0.06103515625,0.244140625,0.1220703125,0.1126708984375,0.005859375,1.000732421875,-391.0,-22.0,8.0,101941.0,-5.116000175476074,0,0
1922.785998,-0.680328369140625,0.03851318359375,0.0396728515625,0.73077392578125,-0.1220703125,0.18310546875,0.18310546875,0.112548828125,0.0064697265625,1.001708984375,-391.0,-22.0,8.0,101941.0,-5.116000175476074,0,0
1922.792997,-0.680328369140625,0.03851318359375,0.0396728515625,0.73077392578125,-0.06103515625,0.0,0.06103515625,0.111083984375,0.0052490234375,1.0010986328125,-391.0,-22.0,8.0,101941.0,-5.116000175476074,0,0
1922.800022,-0.680328369140625,0.03851318359375,0.0396728515625,0.73077392578125,0.06103515625,0.3662109375,-0.1220703125,0.1099853515625,0.0062255859375,1.00048828125,-391.0,-22.0,8.0,101941.0,-5.116000175476074,0,0
1922.807001,-0.680328369140625,0.038482666015625,0.0396728515625,0.73077392578125,0.06103515625,0.42724609375,-0.1220703125,0.1090087890625,0.005126953125,1.0008544921875,-391.0,-22.0,8.0,101941.0,-5.116000175476074,0,0
1922.814015,-0.680328369140625,0.03851318359375,0.0396728515625,0.73077392578125,0.1220703125,0.3662109375,0.1220703125,0.109619140625,0.0057373046875,0.9986572265625,-391.0,-22.0,8.0,101941.0,-5.116000175476074,0,0
1922.821,-0.680328369140625,0.03851318359375,0.0396728515625,0.73077392578125,-0.18310546875,0.1220703125,0.244140625,0.1119384765625,0.0052490234375,0.9989013671875,-390.0,-22.0,9.0,101941.0,-5.116000175476074,0,0
1922.827999,-0.68060302734375,0.038482666015625,0.039703369140625,0.73052978515625,-0.18310546875,0.18310546875,0.1220703125,0.111083984375,0.0062255859375,1.0006103515625,-390.0,-22.0,9.0,101941.0,-5.116000175476074,0,0
1922.848,-0.68060302734375,0.038482666015625,0.039703369140625,0.73052978515625,0.06103515625,0.244140625,-0.1220703125,0.1109619140625,0.0045166015625,0.9991455078125,-390.0,-22.0,9.0,101941.0,-5.116000175476074,0,0
1922.85502,-0.68060302734375,0.038482666015625,0.039703369140625,0.73052978515625,0.0,0.18310546875,0.30517578125,0.1099853515625,0.006103515625,1.0008544921875,-390.0,-22.0,9.0,101941.0,-5.116000175476074,0,0
1922.861999,-0.68060302734375,0.038482666015625,0.039703369140625,0.73052978515625,-0.06103515625,0.0,-0.06103515625,0.111572265625,0.0028076171875,1.0003662109375,-390.0,-22.0,9.0,101941.0,-5.116000175476074,0,0
1922.869016,-0.68060302734375,0.038482666015625,0.039703369140625,0.73052978515625,0.1220703125,0.244140625,0.1220703125,0.111083984375,0.0069580078125,1.0009765625,-390.0,-22.0,9.0,101941.0,-5.115000247955322,0,0
1922.875998,-0.68060302734375,0.0384521484375,0.039703369140625,0.73052978515625,-0.06103515625,0.30517578125,0.06103515625,0.1103515625,0.005859375,0.999755859375,-390.0,-22.0,9.0,101941.0,-5.115000247955322,0,0
1922.882997,-0.68060302734375,0.0384521484375,0.039703369140625,0.73052978515625,-0.06103515625,0.30517578125,0.06103515625,0.1085205078125,0.005126953125,0.9998779296875,-390.0,-22.0,9.0,101941.0,-5.115000247955322,0,0
1922.890022,-0.68060302734375,0.038482666015625,0.039703369140625,0.73052978515625,0.0,0.244140625,0.06103515625,0.1109619140625,0.0035400390625,1.0,-390.0,-22.0,9.0,101941.0,-5.115000247955322,0,0
1922.897001,-0.68060302734375,0.0384521484375,0.039703369140625,0.73052978515625,-0.1220703125,0.244140625,-0.18310546875,0.1103515625,0.0086669921875,1.0009765625,-390.0,-22.0,9.0,101941.0,-5.115000247955322,0,0
1922.904015,-0.68060302734375,0.0384521484375,0.039703369140625,0.73052978515625,-0.1220703125,-0.06103515625,0.06103515625,0.1104736328125,0.0069580078125,1.0006103515625,-390.0,-22.0,9.0,101941.0,-5.115000247955322,0,0
1922.910995,-0.68060302734375,0.0384521484375,0.039703369140625,0.73052978515625,-0.06103515625,0.06103515625,0.06103515625,0.1112060546875,0.0057373046875,1.000244140625,-390.0,-22.0,9.0,101941.0,-5.115000247955322,0,0
1922.917995,-0.68060302734375,0.0384521484375,0.03973388671875,0.73052978515625,0.18310546875,0.18310546875,0.1220703125,0.114013671875,0.0069580078125,1.0009765625,-389.0,-22.0,10.0,101941.0,-5.115000247955322,0,0
1922.937995,-0.680908203125,0.0384521484375,0.03973388671875,0.730255126953125,-0.1220703125,0.3662109375,-0.06103515625,0.10986328125,0.0050048828125,0.998779296875,-389.0,-22.0,10.0,101941.0,-5.115000247955322,0,0
1922.94502,-0.680908203125,0.038421630859375,0.03973388671875,0.730255126953125,-0.06103515625,0.244140625,0.0,0.109375,0.0087890625,1.0001220703125,-389.0,-22.0,10.0,101941.0,-5.115000247955322,0,0
1922.951999,-0.680908203125,0.038421630859375,0.03973388671875,0.730255126953125,0.06103515625,0.18310546875,0.18310546875,0.10986328125,0.0064697265625,1.000732421875,-389.0,-22.0,10.0,101941.0,-5.115000247955322,0,0
1922.959016,-0.680908203125,0.038421630859375,0.03973388671875,0.730255126953125,0.06103515625,0.244140625,0.1220703125,0.111572265625,0.0047607421875,1.0013427734375,-389.0,-22.0,10.0,101941.0,-5.115000247955322,0,0
1922.965997,-0.680908203125,0.038421630859375,0.03973388671875,0.730255126953125,-0.244140625,0.06103515625,-0.06103515625,0.1109619140625,0.0064697265625,1.0006103515625,-389.0,-22.0,10.0,101941.0,-5.116000175476074,0,0
1922.972997,-0.680908203125,0.038421630859375,0.03973388671875,0.730255126953125,0.0,0.30517578125,-0.06103515625,0.1099853515625,0.005859375,1.00048828125,-389.0,-22.0,10.0,101941.0,-5.116000175476074,0,0
1922.980022,-0.680908203125,0.038421630859375,0.03973388671875,0.730255126953125,-0.1220703125,0.42724609375,-0.06103515625,0.1099853515625,0.0057373046875,0.999755859375,-389.0,-22.0,10.0,101941.0,-5.116000175476074,0,0
1922.987001,-0.680908203125,0.038421630859375,0.039703369140625,0.730255126953125,-0.06103515625,0.1220703125,-0.18310546875,0.1102294921875,0.00634765625,1.0,-389.0,-22.0,10.0,101941.0,-5.116000175476074,0,0
1922.994015,-0.680908203125,0.038421630859375,0.039703369140625,0.730255126953125,0.06103515625,0.3662109375,0.1220703125,0.108154296875,0.00537109375,1.0009765625,-389.0,-22.0,10.0,101941.0,-5.116000175476074,0,0
1923.000996,-0.680908203125,0.038421630859375,0.039703369140625,0.730255126953125,0.1220703125,0.42724609375,-0.18310546875,0.1103515625,0.0052490234375,1.000244140625,-389.0,-22.0,10.0,101941.0,-5.116000175476074,0,0
1923.007995,-0.680908203125,0.038421630859375,0.039703369140625,0.730255126953125,-0.1220703125,0.18310546875,0.244140625,0.1099853515625,0.0050048828125,1.000244140625,-389.0,-22.0,10.0,101941.0,-5.116000175476074,0,0
1923.015019,-0.680908203125,0.038421630859375,0.039703369140625,0.730255126953125,-0.1220703125,0.3662109375,0.0,0.1082763671875,0.006103515625,1.0013427734375,-389.0,-22.0,10.0,101941.0,-5.116000175476074,0,0
1923.021052,-0.680908203125,0.038421630859375,0.039703369140625,0.730255126953125,-0.1220703125,0.3662109375,0.0,0.1082763671875,0.006103515625,1.0013427734375,-389.0,-22.0,10.0,101941.0,-5.116000175476074,0,0
1923.077001,-0.681182861328125,0.03839111328125,0.039703369140625,0.730010986328125,-0.1220703125,0.244140625,0.18310546875,0.1121826171875,0.0040283203125,0.999755859375,-390.0,-22.0,11.0,101941.0,-5.117000102996826,0,0
1923.084015,-0.681182861328125,0.03839111328125,0.039703369140625,0.730010986328125,0.06103515625,0.18310546875,0.0,0.1092529296875,0.005615234375,1.00048828125,-390.0,-22.0,11.0,101941.0,-5.117000102996826,0,0
1923.091,-0.681182861328125,0.03839111328125,0.039703369140625,0.730010986328125,0.06103515625,0.3662109375,0.0,0.11083984375,0.0054931640625,0.9993896484375,-390.0,-22.0,11.0,101941.0,-5.117000102996826,0,0
1923.112003,-0.681182861328125,0.038421630859375,0.03973388671875,0.730010986328125,0.18310546875,0.244140625,-0.06103515625,0.11376953125,0.00537109375,1.0020751953125,-390.0,-22.0,11.0,101941.0,-5.117000102996826,0,0
1923.118036,-0.681182861328125,0.038421630859375,0.03973388671875,0.730010986328125,0.18310546875,0.244140625,-0.06103515625,0.11376953125,0.00537109375,1.0020751953125,-390.0,-22.0,11.0,101941.0,-5.117000102996826,0,0
1923.12502,-0.68145751953125,0.038421630859375,0.03973388671875,0.729736328125,0.0,0.30517578125,0.18310546875,0.1114501953125,0.0050048828125,1.0018310546875,-390.0,-21.0,11.0,101941.0,-5.117000102996826,0,0
1923.131999,-0.68145751953125,0.038421630859375,0.03973388671875,0.729736328125,0.0,0.244140625,-0.18310546875,0.1104736328125,0.0069580078125,1.000732421875,-390.0,-21.0,11.0,101941.0,-5.117000102996826,0,0
1923.139016,-0.68145751953125,0.038421630859375,0.03973388671875,0.729736328125,-0.1220703125,0.244140625,0.0,0.1126708984375,0.006103515625,1.000244140625,-390.0,-21.0,11.0,101941.0,-5.117000102996826,0,0
1923.145998,-0.68145751953125,0.038421630859375,0.03973388671875,0.729736328125,-0.06103515625,0.244140625,0.0,0.1126708984375,0.005126953125,1.0008544921875,-390.0,-21.0,11.0,101941.0,-5.117000102996826,0,0
1923.152997,-0.68145751953125,0.038421630859375,0.03973388671875,0.729736328125,0.0,0.30517578125,-0.18310546875,0.1124267578125,0.0059814453125,0.99951171875,-390.0,-21.0,11.0,101941.0,-5.117000102996826,0,0
1923.160022,-0.68145751953125,0.038421630859375,0.03973388671875,0.729736328125,0.30517578125,0.42724609375,-0.18310546875,0.110595703125,0.0067138671875,1.000244140625,-390.0,-21.0,11.0,101941.0,-5.117000102996826,0,0
1923.167001,-0.68145751953125,0.038421630859375,0.03973388671875,0.729736328125,-0.18310546875,0.30517578125,-0.06103515625,0.10888671875,0.0052490234375,1.0,-390.0,-21.0,11.0,101941.0,-5.117000102996826,0,0
1923.174015,-0.68145751953125,0.038421630859375,0.039764404296875,0.729736328125,0.0,0.48828125,-0.06103515625,0.1129150390625,0.005615234375,1.0008544921875,-390.0,-21.0,11.0,101941.0,-5.117000102996826,0,0
1923.181,-0.68145751953125,0.038421630859375,0.039764404296875,0.729736328125,-0.06103515625,0.244140625,-0.18310546875,0.1104736328125,0.0076904296875,1.0006103515625,-390.0,-21.0,11.0,101941.0,-5.117000102996826,0,0
1923.195019,-0.68145751953125,0.03839111328125,0.039764404296875,0.729736328125,0.06103515625,0.30517578125,0.06103515625,0.1102294921875,0.006591796875,1.0003662109375,-390.0,-21.0,11.0,101941.0,-5.117000102996826,0,0
1923.202003,-0.68145751953125,0.038421630859375,0.039764404296875,0.729736328125,-0.3662109375,0.244140625,-0.1220703125,0.11328125,0.0052490234375,1.000732421875,-390.0,-21.0,11.0,101941.0,-5.117000102996826,0,0
1923.208036,-0.68145751953125,0.038421630859375,0.039764404296875,0.729736328125,-0.3662109375,0.244140625,-0.1220703125,0.11328125,0.0052490234375,1.000732421875,-390.0,-21.0,11.0,101941.0,-5.117000102996826,0,0
1923.21502,-0.68145751953125,0.038421630859375,0.039764404296875,0.729736328125,-0.1220703125,0.244140625,0.1220703125,0.11181640625,0.005615234375,1.00048828125,-390.0,-21.0,11.0,101941.0,-5.117000102996826,0,0
1923.221999,-0.681732177734375,0.03839111328125,0.039764404296875,0.729461669921875,0.0,0.42724609375,-0.06103515625,0.1099853515625,0.00537109375,1.00048828125,-392.0,-21.0,11.0,101941.0,-5.117000102996826,0,0
1923.229016,-0.681732177734375,0.03839111328125,0.039764404296875,0.729461669921875,-0.18310546875,0.3662109375,0.06103515625,0.1123046875,0.0052490234375,1.0008544921875,-392.0,-21.0,11.0,101941.0,-5.117000102996826,0,0
1923.235998,-0.681732177734375,0.03839111328125,0.039764404296875,0.729461669921875,0.1220703125,0.244140625,-0.30517578125,0.110107421875,0.006591796875,1.0009765625,-392.0,-21.0,11.0,101941.0,-5.117000102996826,0,0
1923.242997,-0.681732177734375,0.03839111328125,0.039764404296875,0.729461669921875,-0.18310546875,0.30517578125,0.06103515625,0.10986328125,0.0050048828125,1.0,-392.0,-21.0,11.0,101941.0,-5.117000102996826,0,0
1923.250022,-0.681732177734375,0.03839111328125,0.039764404296875,0.729461669921875,-0.18310546875,0.0,0.0,0.1099853515625,0.006591796875,0.99853515625,-392.0,-21.0,11.0,101941.0,-5.117000102996826,0,0
1923.257001,-0.681732177734375,0.03839111328125,0.039764404296875,0.729461669921875,0.06103515625,0.3662109375,0.18310546875,0.1114501953125,0.0059814453125,1.0010986328125,-392.0,-21.0,11.0,101941.0,-5.117000102996826,0,0
1923.264015,-0.681732177734375,0.03839111328125,0.039764404296875,0.729461669921875,0.1220703125,0.244140625,-0.1220703125,0.113037109375,0.0052490234375,1.0009765625,-392.0,-21.0,11.0,101941.0,-5.118000030517578,0,0
1923.270995,-0.681732177734375,0.03839111328125,0.039764404296875,0.729461669921875,-0.06103515625,0.42724609375,-0.06103515625,0.1087646484375,0.0078125,0.99853515625,-392.0,-21.0,11.0,101941.0,-5.118000030517578,0,0
1923.277995,-0.681732177734375,0.03839111328125,0.039764404296875,0.729461669921875,0.18310546875,0.18310546875,-0.244140625,0.1103515625,0.007080078125,0.9991455078125,-392.0,-21.0,11.0,101941.0,-5.118000030517578,0,0
1923.285019,-0.681732177734375,0.038360595703125,0.039764404296875,0.729461669921875,-0.06103515625,0.18310546875,0.06103515625,0.109619140625,0.0054931640625,1.0,-392.0,-21.0,11.0,101941.0,-5.118000030517578,0,0
1923.292003,-0.681732177734375,0.038360595703125,0.039764404296875,0.729461669921875,-0.244140625,0.244140625,-0.1220703125,0.1104736328125,0.0047607421875,1.0006103515625,-392.0,-21.0,11.0,101941.0,-5.118000030517578,0,0
1923.299019,-0.681732177734375,0.038360595703125,0.039764404296875,0.729461669921875,0.06103515625,0.244140625,-0.1220703125,0.1077880859375,0.0064697265625,0.9991455078125,-392.0,-21.0,11.0,101941.0,-5.118000030517578,0,0
1923.305047,-0.681732177734375,0.038360595703125,0.039764404296875,0.729461669921875,0.06103515625,0.244140625,-0.1220703125,0.1077880859375,0.0064697265625,0.9991455078125,-392.0,-21.0,11.0,101941.0,-5.118000030517578,0,0
1923.311999,-0.681732177734375,0.038360595703125,0.039764404296875,0.729461669921875,-0.1220703125,0.244140625,-0.06103515625,0.111083984375,0.0052490234375,1.0003662109375,-392.0,-21.0,11.0,101941.0,-5.118000030517578,0,0
1923.319016,-0.681732177734375,0.038360595703125,0.039764404296875,0.729461669921875,-0.06103515625,0.244140625,0.06103515625,0.1123046875,0.0067138671875,0.99951171875,-393.0,-21.0,11.0,101941.0,-5.118000030517578,0,0
1923.325998,-0.681976318359375,0.038360595703125,0.039794921875,0.729248046875,0.0,0.18310546875,-0.06103515625,0.1109619140625,0.0067138671875,0.9996337890625,-393.0,-21.0,11.0,101941.0,-5.118000030517578,0,0
1923.332997,-0.681976318359375,0.038360595703125,0.039764404296875,0.729248046875,0.18310546875,0.3662109375,-0.1220703125,0.108642578125,0.0047607421875,0.9990234375,-393.0,-21.0,11.0,101941.0,-5.118000030517578,0,0
1923.340022,-0.681976318359375,0.038360595703125,0.039764404296875,0.729248046875,-0.06103515625,0.42724609375,0.06103515625,0.111328125,0.005126953125,1.0008544921875,-393.0,-21.0,11.0,101941.0,-5.118000030517578,0,0
1923.347001,-0.681976318359375,0.038360595703125,0.039764404296875,0.729248046875,-0.18310546875,0.54931640625,0.18310546875,0.112060546875,0.0048828125,0.9986572265625,-393.0,-21.0,11.0,101941.0,-5.118000030517578,0,0
1923.354015,-0.681976318359375,0.038360595703125,0.039764404296875,0.729248046875,-0.18310546875,0.3662109375,0.06103515625,0.1090087890625,0.0086669921875,0.9991455078125,-393.0,-21.0,11.0,101941.0,-5.118000030517578,0,0
1923.375019,-0.681976318359375,0.038360595703125,0.039764404296875,0.729248046875,-0.06103515625,0.244140625,0.06103515625,0.110107421875,0.00439453125,0.9974365234375,-393.0,-21.0,11.0,101941.0,-5.118000030517578,0,0
1923.382003,-0.681976318359375,0.038360595703125,0.039764404296875,0.729248046875,0.0,0.0,0.0,0.1103515625,0.0069580078125,1.000732421875,-393.0,-21.0,11.0,101941.0,-5.118000030517578,0,0
1923.389018,-0.681976318359375,0.038360595703125,0.039764404296875,0.729248046875,0.0,0.244140625,0.06103515625,0.114013671875,0.00439453125,0.9998779296875,-393.0,-21.0,11.0,101941.0,-5.118000030517578,0,0
1923.395051,-0.681976318359375,0.038360595703125,0.039764404296875,0.729248046875,0.0,0.244140625,0.06103515625,0.114013671875,0.00439453125,0.9998779296875,-393.0,-21.0,11.0,101941.0,-5.118000030517578,0,0
1923.401999,-0.681976318359375,0.038360595703125,0.039764404296875,0.729248046875,-0.244140625,0.30517578125,-0.06103515625,0.1109619140625,0.0072021484375,0.9989013671875,-393.0,-21.0,11.0,101941.0,-5.118000030517578,0,0
1923.409016,-0.681976318359375,0.038360595703125,0.039764404296875,0.729248046875,0.06103515625,0.18310546875,0.06103515625,0.109130859375,0.007080078125,0.999267578125,-393.0,-21.0,11.0,101941.0,-5.118000030517578,0,0
1923.415998,-0.681976318359375,0.03839111328125,0.039764404296875,0.729248046875,0.0,0.30517578125,0.06103515625,0.114013671875,0.00341796875,1.0001220703125,-393.0,-21.0,11.0,101941.0,-5.118000030517578,0,0
1923.422997,-0.682281494140625,0.038360595703125,0.039794921875,0.72894287109375,-0.1220703125,0.3662109375,0.1220703125,0.110595703125,0.0072021484375,1.0009765625,-395.0,-20.0,12.0,101941.0,-5.118000030517578,0,0
1923.430022,-0.682281494140625,0.038360595703125,0.039794921875,0.72894287109375,-0.18310546875,0.1220703125,0.0,0.10986328125,0.0067138671875,1.001220703125,-395.0,-20.0,12.0,101941.0,-5.118000030517578,0,0
1923.437001,-0.682281494140625,0.038360595703125,0.039794921875,0.72894287109375,0.06103515625,0.1220703125,-0.1220703125,0.1126708984375,0.007080078125,1.0015869140625,-395.0,-20.0,12.0,101941.0,-5.118000030517578,0,0
1923.457999,-0.682281494140625,0.038360595703125,0.039794921875,0.72894287109375,0.0,0.244140625,-0.1220703125,0.1083984375,0.0068359375,1.0006103515625,-395.0,-20.0,12.0,101941.0,-5.118000030517578,0,0
1923.46502,-0.682281494140625,0.038330078125,0.039794921875,0.72894287109375,0.0,0.244140625,-0.1220703125,0.1083984375,0.0068359375,1.0006103515625,-395.0,-20.0,12.0,101941.0,-5.118000030517578,0,0
1923.485997,-0.682281494140625,0.038360595703125,0.039794921875,0.72894287109375,0.0,0.06103515625,0.0,0.1114501953125,0.0045166015625,1.001708984375,-395.0,-20.0,12.0,101941.0,-5.118000030517578,0,0
1923.492025,-0.682281494140625,0.038360595703125,0.039794921875,0.72894287109375,0.0,0.06103515625,0.0,0.1114501953125,0.0045166015625,1.001708984375,-395.0,-20.0,12.0,101941.0,-5.118000030517578,0,0
1923.499016,-0.682281494140625,0.038360595703125,0.039794921875,0.72894287109375,0.0,0.244140625,0.0,0.1083984375,0.0048828125,1.0003662109375,-395.0,-20.0,12.0,101941.0,-5.118000030517578,0,0
1923.505997,-0.682281494140625,0.038360595703125,0.039794921875,0.72894287109375,-0.42724609375,0.1220703125,0.1220703125,0.1099853515625,0.00537109375,0.9981689453125,-395.0,-20.0,12.0,101941.0,-5.118000030517578,0,0
1923.512997,-0.682281494140625,0.038360595703125,0.039794921875,0.72894287109375,0.18310546875,0.42724609375,0.0,0.1090087890625,0.0050048828125,0.9970703125,-395.0,-20.0,12.0,101941.0,-5.118000030517578,0,0
1923.520022,-0.6826171875,0.038330078125,0.039794921875,0.7286376953125,-0.18310546875,0.18310546875,0.1220703125,0.112548828125,0.0048828125,1.0009765625,-394.0,-20.0,12.0,101941.0,-5.118000030517578,0,0
1923.527001,-0.6826171875,0.038330078125,0.039794921875,0.7286376953125,0.06103515625,0.18310546875,-0.06103515625,0.11181640625,0.0045166015625,0.9998779296875,-394.0,-20.0,12.0,101941.0,-5.118000030517578,0,0
1923.534015,-0.6826171875,0.038330078125,0.039794921875,0.7286376953125,-0.1220703125,0.0,-0.1220703125,0.110595703125,0.008544921875,1.0008544921875,-394.0,-20.0,12.0,101941.0,-5.118000030517578,0,0
1923.540995,-0.6826171875,0.038330078125,0.039794921875,0.7286376953125,0.06103515625,0.18310546875,-0.06103515625,0.1114501953125,0.00537109375,1.0008544921875,-394.0,-20.0,12.0,101941.0,-5.118000030517578,0,0
1923.547995,-0.6826171875,0.038330078125,0.039794921875,0.7286376953125,0.244140625,0.18310546875,0.30517578125,0.1097412109375,0.0030517578125,1.00146484375,-394.0,-20.0,12.0,101941.0,-5.118000030517578,0,0
1923.555019,-0.6826171875,0.038330078125,0.039794921875,0.7286376953125,0.06103515625,0.244140625,0.06103515625,0.1102294921875,0.005615234375,0.998779296875,-394.0,-20.0,12.0,101941.0,-5.118000030517578,0,0
1923.562003,-0.6826171875,0.038330078125,0.039794921875,0.7286376953125,0.244140625,0.3662109375,-0.06103515625,0.10986328125,0.0037841796875,0.9996337890625,-394.0,-20.0,12.0,101941.0,-5.118000030517578,0,0
1923.569018,-0.6826171875,0.038330078125,0.039794921875,0.7286376953125,0.06103515625,0.1220703125,-0.244140625,0.1119384765625,0.0057373046875,1.001220703125,-394.0,-20.0,12.0,101941.0,-5.118000030517578,0,0
1923.575997,-0.6826171875,0.038330078125,0.039794921875,0.7286376953125,-0.1220703125,0.1220703125,0.18310546875,0.1119384765625,0.00732421875,1.0001220703125,-394.0,-20.0,12.0,101941.0,-5.118000030517578,0,0
1923.582025,-0.6826171875,0.038330078125,0.039794921875,0.7286376953125,-0.1220703125,0.1220703125,0.18310546875,0.1119384765625,0.00732421875,1.0001220703125,-394.0,-20.0,12.0,101941.0,-5.118000030517578,0,0
1923.589016,-0.6826171875,0.038330078125,0.039794921875,0.7286376953125,-0.1220703125,0.06103515625,0.1220703125,0.1109619140625,0.0076904296875,1.0008544921875,-394.0,-20.0,12.0,101941.0,-5.118000030517578,0,0
1923.595997,-0.6826171875,0.038330078125,0.039794921875,0.7286376953125,0.0,0.244140625,-0.1220703125,0.1107177734375,0.00439453125,0.9993896484375,-394.0,-20.0,12.0,101941.0,-5.118000030517578,0,0
1923.602997,-0.6826171875,0.038330078125,0.039794921875,0.7286376953125,-0.30517578125,0.30517578125,-0.18310546875,0.1112060546875,0.0048828125,1.0009765625,-394.0,-20.0,12.0,101941.0,-5.118000030517578,0,0
1923.610022,-0.6826171875,0.038330078125,0.039794921875,0.7286376953125,0.06103515625,0.1220703125,0.06103515625,0.1083984375,0.005126953125,0.9990234375,-394.0,-20.0,12.0,101941.0,-5.118000030517578,0,0
1923.630996,-0.682891845703125,0.038330078125,0.039794921875,0.7283935546875,0.06103515625,0.30517578125,0.0,0.11083984375,0.002685546875,1.0003662109375,-394.0,-20.0,12.0,101941.0,-5.117000102996826,0,0
1923.637995,-0.682891845703125,0.038330078125,0.039794921875,0.7283935546875,0.0,0.3662109375,0.0,0.1109619140625,0.00439453125,1.0015869140625,-394.0,-20.0,12.0,101941.0,-5.117000102996826,0,0
1923.645019,-0.682891845703125,0.038330078125,0.039794921875,0.7283935546875,0.1220703125,0.30517578125,-0.06103515625,0.111328125,0.00439453125,1.00048828125,-394.0,-20.0,12.0,101941.0,-5.117000102996826,0,0
1923.652003,-0.682891845703125,0.038330078125,0.039794921875,0.7283935546875,0.0,0.30517578125,-0.1220703125,0.1112060546875,0.005859375,1.0008544921875,-394.0,-20.0,12.0,101941.0,-5.117000102996826,0,0
1923.659018,-0.682891845703125,0.038330078125,0.039794921875,0.7283935546875,0.18310546875,0.30517578125,0.0,0.1109619140625,0.0047607421875,0.999755859375,-394.0,-20.0,12.0,101941.0,-5.117000102996826,0,0
1923.665997,-0.682891845703125,0.038330078125,0.039794921875,0.7283935546875,0.244140625,0.1220703125,0.1220703125,0.10986328125,0.004150390625,1.0015869140625,-394.0,-20.0,12.0,101941.0,-5.117000102996826,0,0
1923.672025,-0.682891845703125,0.038330078125,0.039794921875,0.7283935546875,0.244140625,0.1220703125,0.1220703125,0.10986328125,0.004150390625,1.0015869140625,-394.0,-20.0,12.0,101941.0,-5.117000102996826,0,0
1923.679016,-0.682891845703125,0.038330078125,0.039794921875,0.7283935546875,-0.18310546875,0.30517578125,-0.06103515625,0.1114501953125,0.0057373046875,1.0006103515625,-394.0,-20.0,12.0,101941.0,-5.117000102996826,0,0
1923.685998,-0.682891845703125,0.038330078125,0.039794921875,0.7283935546875,0.1220703125,0.0,0.3662109375,0.1126708984375,0.0048828125,1.0015869140625,-394.0,-20.0,12.0,101941.0,-5.117000102996826,0,0
1923.692997,-0.682891845703125,0.038330078125,0.039794921875,0.7283935546875,0.06103515625,0.30517578125,0.0,0.112060546875,0.005126953125,0.999267578125,-394.0,-20.0,12.0,101941.0,-5.117000102996826,0,0
1923.700022,-0.682891845703125,0.038330078125,0.039794921875,0.7283935546875,-0.30517578125,0.06103515625,0.18310546875,0.1109619140625,0.0054931640625,0.9998779296875,-394.0,-20.0,12.0,101941.0,-5.117000102996826,0,0
1923.721,-0.682891845703125,0.038330078125,0.039764404296875,0.7283935546875,0.06103515625,0.244140625,-0.18310546875,0.1092529296875,0.005859375,1.0018310546875,-394.0,-20.0,11.0,101941.0,-5.117000102996826,0,0
1923.727999,-0.68316650390625,0.038330078125,0.039794921875,0.728118896484375,0.0,0.244140625,0.1220703125,0.1112060546875,0.00439453125,1.0009765625,-394.0,-20.0,11.0,101941.0,-5.117000102996826,0,0
1923.73502,-0.68316650390625,0.038330078125,0.039794921875,0.728118896484375,-0.06103515625,0.1220703125,0.06103515625,0.10986328125,0.0068359375,1.0015869140625,-394.0,-20.0,11.0,101941.0,-5.117000102996826,0,0
1923.742003,-0.68316650390625,0.038330078125,0.039794921875,0.728118896484375,-0.18310546875,0.18310546875,-0.244140625,0.111572265625,0.0074462890625,1.002197265625,-394.0,-20.0,11.0,101941.0,-5.117000102996826,0,0
1923.749018,-0.68316650390625,0.038330078125,0.039794921875,0.728118896484375,0.244140625,0.18310546875,0.18310546875,0.112060546875,0.0025634765625,1.001708984375,-394.0,-20.0,11.0,101941.0,-5.117000102996826,0,0
1923.755997,-0.68316650390625,0.038330078125,0.039764404296875,0.728118896484375,0.0,0.18310546875,-0.1220703125,0.1087646484375,0.0030517578125,1.0010986328125,-394.0,-20.0,11.0,101941.0,-5.117000102996826,0,0
1923.762996,-0.68316650390625,0.038330078125,0.039764404296875,0.728118896484375,-0.1220703125,0.48828125,0.06103515625,0.108642578125,0.0057373046875,1.0013427734375,-394.0,-20.0,11.0,101941.0,-5.117000102996826,0,0
1923.769029,-0.68316650390625,0.038330078125,0.039764404296875,0.728118896484375,-0.1220703125,0.48828125,0.06103515625,0.108642578125,0.0057373046875,1.0013427734375,-394.0,-20.0,11.0,101941.0,-5.117000102996826,0,0
1923.775998,-0.68316650390625,0.038330078125,0.039764404296875,0.728118896484375,-0.06103515625,0.244140625,0.1220703125,0.1112060546875,0.0072021484375,1.0010986328125,-394.0,-20.0,11.0,101941.0,-5.117000102996826,0,0
1923.782997,-0.68316650390625,0.038330078125,0.039764404296875,0.728118896484375,-0.3662109375,0.48828125,0.1220703125,0.1119384765625,0.0028076171875,1.0003662109375,-394.0,-20.0,11.0,101941.0,-5.117000102996826,0,0
1923.790022,-0.68316650390625,0.038360595703125,0.039764404296875,0.728118896484375,-0.18310546875,0.18310546875,-0.18310546875,0.109619140625,0.0042724609375,1.0008544921875,-394.0,-20.0,11.0,101941.0,-5.117000102996826,0,0
1923.797001,-0.68316650390625,0.038360595703125,0.039764404296875,0.728118896484375,0.18310546875,0.3662109375,0.18310546875,0.10888671875,0.005859375,0.998291015625,-394.0,-20.0,11.0,101941.0,-5.117000102996826,0,0
1923.804015,-0.68316650390625,0.038360595703125,0.039764404296875,0.728118896484375,0.1220703125,0.244140625,0.06103515625,0.1104736328125,0.007080078125,1.001220703125,-394.0,-20.0,11.0,101941.0,-5.117000102996826,0,0
1923.810996,-0.68316650390625,0.038330078125,0.039764404296875,0.728118896484375,-0.06103515625,0.0,0.18310546875,0.1116943359375,0.0068359375,0.999267578125,-394.0,-20.0,11.0,101941.0,-5.117000102996826,0,0
1923.817995,-0.68316650390625,0.038330078125,0.039764404296875,0.728118896484375,-0.06103515625,0.3662109375,-0.06103515625,0.109619140625,0.0059814453125,0.9993896484375,-393.0,-20.0,11.0,101941.0,-5.118000030517578,0,0
1923.825019,-0.6834716796875,0.038330078125,0.039794921875,0.727874755859375,0.06103515625,0.244140625,-0.30517578125,0.1126708984375,0.00634765625,0.99951171875,-393.0,-20.0,11.0,101941.0,-5.118000030517578,0,0
1923.832003,-0.6834716796875,0.038330078125,0.039764404296875,0.727874755859375,-0.1220703125,0.48828125,0.0,0.1126708984375,0.0037841796875,0.9996337890625,-393.0,-20.0,11.0,101941.0,-5.118000030517578,0,0
1923.839018,-0.6834716796875,0.038330078125,0.039764404296875,0.727874755859375,-0.06103515625,0.06103515625,-0.244140625,0.1085205078125,0.004638671875,0.9998779296875,-393.0,-20.0,11.0,101941.0,-5.118000030517578,0,0
1923.845997,-0.6834716796875,0.038330078125,0.039764404296875,0.727874755859375,0.06103515625,0.18310546875,-0.1220703125,0.1103515625,0.0054931640625,0.9998779296875,-393.0,-20.0,11.0,101941.0,-5.118000030517578,0,0
1923.852996,-0.6834716796875,0.038330078125,0.039764404296875,0.727874755859375,0.06103515625,0.06103515625,0.244140625,0.1099853515625,0.0035400390625,1.001953125,-393.0,-20.0,11.0,101941.0,-5.118000030517578,0,0
1923.859029,-0.6834716796875,0.038330078125,0.039764404296875,0.727874755859375,0.06103515625,0.06103515625,0.244140625,0.1099853515625,0.0035400390625,1.001953125,-393.0,-20.0,11.0,101941.0,-5.118000030517578,0,0
1923.865998,-0.6834716796875,0.038330078125,0.039764404296875,0.727874755859375,-0.244140625,0.1220703125,0.1220703125,0.1121826171875,0.0064697265625,0.99853515625,-393.0,-20.0,11.0,101941.0,-5.118000030517578,0,0
1923.872997,-0.6834716796875,0.038330078125,0.039764404296875,0.727874755859375,0.06103515625,0.244140625,-0.1220703125,0.1107177734375,0.0068359375,1.000732421875,-393.0,-20.0,11.0,101941.0,-5.118000030517578,0,0
1923.894015,-0.6834716796875,0.038330078125,0.039764404296875,0.727874755859375,0.244140625,0.42724609375,0.0,0.111328125,0.006591796875,1.0006103515625,-393.0,-20.0,11.0,101941.0,-5.118000030517578,0,0
1923.900995,-0.6834716796875,0.038330078125,0.039764404296875,0.727874755859375,-0.244140625,0.3662109375,0.0,0.11083984375,0.0062255859375,1.00048828125,-393.0,-20.0,11.0,101941.0,-5.118000030517578,0,0
1923.907995,-0.6834716796875,0.038330078125,0.039764404296875,0.727874755859375,-0.06103515625,0.3662109375,0.0,0.1121826171875,0.0064697265625,1.00146484375,-393.0,-20.0,11.0,101941.0,-5.118000030517578,0,0
1923.915019,-0.6834716796875,0.038330078125,0.039764404296875,0.727874755859375,-0.06103515625,0.1220703125,0.06103515625,0.10986328125,0.0064697265625,1.0025634765625,-394.0,-21.0,11.0,101941.0,-5.118000030517578,0,0
1923.922003,-0.68365478515625,0.038299560546875,0.039794921875,0.727691650390625,-0.1220703125,0.3662109375,0.06103515625,0.110595703125,0.008544921875,0.999267578125,-394.0,-21.0,11.0,101941.0,-5.118000030517578,0,0
1923.929018,-0.68365478515625,0.038299560546875,0.039794921875,0.727691650390625,-0.06103515625,0.1220703125,-0.06103515625,0.109619140625,0.005615234375,1.001708984375,-394.0,-21.0,11.0,101941.0,-5.118000030517578,0,0
1923.935997,-0.68365478515625,0.03826904296875,0.039764404296875,0.727691650390625,0.244140625,0.244140625,-0.18310546875,0.110595703125,0.0054931640625,0.9993896484375,-394.0,-21.0,11.0,101941.0,-5.118000030517578,0,0
1923.942996,-0.68365478515625,0.03826904296875,0.039764404296875,0.727691650390625,-0.1220703125,0.244140625,-0.18310546875,0.1104736328125,0.005126953125,0.998779296875,-394.0,-21.0,11.0,101941.0,-5.118000030517578,0,0
1923.950016,-0.68365478515625,0.03826904296875,0.039794921875,0.727691650390625,0.1220703125,0.30517578125,-0.1220703125,0.110107421875,0.00634765625,0.998779296875,-394.0,-21.0,11.0,101941.0,-5.118000030517578,0,0
1923.956049,-0.68365478515625,0.03826904296875,0.039794921875,0.727691650390625,0.1220703125,0.30517578125,-0.1220703125,0.110107421875,0.00634765625,0.998779296875,-394.0,-21.0,11.0,101941.0,-5.118000030517578,0,0
1923.962997,-0.68365478515625,0.03826904296875,0.039794921875,0.727691650390625,-0.06103515625,-0.06103515625,0.18310546875,0.11083984375,0.0045166015625,0.9996337890625,-394.0,-21.0,11.0,101941.0,-5.118000030517578,0,0
1923.984015,-0.68365478515625,0.038299560546875,0.039764404296875,0.727691650390625,-0.06103515625,0.30517578125,0.0,0.1103515625,0.0047607421875,1.000732421875,-394.0,-21.0,11.0,101941.0,-5.118000030517578,0,0
1923.991,-0.68365478515625,0.038299560546875,0.039764404296875,0.727691650390625,0.06103515625,0.18310546875,0.0,0.111083984375,0.0052490234375,0.9998779296875,-394.0,-21.0,11.0,101941.0,-5.118000030517578,0,0
1923.997999,-0.68365478515625,0.038299560546875,0.039764404296875,0.727691650390625,-0.1220703125,0.30517578125,0.1220703125,0.110595703125,0.0057373046875,1.0001220703125,-394.0,-21.0,11.0,101941.0,-5.118000030517578,0,0
1924.00502,-0.68365478515625,0.038299560546875,0.039764404296875,0.727691650390625,0.06103515625,0.244140625,0.1220703125,0.108642578125,0.0054931640625,1.0013427734375,-394.0,-21.0,11.0,101941.0,-5.118000030517578,0,0
1924.012003,-0.68365478515625,0.038299560546875,0.039764404296875,0.727691650390625,0.06103515625,0.244140625,-0.1220703125,0.1114501953125,0.005126953125,0.99853515625,-394.0,-21.0,11.0,101941.0,-5.118000030517578,0,0
1924.019019,-0.68365478515625,0.038299560546875,0.039764404296875,0.727691650390625,-0.1220703125,0.3662109375,-0.06103515625,0.111328125,0.0048828125,1.0015869140625,-394.0,-21.0,10.0,101941.0,-5.118000030517578,0,0
1924.025997,-0.683837890625,0.03826904296875,0.039794921875,0.727508544921875,0.30517578125,0.18310546875,-0.3662109375,0.111083984375,0.006591796875,1.0020751953125,-394.0,-21.0,10.0,101941.0,-5.118000030517578,0,0
1924.032996,-0.683837890625,0.03826904296875,0.039794921875,0.727508544921875,0.3662109375,0.48828125,-0.1220703125,0.1112060546875,0.0064697265625,1.00048828125,-394.0,-21.0,10.0,101941.0,-5.118000030517578,0,0
1924.040017,-0.683837890625,0.03826904296875,0.039794921875,0.727508544921875,0.06103515625,0.30517578125,0.0,0.1109619140625,0.0028076171875,0.9989013671875,-394.0,-21.0,10.0,101941.0,-5.118000030517578,0,0
1924.04605,-0.683837890625,0.03826904296875,0.039794921875,0.727508544921875,0.06103515625,0.30517578125,0.0,0.1109619140625,0.0028076171875,0.9989013671875,-394.0,-21.0,10.0,101941.0,-5.118000030517578,0,0
1924.052997,-0.683837890625,0.038299560546875,0.039764404296875,0.727508544921875,0.06103515625,0.0,0.0,0.109130859375,0.0037841796875,0.9993896484375,-394.0,-21.0,10.0,101941.0,-5.118000030517578,0,0
