Time stamp(sec),adc1,adc2,roll_angular_rate,pitch_angular_rate,yaw_angular_rate,acc_X,acc_Y,acc_Z,mag_X,mag_Y,mag_Z,pressure,altitude
0.03442979999817908,0.374603271484375,-0.4530029296875,0.30926513671875,-0.747528076171875,0.3662109375,-0.30517578125,0.0,0.4478759765625,-0.80078125,0.399658203125,-295.0,152.0,-146.0,101700.0,-3.120000123977661,0,0
0.03448970000317786,0.374603271484375,-0.452972412109375,0.30926513671875,-0.747528076171875,-0.18310546875,0.0,-0.1220703125,0.445556640625,-0.8023681640625,0.39990234375,-295.0,152.0,-146.0,101700.0,-3.120000123977661,0,0
0.0345450000022538,0.374603271484375,-0.452972412109375,0.30926513671875,-0.747528076171875,-0.18310546875,0.0,-0.1220703125,0.445556640625,-0.8023681640625,0.39990234375,-295.0,152.0,-146.0,101700.0,-3.120000123977661,0,0
0.03459819999989122,0.374603271484375,-0.452972412109375,0.30926513671875,-0.747528076171875,-0.1220703125,-0.18310546875,0.06103515625,0.4451904296875,-0.8016357421875,0.400146484375,-295.0,152.0,-146.0,101700.0,-3.120000123977661,0,0
0.1027882999915164,0.374725341796875,-0.452972412109375,0.309173583984375,-0.74749755859375,0.0,-0.1220703125,0.244140625,0.4447021484375,-0.8006591796875,0.4017333984375,-294.0,152.0,-146.0,101700.0,-3.118000030517578,0,0
0.10284959999262355,0.374725341796875,-0.452972412109375,0.309173583984375,-0.74749755859375,-0.06103515625,-0.30517578125,-0.06103515625,0.4468994140625,-0.8018798828125,0.3990478515625,-294.0,152.0,-146.0,101700.0,-3.118000030517578,0,0
0.10290630000235979,0.374725341796875,-0.452972412109375,0.309173583984375,-0.74749755859375,-0.06103515625,-0.06103515625,0.0,0.4454345703125,-0.8016357421875,0.39892578125,-294.0,152.0,-146.0,101700.0,-3.118000030517578,0,0
0.10296039999229833,0.374725341796875,-0.452972412109375,0.309173583984375,-0.74749755859375,-0.1220703125,0.06103515625,-0.06103515625,0.4439697265625,-0.80126953125,0.3992919921875,-294.0,152.0,-146.0,101700.0,-3.118000030517578,0,0
0.10301439999602735,0.374725341796875,-0.452972412109375,0.309173583984375,-0.74749755859375,0.18310546875,-0.18310546875,0.0,0.44580078125,-0.802978515625,0.39794921875,-294.0,152.0,-146.0,101700.0,-3.118000030517578,0,0
0.10308339999755844,0.374725341796875,-0.452972412109375,0.309173583984375,-0.74749755859375,-0.06103515625,-0.18310546875,-0.1220703125,0.44580078125,-0.80126953125,0.4002685546875,-294.0,152.0,-146.0,101700.0,-3.118000030517578,0,0
0.10313779998978134,0.374725341796875,-0.452972412109375,0.309173583984375,-0.74749755859375,0.1220703125,-0.06103515625,-0.1220703125,0.4468994140625,-0.8016357421875,0.399658203125,-294.0,152.0,-146.0,101700.0,-3.118000030517578,0,0
0.10319129998970311,0.374725341796875,-0.452972412109375,0.309173583984375,-0.74749755859375,0.1220703125,-0.06103515625,-0.1220703125,0.4468994140625,-0.8016357421875,0.399658203125,-294.0,152.0,-146.0,101700.0,-3.118000030517578,0,0
0.10324589999800082,0.374725341796875,-0.45294189453125,0.309173583984375,-0.74749755859375,-0.18310546875,0.0,0.0,0.4442138671875,-0.8031005859375,0.3990478515625,-294.0,152.0,-146.0,101700.0,-3.118000030517578,0,0
0.10330049999174662,0.374725341796875,-0.45294189453125,0.309173583984375,-0.74749755859375,0.06103515625,0.06103515625,-0.18310546875,0.4459228515625,-0.8040771484375,0.4002685546875,-294.0,152.0,-146.0,101700.0,-3.118000030517578,0,0
0.10335309999936726,0.374725341796875,-0.45294189453125,0.309173583984375,-0.74749755859375,-0.244140625,-0.06103515625,0.0,0.445556640625,-0.802001953125,0.3995361328125,-294.0,152.0,-146.0,101700.0,-3.118000030517578,0,0
0.16229919999022968,0.374725341796875,-0.45294189453125,0.309173583984375,-0.74749755859375,0.18310546875,0.1220703125,-0.06103515625,0.4420166015625,-0.8006591796875,0.3992919921875,-294.0,152.0,-146.0,101700.0,-3.118000030517578,0,0
0.16236570000182837,0.374725341796875,-0.45294189453125,0.309173583984375,-0.747528076171875,-0.18310546875,-0.1220703125,-0.18310546875,0.4442138671875,-0.80126953125,0.39990234375,-294.0,152.0,-146.0,101700.0,-3.118000030517578,0,0
0.16242300000158139,0.374725341796875,-0.45294189453125,0.309173583984375,-0.74749755859375,0.1220703125,0.06103515625,-0.06103515625,0.4464111328125,-0.803466796875,0.398681640625,-294.0,152.0,-146.0,101700.0,-3.118000030517578,0,0
0.1624766000022646,0.374725341796875,-0.45294189453125,0.30914306640625,-0.747528076171875,0.18310546875,0.1220703125,-0.06103515625,0.4456787109375,-0.8009033203125,0.4012451171875,-294.0,152.0,-146.0,101700.0,-3.118000030517578,0,0
0.16253239999059588,0.374725341796875,-0.45294189453125,0.30914306640625,-0.747528076171875,-0.18310546875,-0.1220703125,0.1220703125,0.4466552734375,-0.8023681640625,0.3988037109375,-294.0,152.0,-146.0,101700.0,-3.118000030517578,0,0
0.16258879999804776,0.374725341796875,-0.45294189453125,0.30914306640625,-0.747528076171875,0.48828125,-0.18310546875,0.0,0.446044921875,-0.798583984375,0.3975830078125,-294.0,152.0,-146.0,101700.0,-3.118000030517578,0,0
0.1628385999938473,0.374725341796875,-0.45294189453125,0.30914306640625,-0.747528076171875,0.48828125,-0.18310546875,0.0,0.446044921875,-0.798583984375,0.3975830078125,-294.0,152.0,-146.0,101700.0,-3.118000030517578,0,0
0.16289349998987745,0.374725341796875,-0.45294189453125,0.30914306640625,-0.747528076171875,-0.18310546875,-0.1220703125,-0.06103515625,0.446044921875,-0.80419921875,0.3984375,-294.0,152.0,-146.0,101700.0,-3.121000051498413,0,0
0.1629547999909846,0.374847412109375,-0.452972412109375,0.30908203125,-0.747467041015625,-0.18310546875,-0.1220703125,-0.06103515625,0.446044921875,-0.80419921875,0.3984375,-294.0,152.0,-146.0,101700.0,-3.121000051498413,0,0
0.16300839999166783,0.374847412109375,-0.452972412109375,0.30908203125,-0.747467041015625,0.06103515625,-0.1220703125,0.18310546875,0.446044921875,-0.80517578125,0.399169921875,-294.0,152.0,-146.0,101700.0,-3.121000051498413,0,0
0.16305999999167398,0.374847412109375,-0.452972412109375,0.30908203125,-0.747467041015625,-0.06103515625,0.0,-0.18310546875,0.44677734375,-0.802734375,0.4010009765625,-294.0,152.0,-146.0,101700.0,-3.121000051498413,0,0
0.16322849999414757,0.374847412109375,-0.452972412109375,0.30908203125,-0.747467041015625,-0.1220703125,0.06103515625,0.18310546875,0.444580078125,-0.802734375,0.401123046875,-294.0,152.0,-146.0,101700.0,-3.121000051498413,0,0
0.16328409999550786,0.374847412109375,-0.452972412109375,0.30908203125,-0.74749755859375,-0.1220703125,-0.1220703125,0.0,0.4464111328125,-0.80224609375,0.3997802734375,-294.0,152.0,-146.0,101700.0,-3.121000051498413,0,0
0.22513049999543,0.374847412109375,-0.45294189453125,0.30908203125,-0.74749755859375,0.06103515625,-0.06103515625,0.0,0.4444580078125,-0.8031005859375,0.401123046875,-294.0,152.0,-146.0,101700.0,-3.121000051498413,0,0
0.22519409999949858,0.374847412109375,-0.452972412109375,0.309051513671875,-0.74749755859375,0.1220703125,-0.06103515625,0.1220703125,0.4483642578125,-0.800537109375,0.3995361328125,-294.0,152.0,-146.0,101700.0,-3.121000051498413,0,0
0.22525009998935275,0.374847412109375,-0.452972412109375,0.309051513671875,-0.74749755859375,0.1220703125,-0.06103515625,0.1220703125,0.4483642578125,-0.800537109375,0.3995361328125,-294.0,152.0,-146.0,101700.0,-3.121000051498413,0,0
0.22530239999468904,0.374847412109375,-0.452972412109375,0.309051513671875,-0.74749755859375,-0.244140625,0.42724609375,-0.06103515625,0.4466552734375,-0.7996826171875,0.3992919921875,-294.0,152.0,-146.0,101700.0,-3.121000051498413,0,0
0.22535739999148063,0.374847412109375,-0.452972412109375,0.309051513671875,-0.74749755859375,0.18310546875,-0.1220703125,0.06103515625,0.44677734375,-0.8016357421875,0.3995361328125,-294.0,152.0,-146.0,101700.0,-3.121000051498413,0,0
0.2282682999939425,0.374847412109375,-0.452972412109375,0.309051513671875,-0.74749755859375,0.48828125,-0.1220703125,-0.06103515625,0.4464111328125,-0.8021240234375,0.4031982421875,-294.0,152.0,-146.0,101700.0,-3.121000051498413,0,0
0.22832919999200385,0.374847412109375,-0.45294189453125,0.309051513671875,-0.74749755859375,-0.30517578125,-0.1220703125,-0.1220703125,0.4461669921875,-0.80224609375,0.4013671875,-294.0,152.0,-146.0,101700.0,-3.121000051498413,0,0
0.22842020000098273,0.374847412109375,-0.45294189453125,0.309051513671875,-0.74749755859375,-0.1220703125,-0.06103515625,0.06103515625,0.445556640625,-0.802978515625,0.4005126953125,-294.0,152.0,-146.0,101700.0,-3.121000051498413,0,0
0.22847499999625143,0.374847412109375,-0.45294189453125,0.309051513671875,-0.74749755859375,-0.1220703125,-0.06103515625,0.06103515625,0.445556640625,-0.802978515625,0.4005126953125,-294.0,152.0,-146.0,101700.0,-3.121000051498413,0,0
0.2285293000022648,0.374847412109375,-0.45294189453125,0.309051513671875,-0.74749755859375,0.06103515625,-0.06103515625,-0.244140625,0.4447021484375,-0.799560546875,0.39794921875,-294.0,152.0,-146.0,101700.0,-3.121000051498413,0,0
0.22858299998915754,0.374847412109375,-0.45294189453125,0.309051513671875,-0.74749755859375,0.06103515625,-0.06103515625,-0.244140625,0.4447021484375,-0.799560546875,0.39794921875,-294.0,152.0,-146.0,101700.0,-3.121000051498413,0,0
0.29291629999352153,0.374847412109375,-0.45294189453125,0.309051513671875,-0.74749755859375,0.244140625,-0.1220703125,0.0,0.4456787109375,-0.8023681640625,0.3995361328125,-295.0,153.0,-146.0,101700.0,-3.117000102996826,0,0
0.2929788999899756,0.37493896484375,-0.4530029296875,0.308990478515625,-0.747467041015625,-0.18310546875,0.0,0.1220703125,0.4453125,-0.8013916015625,0.40087890625,-295.0,153.0,-146.0,101700.0,-3.117000102996826,0,0
0.293034299989813,0.37493896484375,-0.452972412109375,0.308990478515625,-0.747467041015625,0.0,0.1220703125,0.06103515625,0.444091796875,-0.8021240234375,0.39892578125,-295.0,153.0,-146.0,101700.0,-3.117000102996826,0,0
0.2930879999912577,0.37493896484375,-0.452972412109375,0.3089599609375,-0.747467041015625,-0.1220703125,-0.244140625,-0.244140625,0.4464111328125,-0.7998046875,0.400634765625,-295.0,153.0,-146.0,101700.0,-3.117000102996826,0,0
0.29314480000175536,0.37493896484375,-0.452972412109375,0.3089599609375,-0.747467041015625,0.18310546875,0.1220703125,0.0,0.446044921875,-0.8011474609375,0.4019775390625,-295.0,153.0,-146.0,101700.0,-3.117000102996826,0,0
0.29340830000001006,0.37493896484375,-0.452972412109375,0.3089599609375,-0.747467041015625,0.18310546875,0.0,-0.18310546875,0.4451904296875,-0.8037109375,0.400390625,-295.0,153.0,-146.0,101700.0,-3.117000102996826,0,0
0.29346289999375585,0.37493896484375,-0.452972412109375,0.3089599609375,-0.747467041015625,0.18310546875,0.0,-0.18310546875,0.4451904296875,-0.8037109375,0.400390625,-295.0,153.0,-146.0,101700.0,-3.117000102996826,0,0
0.2935161999921547,0.37493896484375,-0.452972412109375,0.3089599609375,-0.747467041015625,0.18310546875,-0.06103515625,-0.30517578125,0.4444580078125,-0.8028564453125,0.3974609375,-295.0,153.0,-146.0,101700.0,-3.117000102996826,0,0
0.29356900000129826,0.37493896484375,-0.452972412109375,0.3089599609375,-0.747467041015625,-0.06103515625,0.06103515625,0.1220703125,0.445556640625,-0.80078125,0.400146484375,-295.0,153.0,-146.0,101700.0,-3.117000102996826,0,0
0.29362209999817424,0.37493896484375,-0.452972412109375,0.3089599609375,-0.747467041015625,0.0,0.06103515625,-0.06103515625,0.4456787109375,-0.8016357421875,0.4002685546875,-295.0,153.0,-146.0,101700.0,-3.117000102996826,0,0
0.2936747999920044,0.37493896484375,-0.452972412109375,0.3089599609375,-0.747467041015625,0.1220703125,0.1220703125,0.18310546875,0.444580078125,-0.8018798828125,0.399169921875,-295.0,153.0,-146.0,101700.0,-3.117000102996826,0,0
0.36686189999454655,0.37493896484375,-0.452972412109375,0.3089599609375,-0.747467041015625,-0.06103515625,0.0,-0.30517578125,0.4443359375,-0.8021240234375,0.398193359375,-295.0,153.0,-146.0,101700.0,-3.117000102996826,0,0
0.36693869999726303,0.37493896484375,-0.452972412109375,0.3089599609375,-0.747467041015625,-0.244140625,-0.06103515625,-0.244140625,0.4462890625,-0.8040771484375,0.3988037109375,-295.0,153.0,-146.0,101700.0,-3.117000102996826,0,0
0.3669979999976931,0.37493896484375,-0.452972412109375,0.3089599609375,-0.747467041015625,0.1220703125,-0.1220703125,0.0,0.4453125,-0.7999267578125,0.39892578125,-295.0,153.0,-146.0,101700.0,-3.117000102996826,0,0
0.36705309999524616,0.37493896484375,-0.452972412109375,0.3089599609375,-0.747467041015625,0.1220703125,-0.1220703125,0.0,0.4453125,-0.7999267578125,0.39892578125,-295.0,153.0,-146.0,101700.0,-3.117000102996826,0,0
0.3671083999943221,0.37493896484375,-0.45294189453125,0.3089599609375,-0.74749755859375,0.30517578125,0.06103515625,-0.06103515625,0.445556640625,-0.7996826171875,0.399658203125,-295.0,153.0,-146.0,101700.0,-3.117000102996826,0,0
0.36717669999052305,0.37493896484375,-0.45294189453125,0.3089599609375,-0.74749755859375,0.30517578125,-0.18310546875,0.1220703125,0.4443359375,-0.8018798828125,0.398681640625,-295.0,153.0,-146.0,101700.0,-3.117000102996826,0,0
0.3672297000011895,0.374969482421875,-0.45294189453125,0.3089599609375,-0.74749755859375,0.244140625,-0.18310546875,-0.18310546875,0.4432373046875,-0.8026123046875,0.4000244140625,-295.0,153.0,-146.0,101700.0,-3.117000102996826,0,0
0.3672818999912124,0.374969482421875,-0.45294189453125,0.3089599609375,-0.74749755859375,0.244140625,-0.18310546875,-0.18310546875,0.4432373046875,-0.8026123046875,0.4000244140625,-296.0,152.0,-146.0,101700.0,-3.117000102996826,0,0
0.36733510000340175,0.37506103515625,-0.452972412109375,0.30889892578125,-0.7474365234375,0.1220703125,-0.06103515625,0.18310546875,0.445068359375,-0.8021240234375,0.3988037109375,-296.0,152.0,-146.0,101700.0,-3.117000102996826,0,0
0.3673876999964705,0.37506103515625,-0.4530029296875,0.30889892578125,-0.7474365234375,0.0,-0.06103515625,-0.1220703125,0.4443359375,-0.80126953125,0.3992919921875,-296.0,152.0,-146.0,101700.0,-3.117000102996826,0,0
0.3674389999941923,0.37506103515625,-0.4530029296875,0.30889892578125,-0.7474365234375,-0.1220703125,0.0,0.18310546875,0.4462890625,-0.8038330078125,0.3983154296875,-296.0,152.0,-146.0,101700.0,-3.117000102996826,0,0
0.4250614999909885,0.37506103515625,-0.4530029296875,0.30889892578125,-0.7474365234375,0.18310546875,-0.06103515625,-0.18310546875,0.4462890625,-0.8001708984375,0.399658203125,-296.0,152.0,-146.0,101700.0,-3.117000102996826,0,0
0.42513340000004973,0.37506103515625,-0.452972412109375,0.308868408203125,-0.7474365234375,0.06103515625,0.0,-0.1220703125,0.44482421875,-0.801025390625,0.4007568359375,-296.0,152.0,-146.0,101700.0,-3.117000102996826,0,0
0.42519280000124127,0.37506103515625,-0.452972412109375,0.308868408203125,-0.7474365234375,0.18310546875,0.06103515625,-0.1220703125,0.4453125,-0.80126953125,0.4000244140625,-296.0,152.0,-146.0,101700.0,-3.117000102996826,0,0
0.42524919999414124,0.37506103515625,-0.452972412109375,0.308868408203125,-0.7474365234375,0.06103515625,0.06103515625,0.06103515625,0.4453125,-0.8016357421875,0.4010009765625,-296.0,152.0,-146.0,101700.0,-3.117000102996826,0,0
0.4253074000007473,0.37506103515625,-0.452972412109375,0.308868408203125,-0.7474365234375,0.18310546875,0.1220703125,-0.1220703125,0.44580078125,-0.8009033203125,0.398193359375,-296.0,152.0,-146.0,101700.0,-3.117000102996826,0,0
0.4264355999912368,0.37506103515625,-0.452972412109375,0.308868408203125,-0.7474365234375,-0.06103515625,0.06103515625,-0.1220703125,0.4466552734375,-0.8009033203125,0.3988037109375,-296.0,152.0,-146.0,101700.0,-3.117000102996826,0,0
0.4264973999961512,0.37506103515625,-0.452972412109375,0.308868408203125,-0.7474365234375,-0.06103515625,-0.244140625,-0.06103515625,0.4447021484375,-0.802001953125,0.39794921875,-296.0,152.0,-146.0,101700.0,-3.117000102996826,0,0
0.42659799999091774,0.37506103515625,-0.452972412109375,0.308868408203125,-0.7474365234375,0.1220703125,-0.18310546875,0.06103515625,0.443115234375,-0.80078125,0.400390625,-296.0,152.0,-146.0,101700.0,-3.117000102996826,0,0
0.4266522999969311,0.37506103515625,-0.452972412109375,0.308868408203125,-0.7474365234375,0.0,0.06103515625,0.0,0.4461669921875,-0.8028564453125,0.3983154296875,-296.0,152.0,-146.0,101700.0,-3.117000102996826,0,0
0.4267056999960914,0.37506103515625,-0.452972412109375,0.308868408203125,-0.7474365234375,0.0,0.06103515625,0.0,0.4461669921875,-0.8028564453125,0.3983154296875,-296.0,152.0,-146.0,101700.0,-3.117000102996826,0,0
0.42675769999914337,0.37506103515625,-0.452972412109375,0.308868408203125,-0.7474365234375,0.06103515625,0.06103515625,0.0,0.4437255859375,-0.8018798828125,0.3984375,-296.0,152.0,-146.0,101700.0,-3.117000102996826,0,0
0.49104199999419507,0.37506103515625,-0.452972412109375,0.30889892578125,-0.7474365234375,0.1220703125,0.06103515625,-0.244140625,0.446533203125,-0.8011474609375,0.3985595703125,-296.0,152.0,-146.0,101700.0,-3.117000102996826,0,0
0.4911128999956418,0.37506103515625,-0.452972412109375,0.30889892578125,-0.7474365234375,-0.244140625,0.18310546875,-0.06103515625,0.4468994140625,-0.8035888671875,0.3975830078125,-295.0,151.0,-146.0,101700.0,-3.119000196456909,0,0
0.49117009999463335,0.37506103515625,-0.452972412109375,0.30889892578125,-0.7474365234375,0.06103515625,-0.1220703125,-0.30517578125,0.4462890625,-0.7999267578125,0.397216796875,-295.0,151.0,-146.0,101700.0,-3.119000196456909,0,0
0.491227099992102,0.375274658203125,-0.45306396484375,0.30877685546875,-0.747344970703125,-0.3662109375,-0.1220703125,-0.18310546875,0.446044921875,-0.8016357421875,0.3983154296875,-295.0,151.0,-146.0,101700.0,-3.119000196456909,0,0
0.49128319999726955,0.375274658203125,-0.45306396484375,0.30877685546875,-0.747344970703125,0.06103515625,-0.1220703125,-0.3662109375,0.4453125,-0.8018798828125,0.398193359375,-295.0,151.0,-146.0,101700.0,-3.119000196456909,0,0
0.49135389999719337,0.375274658203125,-0.45306396484375,0.30877685546875,-0.747344970703125,0.06103515625,-0.1220703125,-0.3662109375,0.4453125,-0.8018798828125,0.398193359375,-295.0,151.0,-146.0,101700.0,-3.119000196456909,0,0
0.4914072999963537,0.375274658203125,-0.45306396484375,0.308746337890625,-0.747344970703125,-0.1220703125,-0.1220703125,-0.06103515625,0.4473876953125,-0.8011474609375,0.3975830078125,-295.0,151.0,-146.0,101700.0,-3.119000196456909,0,0
0.491460699995514,0.375244140625,-0.45306396484375,0.308746337890625,-0.747344970703125,0.06103515625,0.06103515625,-0.1220703125,0.44580078125,-0.7999267578125,0.3983154296875,-295.0,151.0,-146.0,101700.0,-3.119000196456909,0,0
0.4915133999893442,0.375244140625,-0.45306396484375,0.308746337890625,-0.747344970703125,0.06103515625,0.06103515625,-0.244140625,0.4449462890625,-0.801513671875,0.39794921875,-295.0,151.0,-146.0,101700.0,-3.119000196456909,0,0
0.4915668000030564,0.375274658203125,-0.45306396484375,0.308746337890625,-0.747344970703125,0.06103515625,-0.18310546875,0.06103515625,0.4461669921875,-0.802001953125,0.3984375,-295.0,151.0,-146.0,101700.0,-3.119000196456909,0,0
0.49162020000221673,0.375244140625,-0.45306396484375,0.308746337890625,-0.747344970703125,0.1220703125,0.1220703125,-0.1220703125,0.4464111328125,-0.8009033203125,0.3992919921875,-295.0,151.0,-146.0,101700.0,-3.119000196456909,0,0
0.5443813000019873,0.375244140625,-0.45306396484375,0.308746337890625,-0.747344970703125,0.06103515625,0.0,0.06103515625,0.446533203125,-0.802734375,0.3997802734375,-295.0,151.0,-146.0,101700.0,-3.119000196456909,0,0
0.5444527999934508,0.375244140625,-0.45306396484375,0.308746337890625,-0.747344970703125,-0.1220703125,-0.1220703125,0.244140625,0.4483642578125,-0.8046875,0.3992919921875,-295.0,151.0,-146.0,101700.0,-3.119000196456909,0,0
0.544509699990158,0.375244140625,-0.45306396484375,0.308746337890625,-0.747344970703125,-0.42724609375,-0.06103515625,-0.1220703125,0.4451904296875,-0.801513671875,0.401123046875,-295.0,151.0,-146.0,101700.0,-3.119000196456909,0,0
0.544566999989911,0.375244140625,-0.45306396484375,0.308746337890625,-0.747344970703125,-0.06103515625,0.06103515625,0.0,0.4444580078125,-0.8031005859375,0.4000244140625,-295.0,151.0,-146.0,101700.0,-3.119000196456909,0,0
0.5446319999900879,0.375244140625,-0.45306396484375,0.308746337890625,-0.747344970703125,-0.06103515625,0.06103515625,0.0,0.4444580078125,-0.8031005859375,0.4000244140625,-295.0,151.0,-146.0,101700.0,-3.119000196456909,0,0
0.544687999994494,0.375274658203125,-0.45306396484375,0.308746337890625,-0.747344970703125,-0.1220703125,-0.1220703125,0.0,0.4459228515625,-0.8018798828125,0.4002685546875,-295.0,151.0,-146.0,101700.0,-3.119000196456909,0,0
0.5447404000005918,0.375244140625,-0.45306396484375,0.308746337890625,-0.747344970703125,0.0,-0.06103515625,-0.1220703125,0.44677734375,-0.8017578125,0.398681640625,-295.0,151.0,-146.0,101700.0,-3.119000196456909,0,0
0.5449514999927487,0.375244140625,-0.45306396484375,0.308746337890625,-0.747344970703125,-0.06103515625,0.1220703125,-0.06103515625,0.447021484375,-0.8001708984375,0.3994140625,-295.0,151.0,-146.0,101700.0,-3.119000196456909,0,0
0.545007099994109,0.375244140625,-0.45306396484375,0.308746337890625,-0.747344970703125,-0.06103515625,-0.1220703125,-0.06103515625,0.4451904296875,-0.8023681640625,0.3983154296875,-295.0,151.0,-146.0,101700.0,-3.119000196456909,0,0
0.5450607999955537,0.375244140625,-0.45306396484375,0.308746337890625,-0.747344970703125,0.1220703125,-0.244140625,0.1220703125,0.4454345703125,-0.8037109375,0.3984375,-295.0,151.0,-146.0,101700.0,-3.119000196456909,0,0
0.5451136999909068,0.375244140625,-0.45306396484375,0.308746337890625,-0.747344970703125,0.0,-0.1220703125,-0.1220703125,0.4432373046875,-0.80126953125,0.39794921875,-295.0,151.0,-146.0,101700.0,-3.119000196456909,0,0
0.5451674999931129,0.375244140625,-0.45306396484375,0.308746337890625,-0.747344970703125,0.0,-0.1220703125,-0.1220703125,0.4432373046875,-0.80126953125,0.39794921875,-294.0,152.0,-146.0,101700.0,-3.117000102996826,0,0
0.5452203000022564,0.3753662109375,-0.453094482421875,0.308685302734375,-0.747314453125,0.18310546875,-0.1220703125,0.18310546875,0.4453125,-0.7989501953125,0.398681640625,-294.0,152.0,-146.0,101700.0,-3.117000102996826,0,0
0.6116083999950206,0.3753662109375,-0.453094482421875,0.308685302734375,-0.747314453125,0.1220703125,-0.06103515625,0.06103515625,0.4449462890625,-0.8001708984375,0.400634765625,-294.0,152.0,-146.0,101700.0,-3.117000102996826,0,0
0.6117381999938516,0.3753662109375,-0.453125,0.308685302734375,-0.747314453125,-0.1220703125,0.06103515625,0.0,0.4473876953125,-0.8031005859375,0.3984375,-294.0,152.0,-146.0,101700.0,-3.117000102996826,0,0
0.6118603999930201,0.3753662109375,-0.453125,0.308685302734375,-0.747314453125,0.0,-0.06103515625,-0.244140625,0.4476318359375,-0.800537109375,0.398193359375,-294.0,152.0,-146.0,101700.0,-3.117000102996826,0,0
0.6120165999891469,0.3753662109375,-0.453094482421875,0.308685302734375,-0.747314453125,0.0,-0.244140625,-0.1220703125,0.443359375,-0.8013916015625,0.3983154296875,-294.0,152.0,-146.0,101700.0,-3.117000102996826,0,0
0.6120897999935551,0.3753662109375,-0.453125,0.308685302734375,-0.747314453125,0.06103515625,-0.1220703125,-0.18310546875,0.4456787109375,-0.801025390625,0.3985595703125,-294.0,152.0,-146.0,101700.0,-3.117000102996826,0,0
0.6122642999980599,0.3753662109375,-0.453094482421875,0.308685302734375,-0.747314453125,0.0,0.0,-0.18310546875,0.4449462890625,-0.802490234375,0.4014892578125,-294.0,152.0,-146.0,101700.0,-3.117000102996826,0,0
0.6123303999920608,0.3753662109375,-0.453094482421875,0.30865478515625,-0.747314453125,0.0,0.0,-0.18310546875,0.4449462890625,-0.802490234375,0.4014892578125,-294.0,152.0,-146.0,101700.0,-3.117000102996826,0,0
0.6123929000023054,0.3753662109375,-0.453094482421875,0.30865478515625,-0.747314453125,0.18310546875,0.06103515625,-0.06103515625,0.447998046875,-0.8013916015625,0.402099609375,-294.0,152.0,-146.0,101700.0,-3.117000102996826,0,0
0.612454499991145,0.3753662109375,-0.453094482421875,0.30865478515625,-0.747314453125,0.18310546875,0.06103515625,-0.06103515625,0.447998046875,-0.8013916015625,0.402099609375,-294.0,152.0,-146.0,101700.0,-3.117000102996826,0,0
0.6125165999983437,0.3753662109375,-0.453094482421875,0.30865478515625,-0.747314453125,-0.18310546875,-0.244140625,0.18310546875,0.4439697265625,-0.8009033203125,0.4002685546875,-294.0,152.0,-146.0,101700.0,-3.117000102996826,0,0
0.6125757999980124,0.3753662109375,-0.453094482421875,0.30865478515625,-0.747314453125,0.1220703125,-0.244140625,-0.30517578125,0.4488525390625,-0.8023681640625,0.399658203125,-294.0,152.0,-146.0,101700.0,-3.117000102996826,0,0
0.6714544999995269,0.3753662109375,-0.453094482421875,0.30865478515625,-0.747314453125,-0.1220703125,-0.1220703125,-0.18310546875,0.446533203125,-0.8035888671875,0.39990234375,-294.0,152.0,-146.0,101700.0,-3.117000102996826,0,0
0.6715228999964893,0.3753662109375,-0.45306396484375,0.30865478515625,-0.747314453125,0.0,-0.18310546875,-0.06103515625,0.4453125,-0.8011474609375,0.4005126953125,-294.0,152.0,-146.0,101700.0,-3.117000102996826,0,0
0.6716296999948099,0.3753662109375,-0.45306396484375,0.30865478515625,-0.747314453125,0.06103515625,-0.1220703125,-0.18310546875,0.4432373046875,-0.80224609375,0.39990234375,-294.0,152.0,-146.0,101700.0,-3.117000102996826,0,0
0.6716951999987941,0.3753662109375,-0.45306396484375,0.30865478515625,-0.747314453125,0.0,0.0,0.06103515625,0.446044921875,-0.8018798828125,0.3995361328125,-295.0,152.0,-147.0,101700.0,-3.118000030517578,0,0
0.6717542999977013,0.3753662109375,-0.45306396484375,0.30865478515625,-0.747314453125,0.0,0.0,0.06103515625,0.446044921875,-0.8018798828125,0.3995361328125,-295.0,152.0,-147.0,101700.0,-3.118000030517578,0,0
0.6725216999911936,0.375579833984375,-0.453155517578125,0.30853271484375,-0.747222900390625,0.1220703125,-0.18310546875,-0.18310546875,0.445556640625,-0.801025390625,0.3984375,-295.0,152.0,-147.0,101700.0,-3.118000030517578,0,0
0.6725886999920476,0.375579833984375,-0.453155517578125,0.30853271484375,-0.747222900390625,-0.06103515625,-0.18310546875,0.0,0.4466552734375,-0.80126953125,0.3995361328125,-295.0,152.0,-147.0,101700.0,-3.118000030517578,0,0
0.6726494999893475,0.375579833984375,-0.453155517578125,0.30853271484375,-0.747222900390625,0.18310546875,-0.1220703125,0.0,0.44677734375,-0.8001708984375,0.400634765625,-295.0,152.0,-147.0,101700.0,-3.118000030517578,0,0
0.6727074999944307,0.375579833984375,-0.453155517578125,0.308502197265625,-0.747222900390625,0.06103515625,-0.06103515625,0.06103515625,0.4447021484375,-0.7996826171875,0.4013671875,-295.0,152.0,-147.0,101700.0,-3.118000030517578,0,0
0.6727638000011211,0.375579833984375,-0.453155517578125,0.308502197265625,-0.747222900390625,0.0,-0.1220703125,-0.244140625,0.4476318359375,-0.802001953125,0.4000244140625,-295.0,152.0,-147.0,101700.0,-3.118000030517578,0,0
0.67281930000172,0.375579833984375,-0.453155517578125,0.308502197265625,-0.74725341796875,0.18310546875,-0.1220703125,0.18310546875,0.4466552734375,-0.8011474609375,0.4002685546875,-295.0,152.0,-147.0,101700.0,-3.118000030517578,0,0
0.7350573000003351,0.37554931640625,-0.453155517578125,0.308502197265625,-0.74725341796875,-0.1220703125,-0.06103515625,0.0,0.4478759765625,-0.80078125,0.3992919921875,-295.0,152.0,-147.0,101700.0,-3.118000030517578,0,0
0.7351261000003433,0.37554931640625,-0.453155517578125,0.308502197265625,-0.74725341796875,-0.18310546875,-0.1220703125,0.06103515625,0.4464111328125,-0.8033447265625,0.3992919921875,-295.0,152.0,-147.0,101700.0,-3.118000030517578,0,0
0.735188399994513,0.37554931640625,-0.453155517578125,0.308502197265625,-0.74725341796875,0.1220703125,-0.06103515625,0.0,0.4449462890625,-0.8013916015625,0.39990234375,-295.0,152.0,-147.0,101700.0,-3.118000030517578,0,0
0.7352471999911359,0.37554931640625,-0.453155517578125,0.308502197265625,-0.74725341796875,0.1220703125,-0.06103515625,0.0,0.4449462890625,-0.8013916015625,0.39990234375,-295.0,152.0,-147.0,101700.0,-3.118000030517578,0,0
0.735308499992243,0.375579833984375,-0.453155517578125,0.308502197265625,-0.74725341796875,0.18310546875,0.1220703125,0.06103515625,0.4447021484375,-0.8031005859375,0.3990478515625,-295.0,152.0,-147.0,101700.0,-3.118000030517578,0,0
0.7353694999910658,0.375579833984375,-0.453155517578125,0.308502197265625,-0.74725341796875,-0.06103515625,-0.18310546875,-0.18310546875,0.4454345703125,-0.801513671875,0.4005126953125,-295.0,152.0,-147.0,101700.0,-3.118000030517578,0,0
0.7371344999992289,0.375579833984375,-0.453155517578125,0.308502197265625,-0.74725341796875,0.1220703125,0.06103515625,-0.30517578125,0.4464111328125,-0.802490234375,0.3990478515625,-295.0,152.0,-147.0,101700.0,-3.118000030517578,0,0
0.7372222999983933,0.375579833984375,-0.453155517578125,0.308502197265625,-0.74725341796875,0.18310546875,0.0,-0.06103515625,0.443603515625,-0.8009033203125,0.3997802734375,-295.0,152.0,-147.0,101700.0,-3.118000030517578,0,0
0.7372815999988234,0.375579833984375,-0.453125,0.308502197265625,-0.74725341796875,0.1220703125,0.1220703125,-0.06103515625,0.446044921875,-0.8009033203125,0.400634765625,-295.0,152.0,-147.0,101700.0,-3.118000030517578,0,0
0.7373391000000993,0.375579833984375,-0.453125,0.308502197265625,-0.74725341796875,0.1220703125,0.1220703125,-0.06103515625,0.446044921875,-0.8009033203125,0.400634765625,-295.0,152.0,-147.0,101700.0,-3.118000030517578,0,0
0.7373969000036595,0.375579833984375,-0.453125,0.3084716796875,-0.74725341796875,0.06103515625,-0.1220703125,-0.18310546875,0.447021484375,-0.799560546875,0.3997802734375,-295.0,152.0,-147.0,101700.0,-3.118000030517578,0,0
0.7374570999963908,0.375579833984375,-0.453125,0.308502197265625,-0.74725341796875,-0.06103515625,0.06103515625,-0.1220703125,0.443359375,-0.8006591796875,0.3988037109375,-295.0,152.0,-147.0,101700.0,-3.118000030517578,0,0
0.7375166999991052,0.375579833984375,-0.453125,0.308502197265625,-0.74725341796875,-0.06103515625,0.06103515625,-0.1220703125,0.443359375,-0.8006591796875,0.3988037109375,-295.0,152.0,-147.0,101700.0,-3.118000030517578,0,0
0.8020212999981595,0.37579345703125,-0.45318603515625,0.308380126953125,-0.747161865234375,-0.1220703125,-0.06103515625,-0.06103515625,0.44384765625,-0.80078125,0.3985595703125,-296.0,153.0,-147.0,101700.0,-3.118000030517578,0,0
0.8020967999909772,0.37579345703125,-0.45318603515625,0.308380126953125,-0.747161865234375,0.18310546875,-0.06103515625,-0.06103515625,0.443603515625,-0.799560546875,0.39990234375,-296.0,153.0,-147.0,101700.0,-3.118000030517578,0,0
0.8021571999997832,0.37579345703125,-0.45318603515625,0.308380126953125,-0.747161865234375,0.0,0.06103515625,-0.06103515625,0.4447021484375,-0.8023681640625,0.3997802734375,-296.0,153.0,-147.0,101700.0,-3.118000030517578,0,0
0.8022160999971675,0.37579345703125,-0.45318603515625,0.308380126953125,-0.747161865234375,0.0,0.06103515625,-0.1220703125,0.44482421875,-0.8018798828125,0.3994140625,-296.0,153.0,-147.0,101700.0,-3.118000030517578,0,0
0.8022762999898987,0.37579345703125,-0.45318603515625,0.308380126953125,-0.747161865234375,-0.1220703125,-0.06103515625,0.0,0.4454345703125,-0.8004150390625,0.4000244140625,-296.0,153.0,-147.0,101700.0,-3.118000030517578,0,0
0.802502699996694,0.37579345703125,-0.45318603515625,0.308380126953125,-0.747161865234375,-0.1220703125,0.0,-0.1220703125,0.4451904296875,-0.802490234375,0.400146484375,-296.0,153.0,-147.0,101700.0,-3.118000030517578,0,0
0.8025669999915408,0.37579345703125,-0.45318603515625,0.308349609375,-0.747161865234375,-0.244140625,-0.18310546875,0.0,0.44677734375,-0.800048828125,0.3983154296875,-296.0,153.0,-147.0,101700.0,-3.118000030517578,0,0
0.8026381999952719,0.37579345703125,-0.45318603515625,0.308349609375,-0.747161865234375,-0.244140625,-0.18310546875,0.0,0.44677734375,-0.800048828125,0.3983154296875,-296.0,153.0,-147.0,101700.0,-3.118000030517578,0,0
0.8028576999931829,0.37579345703125,-0.45318603515625,0.308349609375,-0.747161865234375,0.18310546875,0.0,0.06103515625,0.4453125,-0.8018798828125,0.3994140625,-296.0,153.0,-147.0,101700.0,-3.117000102996826,0,0
0.8029168999928515,0.37579345703125,-0.45318603515625,0.308349609375,-0.747161865234375,0.30517578125,0.06103515625,-0.18310546875,0.444091796875,-0.8006591796875,0.401611328125,-296.0,153.0,-147.0,101700.0,-3.117000102996826,0,0
0.8029753000009805,0.37579345703125,-0.45318603515625,0.308349609375,-0.747161865234375,0.1220703125,-0.244140625,-0.244140625,0.447509765625,-0.801513671875,0.4007568359375,-296.0,153.0,-147.0,101700.0,-3.117000102996826,0,0
0.865051200002199,0.37579345703125,-0.45318603515625,0.308349609375,-0.747161865234375,0.0,-0.06103515625,0.0,0.4454345703125,-0.802490234375,0.3995361328125,-296.0,153.0,-147.0,101700.0,-3.117000102996826,0,0
0.865114000000176,0.37579345703125,-0.45318603515625,0.308349609375,-0.747161865234375,0.06103515625,-0.244140625,-0.18310546875,0.4468994140625,-0.80126953125,0.3988037109375,-296.0,153.0,-147.0,101700.0,-3.117000102996826,0,0
0.8651699999900302,0.37579345703125,-0.45318603515625,0.308349609375,-0.747161865234375,0.06103515625,0.06103515625,-0.06103515625,0.4461669921875,-0.80126953125,0.398681640625,-296.0,153.0,-147.0,101700.0,-3.117000102996826,0,0
0.8652232000022195,0.37579345703125,-0.45318603515625,0.308349609375,-0.747161865234375,0.06103515625,0.06103515625,-0.06103515625,0.4461669921875,-0.80126953125,0.398681640625,-296.0,153.0,-147.0,101700.0,-3.117000102996826,0,0
0.8652801999996882,0.37579345703125,-0.45318603515625,0.308349609375,-0.747161865234375,-0.06103515625,-0.06103515625,0.0,0.446044921875,-0.804443359375,0.39990234375,-296.0,153.0,-147.0,101700.0,-3.117000102996826,0,0
0.8667669999995269,0.37579345703125,-0.45318603515625,0.308349609375,-0.747161865234375,0.18310546875,-0.1220703125,-0.06103515625,0.44482421875,-0.8026123046875,0.3995361328125,-295.0,152.0,-148.0,101700.0,-3.117000102996826,0,0
0.8668247000023257,0.37579345703125,-0.45318603515625,0.308349609375,-0.747161865234375,0.18310546875,0.06103515625,-0.1220703125,0.444580078125,-0.8023681640625,0.3983154296875,-295.0,152.0,-148.0,101700.0,-3.117000102996826,0,0
0.8669119999976829,0.37591552734375,-0.453216552734375,0.30828857421875,-0.74713134765625,0.1220703125,-0.30517578125,-0.1220703125,0.444091796875,-0.80078125,0.40087890625,-295.0,152.0,-148.0,101700.0,-3.117000102996826,0,0
0.8669661000021733,0.37591552734375,-0.453216552734375,0.30828857421875,-0.74713134765625,-0.06103515625,0.0,-0.06103515625,0.4449462890625,-0.798583984375,0.400146484375,-295.0,152.0,-148.0,101700.0,-3.117000102996826,0,0
0.8670203999936348,0.37591552734375,-0.45318603515625,0.30828857421875,-0.74713134765625,-0.1220703125,-0.06103515625,-0.18310546875,0.444580078125,-0.802490234375,0.4007568359375,-295.0,152.0,-148.0,101700.0,-3.117000102996826,0,0
0.8670753999904264,0.37591552734375,-0.45318603515625,0.30828857421875,-0.74713134765625,0.06103515625,-0.1220703125,-0.244140625,0.445068359375,-0.8009033203125,0.400146484375,-295.0,152.0,-148.0,101700.0,-3.117000102996826,0,0
0.9303928000008455,0.37591552734375,-0.45318603515625,0.30828857421875,-0.74713134765625,-0.18310546875,-0.06103515625,0.0,0.446533203125,-0.801025390625,0.400146484375,-295.0,152.0,-148.0,101700.0,-3.117000102996826,0,0
0.9304663999937475,0.37591552734375,-0.45318603515625,0.30828857421875,-0.74713134765625,-0.06103515625,0.0,-0.06103515625,0.4459228515625,-0.8004150390625,0.400146484375,-295.0,152.0,-148.0,101700.0,-3.117000102996826,0,0
0.9305255999934161,0.37591552734375,-0.45318603515625,0.30828857421875,-0.74713134765625,-0.06103515625,0.0,-0.06103515625,0.4459228515625,-0.8004150390625,0.400146484375,-295.0,152.0,-148.0,101700.0,-3.117000102996826,0,0
0.9305812999955378,0.37591552734375,-0.45318603515625,0.30828857421875,-0.74713134765625,-0.30517578125,-0.06103515625,-0.06103515625,0.44580078125,-0.8018798828125,0.3995361328125,-295.0,152.0,-148.0,101700.0,-3.117000102996826,0,0
0.930639300000621,0.37591552734375,-0.45318603515625,0.30828857421875,-0.74713134765625,-0.06103515625,-0.06103515625,-0.18310546875,0.4451904296875,-0.803466796875,0.4010009765625,-295.0,152.0,-148.0,101700.0,-3.117000102996826,0,0
0.9306948000012198,0.37591552734375,-0.45318603515625,0.30828857421875,-0.74713134765625,0.0,0.06103515625,0.18310546875,0.4444580078125,-0.801025390625,0.400390625,-295.0,152.0,-148.0,101700.0,-3.117000102996826,0,0
0.9307478999980958,0.37591552734375,-0.45318603515625,0.30828857421875,-0.74713134765625,0.06103515625,-0.1220703125,0.0,0.4453125,-0.8026123046875,0.396728515625,-295.0,152.0,-148.0,101700.0,-3.117000102996826,0,0
0.9308148999989498,0.37591552734375,-0.45318603515625,0.30828857421875,-0.74713134765625,0.0,-0.06103515625,0.06103515625,0.4456787109375,-0.801513671875,0.398681640625,-295.0,152.0,-148.0,101700.0,-3.117000102996826,0,0
0.9309122999984538,0.37591552734375,-0.45318603515625,0.30828857421875,-0.74713134765625,0.244140625,0.30517578125,-0.06103515625,0.44384765625,-0.8016357421875,0.400390625,-295.0,152.0,-148.0,101700.0,-3.117000102996826,0,0
0.9309817000030307,0.37591552734375,-0.45318603515625,0.30828857421875,-0.74713134765625,-0.18310546875,-0.1220703125,0.06103515625,0.445556640625,-0.8011474609375,0.4005126953125,-295.0,152.0,-148.0,101700.0,-3.117000102996826,0,0
0.9310392999905162,0.37591552734375,-0.45318603515625,0.30828857421875,-0.74713134765625,0.06103515625,-0.18310546875,0.0,0.4437255859375,-0.8004150390625,0.4002685546875,-295.0,152.0,-148.0,101700.0,-3.117000102996826,0,0
0.9310938999988139,0.37591552734375,-0.45318603515625,0.30828857421875,-0.74713134765625,0.06103515625,-0.18310546875,0.0,0.4437255859375,-0.8004150390625,0.4002685546875,-295.0,152.0,-148.0,101700.0,-3.117000102996826,0,0
0.9311468999949284,0.37591552734375,-0.453155517578125,0.30828857421875,-0.74713134765625,0.06103515625,0.06103515625,-0.18310546875,0.4466552734375,-0.8018798828125,0.400390625,-295.0,152.0,-148.0,101700.0,-3.117000102996826,0,0
0.9942224999977043,0.37591552734375,-0.453155517578125,0.30828857421875,-0.74713134765625,0.06103515625,-0.18310546875,-0.06103515625,0.4442138671875,-0.8011474609375,0.401123046875,-295.0,152.0,-149.0,101700.0,-3.117000102996826,0,0
0.9942912999977125,0.375823974609375,-0.453125,0.308349609375,-0.7471923828125,-0.48828125,0.0,0.06103515625,0.4444580078125,-0.80224609375,0.3995361328125,-295.0,152.0,-149.0,101700.0,-3.117000102996826,0,0
0.9943483999959426,0.375823974609375,-0.453125,0.308349609375,-0.7471923828125,0.18310546875,0.0,-0.06103515625,0.443359375,-0.8017578125,0.4000244140625,-295.0,152.0,-149.0,101700.0,-3.117000102996826,0,0
0.9944023999996716,0.375823974609375,-0.453125,0.308349609375,-0.7471923828125,-0.1220703125,-0.1220703125,-0.30517578125,0.4459228515625,-0.80322265625,0.401123046875,-295.0,152.0,-149.0,101700.0,-3.117000102996826,0,0
0.9944571999949403,0.375823974609375,-0.453094482421875,0.308349609375,-0.7471923828125,0.1220703125,0.1220703125,-0.06103515625,0.445068359375,-0.8011474609375,0.400390625,-295.0,152.0,-149.0,101700.0,-3.117000102996826,0,0
0.9957385000016075,0.375823974609375,-0.453094482421875,0.308349609375,-0.7471923828125,0.1220703125,0.1220703125,-0.06103515625,0.444580078125,-0.803466796875,0.399658203125,-295.0,152.0,-149.0,101700.0,-3.117000102996826,0,0
0.9957976000005146,0.375823974609375,-0.453094482421875,0.308349609375,-0.7471923828125,0.1220703125,0.1220703125,-0.06103515625,0.444580078125,-0.803466796875,0.399658203125,-295.0,152.0,-149.0,101700.0,-3.117000102996826,0,0
0.9960448999918299,0.375823974609375,-0.453094482421875,0.308349609375,-0.7471923828125,0.06103515625,0.0,0.06103515625,0.4456787109375,-0.8021240234375,0.4012451171875,-295.0,152.0,-149.0,101700.0,-3.117000102996826,0,0
0.9961014000000432,0.3758544921875,-0.453094482421875,0.308349609375,-0.7471923828125,0.18310546875,-0.1220703125,0.18310546875,0.4442138671875,-0.8021240234375,0.4007568359375,-295.0,152.0,-149.0,101700.0,-3.117000102996826,0,0
0.9961552000022493,0.3758544921875,-0.453094482421875,0.308349609375,-0.7471923828125,0.1220703125,0.06103515625,0.1220703125,0.4459228515625,-0.8023681640625,0.4002685546875,-295.0,152.0,-149.0,101700.0,-3.117000102996826,0,0
0.996207799995318,0.375823974609375,-0.453094482421875,0.308349609375,-0.747222900390625,0.1220703125,0.06103515625,0.1220703125,0.4459228515625,-0.8023681640625,0.4002685546875,-295.0,152.0,-149.0,101700.0,-3.117000102996826,0,0
1.0569109999923967,0.375823974609375,-0.453094482421875,0.308319091796875,-0.747222900390625,-0.06103515625,0.06103515625,0.0,0.447021484375,-0.8021240234375,0.4002685546875,-295.0,152.0,-149.0,101700.0,-3.117000102996826,0,0
1.056984900002135,0.375823974609375,-0.453094482421875,0.308319091796875,-0.747222900390625,0.0,-0.30517578125,0.1220703125,0.4476318359375,-0.8026123046875,0.4014892578125,-295.0,152.0,-149.0,101700.0,-3.117000102996826,0,0
1.0570429999934277,0.375823974609375,-0.453094482421875,0.308319091796875,-0.747222900390625,0.0,-0.30517578125,0.1220703125,0.4476318359375,-0.8026123046875,0.4014892578125,-295.0,152.0,-149.0,101700.0,-3.117000102996826,0,0
1.0570996000024024,0.375823974609375,-0.453094482421875,0.308319091796875,-0.747222900390625,-0.1220703125,-0.30517578125,0.18310546875,0.4482421875,-0.8033447265625,0.400146484375,-295.0,152.0,-149.0,101700.0,-3.117000102996826,0,0
1.0573492999974405,0.375823974609375,-0.453094482421875,0.308319091796875,-0.747222900390625,0.06103515625,0.18310546875,-0.1220703125,0.4459228515625,-0.80126953125,0.4007568359375,-295.0,152.0,-149.0,101700.0,-3.117000102996826,0,0
1.057467299993732,0.375823974609375,-0.453094482421875,0.308319091796875,-0.747222900390625,0.0,0.06103515625,-0.18310546875,0.4468994140625,-0.8026123046875,0.3983154296875,-295.0,152.0,-149.0,101700.0,-3.117000102996826,0,0
1.057523499999661,0.375823974609375,-0.453094482421875,0.308319091796875,-0.747222900390625,-0.06103515625,-0.1220703125,-0.244140625,0.4449462890625,-0.8009033203125,0.400146484375,-295.0,152.0,-149.0,101700.0,-3.117000102996826,0,0
1.0575801999948453,0.375823974609375,-0.453094482421875,0.308319091796875,-0.747222900390625,-0.06103515625,0.0,-0.18310546875,0.4461669921875,-0.8006591796875,0.3992919921875,-295.0,153.0,-149.0,101700.0,-3.117000102996826,0,0
1.0576334999932442,0.375823974609375,-0.453094482421875,0.308319091796875,-0.747222900390625,0.244140625,-0.1220703125,-0.1220703125,0.4451904296875,-0.7978515625,0.3980712890625,-295.0,153.0,-149.0,101700.0,-3.117000102996826,0,0
1.0576865999901202,0.375823974609375,-0.453094482421875,0.308319091796875,-0.747222900390625,0.0,0.06103515625,-0.30517578125,0.44482421875,-0.8037109375,0.4010009765625,-295.0,153.0,-149.0,101700.0,-3.117000102996826,0,0
1.0577383999916492,0.3758544921875,-0.453094482421875,0.308319091796875,-0.747222900390625,0.244140625,-0.18310546875,0.06103515625,0.443603515625,-0.8028564453125,0.400390625,-295.0,153.0,-149.0,101700.0,-3.117000102996826,0,0
1.0577911000000313,0.375823974609375,-0.453094482421875,0.308319091796875,-0.747222900390625,-0.18310546875,-0.06103515625,0.1220703125,0.4434814453125,-0.8035888671875,0.398681640625,-295.0,153.0,-149.0,101700.0,-3.117000102996826,0,0
1.121733399995719,0.375823974609375,-0.453094482421875,0.308319091796875,-0.747222900390625,-0.18310546875,-0.06103515625,0.1220703125,0.4434814453125,-0.8035888671875,0.398681640625,-295.0,153.0,-149.0,101700.0,-3.117000102996826,0,0
1.1217979999928502,0.375823974609375,-0.453094482421875,0.308319091796875,-0.747222900390625,-0.06103515625,-0.06103515625,0.0,0.445556640625,-0.7998046875,0.399658203125,-295.0,153.0,-149.0,101700.0,-3.117000102996826,0,0
1.1241948999959277,0.375823974609375,-0.453094482421875,0.308319091796875,-0.747222900390625,-0.06103515625,-0.18310546875,0.1220703125,0.4454345703125,-0.802001953125,0.398681640625,-295.0,153.0,-149.0,101700.0,-3.117000102996826,0,0
1.1243393999902764,0.375823974609375,-0.453094482421875,0.308319091796875,-0.747222900390625,0.18310546875,-0.1220703125,-0.06103515625,0.4456787109375,-0.80224609375,0.400390625,-295.0,153.0,-149.0,101700.0,-3.117000102996826,0,0
1.124438899991219,0.375823974609375,-0.453094482421875,0.308319091796875,-0.747222900390625,0.1220703125,0.06103515625,0.06103515625,0.4453125,-0.80322265625,0.3975830078125,-295.0,153.0,-149.0,101700.0,-3.117000102996826,0,0
1.124513199989451,0.375823974609375,-0.453094482421875,0.308319091796875,-0.747222900390625,0.1220703125,0.06103515625,0.06103515625,0.4453125,-0.80322265625,0.3975830078125,-295.0,153.0,-149.0,101700.0,-3.117000102996826,0,0
1.1248739000002388,0.375823974609375,-0.453094482421875,0.308319091796875,-0.747222900390625,0.0,-0.42724609375,-0.18310546875,0.4461669921875,-0.803955078125,0.3974609375,-295.0,153.0,-149.0,101700.0,-3.117000102996826,0,0
1.125004599991371,0.375823974609375,-0.453094482421875,0.308319091796875,-0.747222900390625,0.1220703125,-0.1220703125,-0.06103515625,0.443115234375,-0.7998046875,0.4000244140625,-295.0,153.0,-149.0,101700.0,-3.117000102996826,0,0
1.1918831999937538,0.375823974609375,-0.453094482421875,0.308319091796875,-0.747222900390625,0.244140625,0.1220703125,0.1220703125,0.44580078125,-0.802734375,0.3983154296875,-295.0,153.0,-149.0,101700.0,-3.117000102996826,0,0
1.191949799991562,0.375823974609375,-0.453094482421875,0.308319091796875,-0.747222900390625,0.0,-0.30517578125,-0.18310546875,0.4461669921875,-0.8006591796875,0.3995361328125,-295.0,153.0,-149.0,101700.0,-3.117000102996826,0,0
1.1920096999965608,0.375823974609375,-0.453094482421875,0.308319091796875,-0.747222900390625,-0.06103515625,-0.1220703125,0.06103515625,0.4453125,-0.799560546875,0.400634765625,-296.0,152.0,-149.0,101700.0,-3.117000102996826,0,0
1.1920670999970753,0.375732421875,-0.45306396484375,0.308380126953125,-0.74725341796875,0.18310546875,0.18310546875,-0.18310546875,0.445068359375,-0.8037109375,0.398681640625,-296.0,152.0,-149.0,101700.0,-3.117000102996826,0,0
1.1921246999991126,0.375732421875,-0.45306396484375,0.308380126953125,-0.74725341796875,-0.06103515625,-0.1220703125,-0.18310546875,0.4453125,-0.80078125,0.40087890625,-296.0,152.0,-149.0,101700.0,-3.117000102996826,0,0
1.1923700999905122,0.375732421875,-0.45306396484375,0.308380126953125,-0.74725341796875,-0.06103515625,-0.1220703125,-0.18310546875,0.4453125,-0.80078125,0.40087890625,-296.0,152.0,-149.0,101700.0,-3.117000102996826,0,0
1.192438400001265,0.375732421875,-0.45306396484375,0.308380126953125,-0.74725341796875,-0.18310546875,0.0,-0.18310546875,0.445556640625,-0.801025390625,0.398681640625,-296.0,152.0,-149.0,101700.0,-3.117000102996826,0,0
1.1929303999932017,0.375732421875,-0.45306396484375,0.308380126953125,-0.74725341796875,0.3662109375,0.0,-0.1220703125,0.4451904296875,-0.803466796875,0.400146484375,-296.0,152.0,-149.0,101700.0,-3.117000102996826,0,0
1.193011099996511,0.375732421875,-0.45306396484375,0.30841064453125,-0.74725341796875,0.06103515625,-0.18310546875,-0.18310546875,0.445556640625,-0.80517578125,0.3975830078125,-296.0,152.0,-149.0,101700.0,-3.117000102996826,0,0
1.193298700003652,0.375732421875,-0.45306396484375,0.30841064453125,-0.74725341796875,0.0,-0.18310546875,-0.244140625,0.44580078125,-0.802490234375,0.3984375,-296.0,152.0,-149.0,101700.0,-3.117000102996826,0,0
1.193382700002985,0.375732421875,-0.45306396484375,0.30841064453125,-0.74725341796875,0.18310546875,0.06103515625,-0.06103515625,0.446044921875,-0.8017578125,0.398681640625,-296.0,152.0,-149.0,101700.0,-3.117000102996826,0,0
1.193445899989456,0.375732421875,-0.45306396484375,0.30841064453125,-0.74725341796875,-0.06103515625,0.06103515625,0.18310546875,0.44580078125,-0.802978515625,0.398681640625,-296.0,152.0,-149.0,101700.0,-3.117000102996826,0,0
1.244477200001711,0.375732421875,-0.45306396484375,0.30841064453125,-0.74725341796875,0.18310546875,-0.18310546875,-0.1220703125,0.44580078125,-0.8023681640625,0.3985595703125,-296.0,152.0,-149.0,101700.0,-3.117000102996826,0,0
1.244542000000365,0.375732421875,-0.45306396484375,0.30841064453125,-0.74725341796875,0.1220703125,-0.18310546875,0.06103515625,0.4464111328125,-0.8013916015625,0.40087890625,-296.0,152.0,-149.0,101700.0,-3.117000102996826,0,0
1.2446009999985108,0.375732421875,-0.45306396484375,0.30841064453125,-0.74725341796875,0.0,0.0,-0.1220703125,0.4449462890625,-0.8018798828125,0.39697265625,-296.0,152.0,-149.0,101700.0,-3.117000102996826,0,0
1.2446592999913264,0.375732421875,-0.45306396484375,0.30841064453125,-0.74725341796875,0.18310546875,-0.1220703125,0.1220703125,0.44580078125,-0.802001953125,0.3975830078125,-296.0,152.0,-149.0,101700.0,-3.117000102996826,0,0
1.24556080000184,0.375732421875,-0.45306396484375,0.30841064453125,-0.74725341796875,0.0,0.06103515625,0.06103515625,0.4468994140625,-0.8011474609375,0.3995361328125,-296.0,152.0,-149.0,101700.0,-3.117000102996826,0,0
1.245627099997364,0.375732421875,-0.45306396484375,0.30841064453125,-0.74725341796875,0.0,-0.06103515625,0.06103515625,0.447509765625,-0.8035888671875,0.3984375,-296.0,152.0,-149.0,101700.0,-3.117000102996826,0,0
1.2456893999915337,0.375732421875,-0.45306396484375,0.30841064453125,-0.74725341796875,0.244140625,0.06103515625,-0.18310546875,0.4461669921875,-0.8004150390625,0.398681640625,-296.0,152.0,-149.0,101700.0,-3.117000102996826,0,0
1.245748100001947,0.375732421875,-0.45306396484375,0.30841064453125,-0.74725341796875,0.0,-0.18310546875,-0.18310546875,0.4473876953125,-0.801025390625,0.3988037109375,-296.0,152.0,-149.0,101700.0,-3.117000102996826,0,0
1.2458072000008542,0.375732421875,-0.45306396484375,0.30841064453125,-0.74725341796875,0.0,-0.18310546875,-0.18310546875,0.4473876953125,-0.801025390625,0.3988037109375,-295.0,152.0,-149.0,101700.0,-3.117000102996826,0,0
1.2458631999907084,0.375640869140625,-0.453033447265625,0.3084716796875,-0.747283935546875,0.244140625,-0.1220703125,-0.1220703125,0.44384765625,-0.800537109375,0.3985595703125,-295.0,152.0,-149.0,101700.0,-3.117000102996826,0,0
1.2459186999913072,0.375640869140625,-0.453033447265625,0.3084716796875,-0.747283935546875,0.244140625,-0.1220703125,-0.1220703125,0.44384765625,-0.800537109375,0.3985595703125,-295.0,152.0,-149.0,101700.0,-3.117000102996826,0,0
1.311831799990614,0.375640869140625,-0.453033447265625,0.3084716796875,-0.747283935546875,-0.18310546875,0.1220703125,-0.1220703125,0.4454345703125,-0.8028564453125,0.39794921875,-295.0,152.0,-149.0,101700.0,-3.117000102996826,0,0
1.3118966999900294,0.375640869140625,-0.453033447265625,0.308502197265625,-0.747283935546875,0.30517578125,-0.06103515625,-0.30517578125,0.4462890625,-0.802490234375,0.398193359375,-295.0,152.0,-149.0,101700.0,-3.117000102996826,0,0
1.311955899989698,0.375640869140625,-0.453033447265625,0.308502197265625,-0.747283935546875,0.0,-0.1220703125,-0.06103515625,0.4443359375,-0.802490234375,0.399658203125,-295.0,152.0,-149.0,101700.0,-3.117000102996826,0,0
1.3120118999941042,0.375640869140625,-0.453033447265625,0.308502197265625,-0.747283935546875,0.0,0.18310546875,0.0,0.446044921875,-0.8011474609375,0.3984375,-295.0,152.0,-149.0,101700.0,-3.117000102996826,0,0
1.3120699999999488,0.375640869140625,-0.453033447265625,0.308502197265625,-0.747283935546875,0.06103515625,0.1220703125,0.18310546875,0.444091796875,-0.8023681640625,0.39892578125,-295.0,152.0,-149.0,101700.0,-3.117000102996826,0,0
1.312125800002832,0.375640869140625,-0.453033447265625,0.308502197265625,-0.747283935546875,0.0,-0.06103515625,-0.18310546875,0.4432373046875,-0.801513671875,0.3985595703125,-295.0,152.0,-149.0,101700.0,-3.117000102996826,0,0
1.3132737999985693,0.375640869140625,-0.453033447265625,0.308502197265625,-0.747283935546875,0.0,0.06103515625,0.1220703125,0.4454345703125,-0.8037109375,0.401611328125,-295.0,152.0,-149.0,101700.0,-3.117000102996826,0,0
1.3133923999994295,0.375640869140625,-0.453033447265625,0.308502197265625,-0.747283935546875,-0.244140625,0.06103515625,0.06103515625,0.4462890625,-0.801513671875,0.3975830078125,-295.0,152.0,-149.0,101700.0,-3.117000102996826,0,0
1.3134514999983367,0.375640869140625,-0.453033447265625,0.308502197265625,-0.747283935546875,-0.244140625,0.06103515625,0.06103515625,0.4462890625,-0.801513671875,0.3975830078125,-295.0,152.0,-149.0,101700.0,-3.117000102996826,0,0
1.3135088999988511,0.375640869140625,-0.453033447265625,0.308502197265625,-0.747283935546875,0.06103515625,-0.1220703125,-0.244140625,0.447509765625,-0.8017578125,0.3985595703125,-295.0,152.0,-149.0,101700.0,-3.117000102996826,0,0
1.313565499993274,0.375640869140625,-0.453033447265625,0.308502197265625,-0.747283935546875,0.30517578125,-0.244140625,0.0,0.4461669921875,-0.8026123046875,0.3990478515625,-295.0,152.0,-149.0,101700.0,-3.117000102996826,0,0
1.3136231999960728,0.375640869140625,-0.453033447265625,0.308502197265625,-0.747283935546875,-0.06103515625,-0.30517578125,0.0,0.4429931640625,-0.802734375,0.39892578125,-295.0,152.0,-149.0,101700.0,-3.117000102996826,0,0
1.3828692999959458,0.375640869140625,-0.453033447265625,0.308502197265625,-0.747283935546875,0.30517578125,0.0,-0.06103515625,0.4447021484375,-0.799072265625,0.398193359375,-295.0,152.0,-149.0,101700.0,-3.117000102996826,0,0
1.3829379999951925,0.375640869140625,-0.453033447265625,0.308502197265625,-0.747283935546875,0.18310546875,0.06103515625,-0.06103515625,0.4449462890625,-0.800537109375,0.3978271484375,-295.0,152.0,-149.0,101700.0,-3.117000102996826,0,0
1.3829989999940153,0.375640869140625,-0.453033447265625,0.308502197265625,-0.747283935546875,0.244140625,-0.1220703125,-0.06103515625,0.446533203125,-0.7999267578125,0.3997802734375,-295.0,152.0,-149.0,101700.0,-3.117000102996826,0,0
1.3830592000012984,0.375640869140625,-0.453033447265625,0.308502197265625,-0.747283935546875,0.244140625,-0.1220703125,-0.06103515625,0.446533203125,-0.7999267578125,0.3997802734375,-295.0,152.0,-149.0,101700.0,-3.117000102996826,0,0
1.383119699996314,0.37554931640625,-0.4530029296875,0.308563232421875,-0.747314453125,0.244140625,0.06103515625,0.06103515625,0.4451904296875,-0.8045654296875,0.4005126953125,-294.0,150.0,-149.0,101700.0,-3.117000102996826,0,0
1.383267800003523,0.37554931640625,-0.4530029296875,0.308563232421875,-0.747314453125,0.06103515625,-0.06103515625,0.06103515625,0.4449462890625,-0.8016357421875,0.3978271484375,-294.0,150.0,-149.0,101700.0,-3.117000102996826,0,0
1.3833262999978615,0.375518798828125,-0.4530029296875,0.308563232421875,-0.747314453125,0.06103515625,0.244140625,-0.1220703125,0.44677734375,-0.8006591796875,0.3985595703125,-294.0,150.0,-149.0,101700.0,-3.117000102996826,0,0
1.3833822000015061,0.375518798828125,-0.4530029296875,0.30859375,-0.747314453125,0.18310546875,-0.06103515625,-0.1220703125,0.44580078125,-0.8016357421875,0.3978271484375,-294.0,150.0,-149.0,101700.0,-3.117000102996826,0,0
1.383438999997452,0.375518798828125,-0.4530029296875,0.30859375,-0.747314453125,0.0,-0.1220703125,0.0,0.4466552734375,-0.80224609375,0.3990478515625,-294.0,150.0,-149.0,101700.0,-3.117000102996826,0,0
1.3834935999911977,0.375518798828125,-0.4530029296875,0.30859375,-0.747314453125,0.0,-0.1220703125,-0.18310546875,0.4459228515625,-0.8017578125,0.3975830078125,-294.0,150.0,-149.0,101700.0,-3.117000102996826,0,0
1.3835470999911195,0.375518798828125,-0.4530029296875,0.30859375,-0.747314453125,-0.18310546875,-0.18310546875,-0.244140625,0.4451904296875,-0.8001708984375,0.398681640625,-294.0,150.0,-149.0,101700.0,-3.117000102996826,0,0
1.3836035999993328,0.375518798828125,-0.453033447265625,0.30859375,-0.747314453125,-0.244140625,-0.18310546875,-0.244140625,0.445556640625,-0.80419921875,0.3994140625,-294.0,150.0,-149.0,101700.0,-3.117000102996826,0,0
1.4369177999906242,0.375518798828125,-0.4530029296875,0.30859375,-0.747314453125,0.1220703125,-0.06103515625,-0.06103515625,0.4442138671875,-0.8016357421875,0.3995361328125,-294.0,150.0,-149.0,101699.0,-3.116000175476074,0,0
1.4369923999911407,0.37554931640625,-0.4530029296875,0.30859375,-0.747314453125,0.1220703125,0.18310546875,-0.244140625,0.44287109375,-0.8018798828125,0.4012451171875,-294.0,150.0,-149.0,101699.0,-3.116000175476074,0,0
1.4372570999985328,0.37554931640625,-0.4530029296875,0.30859375,-0.747314453125,0.1220703125,-0.06103515625,0.0,0.4453125,-0.800537109375,0.398681640625,-294.0,150.0,-149.0,101699.0,-3.116000175476074,0,0
1.43731839999964,0.37554931640625,-0.4530029296875,0.30859375,-0.747314453125,0.0,-0.18310546875,-0.06103515625,0.444580078125,-0.7996826171875,0.3975830078125,-294.0,150.0,-149.0,101699.0,-3.116000175476074,0,0
1.4373780000023544,0.37554931640625,-0.4530029296875,0.30859375,-0.747314453125,-0.06103515625,0.0,-0.244140625,0.4439697265625,-0.8009033203125,0.39794921875,-294.0,150.0,-149.0,101699.0,-3.116000175476074,0,0
1.4375361999991583,0.37554931640625,-0.4530029296875,0.30859375,-0.747314453125,-0.06103515625,0.0,-0.1220703125,0.4437255859375,-0.80322265625,0.399169921875,-294.0,150.0,-149.0,101699.0,-3.116000175476074,0,0
1.4375987999956124,0.37554931640625,-0.4530029296875,0.30859375,-0.747314453125,0.3662109375,-0.18310546875,-0.18310546875,0.44482421875,-0.802490234375,0.398681640625,-294.0,150.0,-149.0,101699.0,-3.116000175476074,0,0
1.4376571000029799,0.37554931640625,-0.4530029296875,0.30859375,-0.747314453125,0.0,-0.3662109375,0.244140625,0.4481201171875,-0.80419921875,0.39697265625,-294.0,150.0,-149.0,101699.0,-3.116000175476074,0,0
1.437713999999687,0.37554931640625,-0.4530029296875,0.30859375,-0.747314453125,0.0,-0.3662109375,0.244140625,0.4481201171875,-0.80419921875,0.39697265625,-294.0,150.0,-149.0,101699.0,-3.116000175476074,0,0
1.4377704999933485,0.37554931640625,-0.4530029296875,0.30859375,-0.747314453125,-0.18310546875,-0.06103515625,-0.1220703125,0.4461669921875,-0.80224609375,0.398193359375,-294.0,150.0,-149.0,101699.0,-3.116000175476074,0,0
1.4378284999984317,0.37554931640625,-0.4530029296875,0.30859375,-0.747283935546875,0.1220703125,-0.06103515625,-0.18310546875,0.4456787109375,-0.8026123046875,0.3983154296875,-295.0,151.0,-150.0,101699.0,-3.116000175476074,0,0
1.5036051999923075,0.37542724609375,-0.452972412109375,0.30865478515625,-0.747344970703125,0.06103515625,-0.244140625,-0.1220703125,0.446533203125,-0.8017578125,0.399169921875,-295.0,151.0,-150.0,101699.0,-3.116000175476074,0,0
1.5036764999968,0.37542724609375,-0.452972412109375,0.30865478515625,-0.747344970703125,0.1220703125,0.0,0.0,0.447265625,-0.80126953125,0.3994140625,-295.0,151.0,-150.0,101699.0,-3.116000175476074,0,0
1.5037383000017144,0.37542724609375,-0.452972412109375,0.30865478515625,-0.747344970703125,-0.1220703125,-0.06103515625,-0.30517578125,0.445068359375,-0.8001708984375,0.3994140625,-295.0,151.0,-150.0,101699.0,-3.116000175476074,0,0
1.5037960999907227,0.37542724609375,-0.452972412109375,0.30865478515625,-0.747344970703125,-0.18310546875,0.0,-0.30517578125,0.4444580078125,-0.80126953125,0.39794921875,-295.0,151.0,-150.0,101699.0,-3.116000175476074,0,0
1.5038561999972444,0.37542724609375,-0.452972412109375,0.30865478515625,-0.747344970703125,0.244140625,0.18310546875,0.0,0.443115234375,-0.79931640625,0.3994140625,-295.0,151.0,-150.0,101699.0,-3.116000175476074,0,0
1.503912499989383,0.37542724609375,-0.452972412109375,0.30865478515625,-0.747344970703125,0.0,-0.1220703125,-0.06103515625,0.4459228515625,-0.8017578125,0.399658203125,-295.0,151.0,-150.0,101699.0,-3.116000175476074,0,0
1.5047162999981083,0.37542724609375,-0.452972412109375,0.30865478515625,-0.747344970703125,0.30517578125,0.18310546875,0.06103515625,0.4464111328125,-0.8016357421875,0.398681640625,-295.0,151.0,-150.0,101699.0,-3.116000175476074,0,0
1.5048307999968529,0.37542724609375,-0.452972412109375,0.30865478515625,-0.747344970703125,0.30517578125,0.18310546875,0.06103515625,0.4464111328125,-0.8016357421875,0.398681640625,-295.0,151.0,-150.0,101699.0,-3.116000175476074,0,0
1.5048926000017673,0.37542724609375,-0.452972412109375,0.30865478515625,-0.747344970703125,-0.06103515625,-0.06103515625,-0.1220703125,0.4461669921875,-0.8021240234375,0.3985595703125,-295.0,151.0,-150.0,101700.0,-3.118000030517578,0,0
1.5049512999976287,0.37542724609375,-0.4530029296875,0.30865478515625,-0.747344970703125,0.06103515625,-0.18310546875,0.18310546875,0.444091796875,-0.8016357421875,0.3978271484375,-295.0,151.0,-150.0,101700.0,-3.118000030517578,0,0
1.5050110000011045,0.37542724609375,-0.4530029296875,0.308685302734375,-0.747344970703125,0.0,0.1220703125,0.244140625,0.4443359375,-0.8026123046875,0.3974609375,-295.0,151.0,-150.0,101700.0,-3.118000030517578,0,0
1.5050680999993347,0.37542724609375,-0.4530029296875,0.308685302734375,-0.747344970703125,-0.1220703125,0.06103515625,0.0,0.4432373046875,-0.8023681640625,0.3994140625,-295.0,151.0,-150.0,101700.0,-3.118000030517578,0,0
1.505126799995196,0.37542724609375,-0.4530029296875,0.308685302734375,-0.747344970703125,0.06103515625,0.1220703125,0.0,0.447265625,-0.8017578125,0.3975830078125,-295.0,151.0,-150.0,101700.0,-3.118000030517578,0,0
1.5762034999934258,0.37542724609375,-0.4530029296875,0.308685302734375,-0.747344970703125,-0.1220703125,0.0,-0.30517578125,0.444091796875,-0.8009033203125,0.3985595703125,-295.0,151.0,-150.0,101700.0,-3.118000030517578,0,0
1.5762719999911496,0.37542724609375,-0.4530029296875,0.308685302734375,-0.747344970703125,-0.1220703125,0.0,-0.30517578125,0.444091796875,-0.8009033203125,0.3985595703125,-295.0,151.0,-150.0,101700.0,-3.118000030517578,0,0
1.5763332999922568,0.37542724609375,-0.4530029296875,0.308685302734375,-0.747314453125,0.30517578125,0.0,0.0,0.44580078125,-0.802978515625,0.3961181640625,-295.0,151.0,-150.0,101700.0,-3.118000030517578,0,0
1.5763944999926025,0.37542724609375,-0.4530029296875,0.308685302734375,-0.747314453125,0.0,-0.18310546875,0.06103515625,0.4427490234375,-0.79931640625,0.3961181640625,-295.0,151.0,-150.0,101700.0,-3.118000030517578,0,0
1.5764750999951502,0.37542724609375,-0.4530029296875,0.308685302734375,-0.747314453125,-0.06103515625,0.18310546875,0.0,0.447265625,-0.8017578125,0.3984375,-295.0,151.0,-150.0,101700.0,-3.118000030517578,0,0
1.576532999999472,0.37530517578125,-0.452972412109375,0.308746337890625,-0.74737548828125,-0.06103515625,0.18310546875,0.0,0.447265625,-0.8017578125,0.3984375,-296.0,151.0,-150.0,101700.0,-3.118000030517578,0,0
1.5765908999892417,0.37530517578125,-0.452972412109375,0.308746337890625,-0.74737548828125,-0.18310546875,0.1220703125,-0.06103515625,0.4449462890625,-0.800537109375,0.398193359375,-296.0,151.0,-150.0,101700.0,-3.118000030517578,0,0
1.5766487999935634,0.37530517578125,-0.452972412109375,0.308746337890625,-0.74737548828125,0.06103515625,0.0,0.1220703125,0.446044921875,-0.802734375,0.398681640625,-296.0,151.0,-150.0,101700.0,-3.118000030517578,0,0
1.5767056999902707,0.37530517578125,-0.452972412109375,0.308746337890625,-0.74737548828125,-0.06103515625,0.0,-0.18310546875,0.4443359375,-0.8023681640625,0.3995361328125,-296.0,151.0,-150.0,101700.0,-3.118000030517578,0,0
1.5767613999923924,0.37530517578125,-0.4530029296875,0.308746337890625,-0.74737548828125,0.1220703125,0.1220703125,0.06103515625,0.4464111328125,-0.8017578125,0.398193359375,-296.0,151.0,-150.0,101700.0,-3.118000030517578,0,0
1.5768180000013672,0.37530517578125,-0.4530029296875,0.308746337890625,-0.74737548828125,0.1220703125,-0.18310546875,0.0,0.446533203125,-0.801513671875,0.3980712890625,-296.0,151.0,-150.0,101700.0,-3.118000030517578,0,0
1.630800699989777,0.37530517578125,-0.4530029296875,0.308746337890625,-0.747344970703125,0.18310546875,-0.1220703125,-0.06103515625,0.4444580078125,-0.8018798828125,0.39892578125,-296.0,151.0,-150.0,101700.0,-3.118000030517578,0,0
1.6308752999902936,0.37530517578125,-0.4530029296875,0.30877685546875,-0.747344970703125,0.18310546875,-0.1220703125,-0.06103515625,0.4444580078125,-0.8018798828125,0.39892578125,-296.0,151.0,-150.0,101700.0,-3.117000102996826,0,0
1.630936899993685,0.37530517578125,-0.4530029296875,0.30877685546875,-0.747344970703125,-0.06103515625,-0.06103515625,0.0,0.443603515625,-0.8011474609375,0.3974609375,-296.0,151.0,-150.0,101700.0,-3.117000102996826,0,0
1.6309949999995297,0.37530517578125,-0.4530029296875,0.30877685546875,-0.747344970703125,0.6103515625,-0.06103515625,-0.244140625,0.445068359375,-0.802490234375,0.3985595703125,-296.0,151.0,-150.0,101700.0,-3.117000102996826,0,0
1.6310533999931067,0.37530517578125,-0.4530029296875,0.30877685546875,-0.747344970703125,0.06103515625,0.06103515625,-0.18310546875,0.4437255859375,-0.802490234375,0.3963623046875,-296.0,151.0,-150.0,101700.0,-3.117000102996826,0,0
1.6314286999986507,0.37530517578125,-0.4530029296875,0.30877685546875,-0.747344970703125,0.18310546875,0.0,-0.1220703125,0.445068359375,-0.80126953125,0.398193359375,-296.0,151.0,-150.0,101700.0,-3.117000102996826,0,0
1.6316468000004534,0.37530517578125,-0.4530029296875,0.30877685546875,-0.747344970703125,-0.06103515625,-0.244140625,-0.06103515625,0.4471435546875,-0.80224609375,0.3983154296875,-296.0,151.0,-150.0,101700.0,-3.117000102996826,0,0
1.6319402999943122,0.37530517578125,-0.4530029296875,0.30877685546875,-0.747344970703125,-0.06103515625,-0.244140625,-0.06103515625,0.4471435546875,-0.80224609375,0.3983154296875,-296.0,151.0,-150.0,101700.0,-3.117000102996826,0,0
1.6320157000009203,0.37530517578125,-0.4530029296875,0.30877685546875,-0.747344970703125,0.18310546875,0.18310546875,-0.244140625,0.4453125,-0.8016357421875,0.3997802734375,-296.0,151.0,-150.0,101700.0,-3.117000102996826,0,0
1.6320770000020275,0.37530517578125,-0.4530029296875,0.30877685546875,-0.747344970703125,0.0,-0.18310546875,0.1220703125,0.4449462890625,-0.802734375,0.398193359375,-296.0,151.0,-150.0,101700.0,-3.117000102996826,0,0
1.6321353999956045,0.37530517578125,-0.4530029296875,0.30877685546875,-0.747344970703125,0.0,0.0,-0.06103515625,0.4423828125,-0.8021240234375,0.3983154296875,-296.0,151.0,-150.0,101700.0,-3.117000102996826,0,0
1.6943935000017518,0.37530517578125,-0.4530029296875,0.30877685546875,-0.747344970703125,-0.18310546875,-0.18310546875,0.0,0.445556640625,-0.802001953125,0.3988037109375,-296.0,151.0,-150.0,101700.0,-3.117000102996826,0,0
1.6944652999954997,0.37530517578125,-0.4530029296875,0.30877685546875,-0.747344970703125,0.06103515625,0.06103515625,-0.244140625,0.4461669921875,-0.802978515625,0.398193359375,-295.0,151.0,-151.0,101700.0,-3.117000102996826,0,0
1.6945267999981297,0.375213623046875,-0.452972412109375,0.308837890625,-0.74737548828125,0.30517578125,0.06103515625,0.30517578125,0.4453125,-0.8011474609375,0.3975830078125,-295.0,151.0,-151.0,101700.0,-3.117000102996826,0,0
1.6945884000015212,0.375213623046875,-0.452972412109375,0.308837890625,-0.74737548828125,-0.1220703125,0.18310546875,-0.1220703125,0.4461669921875,-0.801025390625,0.3975830078125,-295.0,151.0,-151.0,101700.0,-3.117000102996826,0,0
1.6946470999973826,0.375213623046875,-0.452972412109375,0.308837890625,-0.74737548828125,0.06103515625,0.0,-0.06103515625,0.44677734375,-0.801513671875,0.3975830078125,-295.0,151.0,-151.0,101700.0,-3.117000102996826,0,0
1.6947071999893524,0.375213623046875,-0.452972412109375,0.308868408203125,-0.74737548828125,0.06103515625,-0.06103515625,0.0,0.44482421875,-0.8017578125,0.398193359375,-295.0,151.0,-151.0,101700.0,-3.117000102996826,0,0
1.6953744999918854,0.375213623046875,-0.452972412109375,0.308868408203125,-0.74737548828125,0.06103515625,-0.06103515625,0.0,0.44482421875,-0.8017578125,0.398193359375,-295.0,151.0,-151.0,101700.0,-3.117000102996826,0,0
1.6954419999965467,0.375213623046875,-0.452972412109375,0.308868408203125,-0.74737548828125,0.244140625,-0.1220703125,-0.244140625,0.445068359375,-0.8021240234375,0.3975830078125,-295.0,151.0,-151.0,101700.0,-3.117000102996826,0,0
1.6955020000023069,0.375213623046875,-0.4530029296875,0.308868408203125,-0.74737548828125,0.1220703125,-0.06103515625,-0.06103515625,0.446533203125,-0.803955078125,0.3978271484375,-295.0,151.0,-151.0,101700.0,-3.117000102996826,0,0
1.6955608999996912,0.375213623046875,-0.4530029296875,0.308868408203125,-0.74737548828125,-0.18310546875,-0.06103515625,-0.06103515625,0.44482421875,-0.80078125,0.396240234375,-295.0,151.0,-151.0,101700.0,-3.117000102996826,0,0
1.6956190999917453,0.375213623046875,-0.4530029296875,0.308868408203125,-0.74737548828125,0.06103515625,-0.18310546875,-0.06103515625,0.44482421875,-0.8004150390625,0.3975830078125,-295.0,151.0,-151.0,101700.0,-3.118000030517578,0,0
1.6956770999968285,0.375213623046875,-0.4530029296875,0.308868408203125,-0.74737548828125,0.06103515625,-0.06103515625,0.0,0.4447021484375,-0.8031005859375,0.3970947265625,-295.0,151.0,-151.0,101700.0,-3.118000030517578,0,0
1.6957338999927742,0.375213623046875,-0.4530029296875,0.308868408203125,-0.74737548828125,0.18310546875,0.0,-0.244140625,0.4429931640625,-0.8026123046875,0.396728515625,-295.0,151.0,-151.0,101700.0,-3.118000030517578,0,0
1.757894700000179,0.375213623046875,-0.4530029296875,0.30889892578125,-0.74737548828125,0.1220703125,0.0,0.0,0.4442138671875,-0.802734375,0.3985595703125,-295.0,151.0,-151.0,101700.0,-3.118000030517578,0,0
1.757972699997481,0.375213623046875,-0.4530029296875,0.308868408203125,-0.74737548828125,0.0,0.0,0.06103515625,0.44580078125,-0.80126953125,0.3990478515625,-295.0,151.0,-151.0,101700.0,-3.118000030517578,0,0
1.7580375999968965,0.375213623046875,-0.4530029296875,0.30889892578125,-0.74737548828125,0.18310546875,-0.30517578125,0.06103515625,0.447509765625,-0.803466796875,0.398681640625,-295.0,151.0,-151.0,101700.0,-3.118000030517578,0,0
1.758095899989712,0.375213623046875,-0.4530029296875,0.30889892578125,-0.747344970703125,0.48828125,0.18310546875,-0.1220703125,0.4449462890625,-0.8016357421875,0.398193359375,-295.0,151.0,-151.0,101700.0,-3.118000030517578,0,0
1.7581551999901421,0.375213623046875,-0.4530029296875,0.30889892578125,-0.747344970703125,0.06103515625,-0.18310546875,0.0,0.4471435546875,-0.800537109375,0.3953857421875,-295.0,151.0,-151.0,101700.0,-3.118000030517578,0,0
1.758300599991344,0.37518310546875,-0.4530029296875,0.30889892578125,-0.747344970703125,0.1220703125,0.0,-0.1220703125,0.446044921875,-0.80322265625,0.3978271484375,-295.0,151.0,-151.0,101700.0,-3.118000030517578,0,0
1.758366299996851,0.37518310546875,-0.4530029296875,0.30889892578125,-0.747344970703125,0.1220703125,-0.1220703125,0.06103515625,0.4459228515625,-0.7987060546875,0.398681640625,-294.0,151.0,-151.0,101700.0,-3.118000030517578,0,0
1.7584261000010883,0.3748779296875,-0.452880859375,0.30908203125,-0.74749755859375,0.30517578125,0.18310546875,-0.1220703125,0.4456787109375,-0.8011474609375,0.396728515625,-294.0,151.0,-151.0,101700.0,-3.118000030517578,0,0
1.7584856000030413,0.3748779296875,-0.452880859375,0.30908203125,-0.74749755859375,-0.1220703125,-0.18310546875,-0.06103515625,0.446533203125,-0.8023681640625,0.3980712890625,-294.0,151.0,-151.0,101700.0,-3.118000030517578,0,0
1.7585430000035558,0.3748779296875,-0.452911376953125,0.309051513671875,-0.74749755859375,0.244140625,0.1220703125,0.06103515625,0.4453125,-0.7998046875,0.3988037109375,-294.0,151.0,-151.0,101700.0,-3.118000030517578,0,0
1.758600100001786,0.3748779296875,-0.452911376953125,0.309051513671875,-0.74749755859375,0.244140625,0.1220703125,0.06103515625,0.4453125,-0.7998046875,0.3988037109375,-294.0,151.0,-151.0,101700.0,-3.118000030517578,0,0
1.8216442999982974,0.3748779296875,-0.452911376953125,0.309051513671875,-0.74749755859375,-0.06103515625,-0.18310546875,0.1220703125,0.44580078125,-0.799560546875,0.3980712890625,-294.0,151.0,-151.0,101700.0,-3.118000030517578,0,0
1.8217103999922983,0.3748779296875,-0.452911376953125,0.309051513671875,-0.74749755859375,0.0,0.1220703125,0.06103515625,0.446533203125,-0.8016357421875,0.396484375,-294.0,151.0,-151.0,101700.0,-3.118000030517578,0,0
1.8217708000011044,0.3748779296875,-0.452911376953125,0.309051513671875,-0.74749755859375,0.244140625,0.0,0.18310546875,0.447265625,-0.8017578125,0.3958740234375,-294.0,151.0,-151.0,101700.0,-3.118000030517578,0,0
1.8218286999908742,0.3748779296875,-0.452911376953125,0.309051513671875,-0.74749755859375,0.244140625,0.0,0.18310546875,0.447265625,-0.8017578125,0.3958740234375,-294.0,151.0,-151.0,101700.0,-3.117000102996826,0,0
1.8218890999996802,0.3748779296875,-0.452911376953125,0.309051513671875,-0.74749755859375,-0.06103515625,-0.06103515625,0.0,0.445068359375,-0.800048828125,0.3968505859375,-294.0,151.0,-151.0,101700.0,-3.117000102996826,0,0
1.8227328999928432,0.3748779296875,-0.452911376953125,0.30908203125,-0.74749755859375,0.1220703125,0.0,0.0,0.445068359375,-0.8021240234375,0.3975830078125,-294.0,151.0,-151.0,101700.0,-3.117000102996826,0,0
1.8227966999984346,0.3748779296875,-0.452911376953125,0.30908203125,-0.74749755859375,0.1220703125,0.0,0.0,0.445068359375,-0.8021240234375,0.3975830078125,-294.0,151.0,-151.0,101700.0,-3.117000102996826,0,0
1.8229044000036083,0.3748779296875,-0.45294189453125,0.30908203125,-0.74749755859375,0.1220703125,-0.06103515625,-0.18310546875,0.4456787109375,-0.8035888671875,0.396728515625,-294.0,151.0,-151.0,101700.0,-3.117000102996826,0,0
1.8229606999957468,0.3748779296875,-0.45294189453125,0.30908203125,-0.74749755859375,0.1220703125,-0.244140625,-0.06103515625,0.4432373046875,-0.801025390625,0.3963623046875,-294.0,151.0,-151.0,101700.0,-3.117000102996826,0,0
1.8230171999894083,0.3748779296875,-0.45294189453125,0.30908203125,-0.74749755859375,-0.244140625,-0.06103515625,-0.1220703125,0.4442138671875,-0.8017578125,0.3974609375,-294.0,151.0,-151.0,101700.0,-3.117000102996826,0,0
1.8230738999991445,0.3748779296875,-0.45294189453125,0.30908203125,-0.747467041015625,0.18310546875,0.0,-0.3662109375,0.44384765625,-0.8011474609375,0.39599609375,-294.0,151.0,-151.0,101700.0,-3.117000102996826,0,0
1.8972509000013815,0.3748779296875,-0.45294189453125,0.30908203125,-0.747467041015625,0.06103515625,-0.06103515625,-0.30517578125,0.445556640625,-0.8009033203125,0.3970947265625,-294.0,151.0,-151.0,101700.0,-3.117000102996826,0,0
1.8973219999897992,0.3748779296875,-0.45294189453125,0.30908203125,-0.747467041015625,-0.06103515625,-0.30517578125,0.1220703125,0.4473876953125,-0.802001953125,0.396728515625,-294.0,151.0,-151.0,101700.0,-3.117000102996826,0,0
1.897382800001651,0.3748779296875,-0.45294189453125,0.30908203125,-0.747467041015625,-0.1220703125,-0.244140625,0.0,0.4444580078125,-0.8037109375,0.3974609375,-294.0,151.0,-151.0,101700.0,-3.117000102996826,0,0
1.8974436999997124,0.3748779296875,-0.45294189453125,0.30908203125,-0.747467041015625,-0.18310546875,-0.06103515625,0.0,0.44482421875,-0.8037109375,0.39794921875,-294.0,151.0,-151.0,101700.0,-3.117000102996826,0,0
1.8975044999970123,0.37457275390625,-0.45281982421875,0.30926513671875,-0.74761962890625,0.06103515625,-0.06103515625,-0.06103515625,0.4481201171875,-0.804931640625,0.396728515625,-294.0,151.0,-151.0,101700.0,-3.117000102996826,0,0
1.8975623000005726,0.37457275390625,-0.45281982421875,0.30926513671875,-0.74761962890625,0.06103515625,-0.06103515625,-0.06103515625,0.4481201171875,-0.804931640625,0.396728515625,-294.0,151.0,-151.0,101700.0,-3.117000102996826,0,0
1.897619700001087,0.374542236328125,-0.452850341796875,0.309295654296875,-0.74761962890625,0.06103515625,0.18310546875,0.0,0.44677734375,-0.8016357421875,0.3975830078125,-294.0,151.0,-151.0,101700.0,-3.117000102996826,0,0
1.8980710999894654,0.374542236328125,-0.452850341796875,0.309295654296875,-0.74761962890625,0.244140625,-0.06103515625,0.06103515625,0.4461669921875,-0.8026123046875,0.3975830078125,-294.0,151.0,-151.0,101700.0,-3.117000102996826,0,0
1.8981360000034329,0.374542236328125,-0.452850341796875,0.309295654296875,-0.74761962890625,-0.1220703125,-0.244140625,0.1220703125,0.4466552734375,-0.802001953125,0.3985595703125,-294.0,151.0,-151.0,101700.0,-3.117000102996826,0,0
1.89819439999701,0.374542236328125,-0.452850341796875,0.309295654296875,-0.74761962890625,0.06103515625,-0.06103515625,-0.244140625,0.4447021484375,-0.802490234375,0.39892578125,-294.0,151.0,-151.0,101700.0,-3.117000102996826,0,0
1.8982517999975244,0.374542236328125,-0.452850341796875,0.309295654296875,-0.74761962890625,-0.18310546875,0.0,0.1220703125,0.445556640625,-0.8009033203125,0.3968505859375,-294.0,151.0,-151.0,101700.0,-3.117000102996826,0,0
1.8983084999927087,0.374542236328125,-0.452850341796875,0.309295654296875,-0.74761962890625,0.1220703125,0.06103515625,-0.1220703125,0.4468994140625,-0.8006591796875,0.3974609375,-294.0,151.0,-151.0,101700.0,-3.117000102996826,0,0
1.8983821000001626,0.374542236328125,-0.452850341796875,0.309295654296875,-0.74761962890625,0.1220703125,0.06103515625,0.0,0.4447021484375,-0.8028564453125,0.3975830078125,-294.0,151.0,-151.0,101700.0,-3.117000102996826,0,0
1.951998899996397,0.374542236328125,-0.452850341796875,0.309295654296875,-0.747589111328125,0.0,0.06103515625,-0.06103515625,0.4464111328125,-0.802734375,0.3978271484375,-294.0,151.0,-151.0,101700.0,-3.117000102996826,0,0
1.952063899996574,0.374542236328125,-0.452850341796875,0.309295654296875,-0.747589111328125,0.1220703125,-0.244140625,-0.1220703125,0.445068359375,-0.8023681640625,0.398193359375,-294.0,151.0,-151.0,101700.0,-3.117000102996826,0,0
1.95212360000005,0.374542236328125,-0.452880859375,0.309295654296875,-0.747589111328125,-0.06103515625,-0.06103515625,0.0,0.4483642578125,-0.8016357421875,0.396728515625,-294.0,151.0,-151.0,101700.0,-3.117000102996826,0,0
1.9521814000036102,0.374542236328125,-0.452880859375,0.309295654296875,-0.747589111328125,-0.1220703125,-0.244140625,0.0,0.4444580078125,-0.8018798828125,0.3980712890625,-294.0,151.0,-151.0,101700.0,-3.117000102996826,0,0
1.9522398999979487,0.374542236328125,-0.452880859375,0.309295654296875,-0.747589111328125,0.1220703125,0.06103515625,-0.1220703125,0.4439697265625,-0.8028564453125,0.3975830078125,-294.0,151.0,-151.0,101700.0,-3.117000102996826,0,0
1.952730099990731,0.374542236328125,-0.452880859375,0.309295654296875,-0.747589111328125,0.06103515625,-0.18310546875,0.0,0.4459228515625,-0.800048828125,0.3963623046875,-294.0,151.0,-151.0,101700.0,-3.117000102996826,0,0
1.9528060000011465,0.374542236328125,-0.452880859375,0.309295654296875,-0.747589111328125,-0.30517578125,-0.30517578125,-0.1220703125,0.445556640625,-0.8006591796875,0.3968505859375,-294.0,151.0,-151.0,101700.0,-3.117000102996826,0,0
1.952868699998362,0.374542236328125,-0.452880859375,0.309295654296875,-0.747589111328125,-0.06103515625,-0.06103515625,0.1220703125,0.4456787109375,-0.80029296875,0.398193359375,-294.0,151.0,-151.0,101700.0,-3.117000102996826,0,0
1.9529264000011608,0.374542236328125,-0.452880859375,0.309295654296875,-0.747589111328125,-0.06103515625,-0.06103515625,0.1220703125,0.4456787109375,-0.80029296875,0.398193359375,-294.0,150.0,-150.0,101699.0,-3.116000175476074,0,0
1.9529861999908462,0.374542236328125,-0.452880859375,0.309295654296875,-0.747589111328125,-0.06103515625,-0.06103515625,0.1220703125,0.4456787109375,-0.80029296875,0.398193359375,-294.0,150.0,-150.0,101699.0,-3.116000175476074,0,0
1.9530437999928836,0.37445068359375,-0.45281982421875,0.309356689453125,-0.747650146484375,-0.06103515625,-0.06103515625,-0.1220703125,0.44384765625,-0.799560546875,0.3974609375,-294.0,150.0,-150.0,101699.0,-3.116000175476074,0,0
2.014008099999046,0.37445068359375,-0.45281982421875,0.309356689453125,-0.747650146484375,0.0,-0.1220703125,-0.06103515625,0.44384765625,-0.80078125,0.39697265625,-294.0,150.0,-150.0,101699.0,-3.116000175476074,0,0
2.014073799990001,0.37445068359375,-0.45281982421875,0.309356689453125,-0.747650146484375,0.0,0.06103515625,0.18310546875,0.4443359375,-0.800048828125,0.3963623046875,-294.0,150.0,-150.0,101699.0,-3.116000175476074,0,0
2.014183499995852,0.37445068359375,-0.45281982421875,0.309356689453125,-0.747650146484375,-0.18310546875,-0.06103515625,-0.06103515625,0.446044921875,-0.8004150390625,0.3980712890625,-294.0,150.0,-150.0,101699.0,-3.116000175476074,0,0
2.0142540999950143,0.37445068359375,-0.45281982421875,0.309356689453125,-0.747650146484375,-0.30517578125,-0.06103515625,0.06103515625,0.4439697265625,-0.7996826171875,0.398681640625,-294.0,150.0,-150.0,101699.0,-3.116000175476074,0,0
2.01431600000069,0.37445068359375,-0.45281982421875,0.309356689453125,-0.747650146484375,0.244140625,-0.18310546875,-0.1220703125,0.4464111328125,-0.801025390625,0.3980712890625,-294.0,150.0,-150.0,101699.0,-3.116000175476074,0,0
2.014973099998315,0.37445068359375,-0.45281982421875,0.309356689453125,-0.747650146484375,0.244140625,-0.18310546875,-0.1220703125,0.4464111328125,-0.801025390625,0.3980712890625,-294.0,150.0,-150.0,101699.0,-3.116000175476074,0,0
2.0150383000000147,0.37445068359375,-0.45281982421875,0.309356689453125,-0.747650146484375,0.06103515625,-0.244140625,0.06103515625,0.4447021484375,-0.80224609375,0.39892578125,-294.0,150.0,-150.0,101699.0,-3.116000175476074,0,0
2.015140000003157,0.37445068359375,-0.45281982421875,0.30938720703125,-0.747650146484375,0.244140625,0.18310546875,-0.06103515625,0.4453125,-0.802490234375,0.3968505859375,-294.0,150.0,-150.0,101699.0,-3.116000175476074,0,0
2.0151981999952113,0.37445068359375,-0.45281982421875,0.30938720703125,-0.747650146484375,0.244140625,0.18310546875,-0.06103515625,0.4453125,-0.802490234375,0.3968505859375,-294.0,150.0,-150.0,101699.0,-3.116000175476074,0,0
2.0152554999949643,0.37445068359375,-0.45281982421875,0.309356689453125,-0.747650146484375,0.18310546875,0.06103515625,-0.1220703125,0.4449462890625,-0.80126953125,0.3978271484375,-294.0,150.0,-150.0,101699.0,-3.116000175476074,0,0
2.0153135000000475,0.37445068359375,-0.45281982421875,0.309356689453125,-0.747650146484375,0.0,-0.1220703125,0.1220703125,0.446044921875,-0.801025390625,0.3995361328125,-294.0,150.0,-150.0,101699.0,-3.116000175476074,0,0
2.082224199999473,0.37445068359375,-0.45281982421875,0.309356689453125,-0.747650146484375,0.0,-0.244140625,-0.18310546875,0.4462890625,-0.8016357421875,0.3978271484375,-294.0,150.0,-150.0,101699.0,-3.116000175476074,0,0
2.0822907999972813,0.37445068359375,-0.45281982421875,0.309356689453125,-0.747650146484375,0.06103515625,-0.06103515625,-0.06103515625,0.4462890625,-0.8023681640625,0.3992919921875,-294.0,150.0,-150.0,101699.0,-3.116000175476074,0,0
2.082351999997627,0.37445068359375,-0.452850341796875,0.309356689453125,-0.747650146484375,0.1220703125,-0.3662109375,0.0,0.4459228515625,-0.8013916015625,0.398193359375,-294.0,150.0,-150.0,101699.0,-3.116000175476074,0,0
2.08241079999425,0.37445068359375,-0.452850341796875,0.309356689453125,-0.747650146484375,0.18310546875,-0.1220703125,-0.06103515625,0.4471435546875,-0.8017578125,0.3974609375,-294.0,150.0,-150.0,101699.0,-3.116000175476074,0,0
2.082469200002379,0.37445068359375,-0.452850341796875,0.309356689453125,-0.747650146484375,0.18310546875,-0.1220703125,-0.06103515625,0.4471435546875,-0.8017578125,0.3974609375,-294.0,150.0,-150.0,101699.0,-3.116000175476074,0,0
2.0825257999968017,0.37445068359375,-0.452850341796875,0.309356689453125,-0.747650146484375,0.1220703125,-0.06103515625,-0.1220703125,0.4453125,-0.7994384765625,0.3980712890625,-295.0,150.0,-150.0,101699.0,-3.116000175476074,0,0
2.082582299990463,0.37432861328125,-0.452789306640625,0.309417724609375,-0.7476806640625,0.18310546875,-0.1220703125,0.0,0.445556640625,-0.8031005859375,0.398193359375,-295.0,150.0,-150.0,101699.0,-3.116000175476074,0,0
2.082655699996394,0.37432861328125,-0.452789306640625,0.309417724609375,-0.7476806640625,0.1220703125,-0.244140625,-0.244140625,0.4437255859375,-0.8028564453125,0.3974609375,-295.0,150.0,-150.0,101699.0,-3.116000175476074,0,0
2.0827121999900555,0.37432861328125,-0.452789306640625,0.3094482421875,-0.7476806640625,0.1220703125,0.0,-0.18310546875,0.4471435546875,-0.8028564453125,0.3970947265625,-295.0,150.0,-150.0,101699.0,-3.116000175476074,0,0
2.082768499996746,0.37432861328125,-0.452789306640625,0.3094482421875,-0.7476806640625,-0.06103515625,-0.30517578125,0.06103515625,0.4449462890625,-0.80419921875,0.4000244140625,-295.0,150.0,-150.0,101699.0,-3.116000175476074,0,0
2.0828246000019135,0.37432861328125,-0.452789306640625,0.3094482421875,-0.7476806640625,0.1220703125,-0.18310546875,0.1220703125,0.4459228515625,-0.8023681640625,0.399169921875,-295.0,150.0,-150.0,101699.0,-3.116000175476074,0,0
2.0828802999894833,0.37432861328125,-0.452789306640625,0.3094482421875,-0.7476806640625,0.1220703125,0.0,0.0,0.446533203125,-0.803466796875,0.3990478515625,-295.0,150.0,-150.0,101699.0,-3.116000175476074,0,0
2.0829362999938894,0.37432861328125,-0.452789306640625,0.3094482421875,-0.7476806640625,0.06103515625,-0.06103515625,0.06103515625,0.44482421875,-0.802490234375,0.3983154296875,-295.0,150.0,-150.0,101699.0,-3.116000175476074,0,0
2.146159299998544,0.374359130859375,-0.452789306640625,0.3094482421875,-0.7476806640625,-0.18310546875,-0.244140625,-0.18310546875,0.44580078125,-0.8035888671875,0.3995361328125,-295.0,150.0,-150.0,101699.0,-3.116000175476074,0,0
2.146230699989246,0.374359130859375,-0.452789306640625,0.3094482421875,-0.7476806640625,-0.42724609375,-0.3662109375,0.1220703125,0.4459228515625,-0.803466796875,0.399169921875,-295.0,150.0,-150.0,101699.0,-3.116000175476074,0,0
2.146289299998898,0.374359130859375,-0.452789306640625,0.3094482421875,-0.7476806640625,0.0,-0.30517578125,-0.06103515625,0.446044921875,-0.8021240234375,0.3992919921875,-295.0,150.0,-150.0,101699.0,-3.116000175476074,0,0
2.1463434000033885,0.37432861328125,-0.452789306640625,0.3094482421875,-0.7476806640625,0.0,-0.06103515625,-0.06103515625,0.4471435546875,-0.80419921875,0.398681640625,-295.0,150.0,-150.0,101699.0,-3.116000175476074,0,0
2.14639919999172,0.37432861328125,-0.452789306640625,0.3094482421875,-0.7476806640625,-0.06103515625,-0.06103515625,0.06103515625,0.448974609375,-0.8023681640625,0.3975830078125,-295.0,150.0,-150.0,101699.0,-3.116000175476074,0,0
2.1465960999921663,0.37432861328125,-0.452789306640625,0.309417724609375,-0.7476806640625,0.1220703125,-0.1220703125,0.0,0.446044921875,-0.80126953125,0.3994140625,-295.0,150.0,-150.0,101699.0,-3.116000175476074,0,0
2.1466498999943724,0.37432861328125,-0.452789306640625,0.309417724609375,-0.747711181640625,0.06103515625,-0.1220703125,0.18310546875,0.4456787109375,-0.80078125,0.401123046875,-295.0,150.0,-150.0,101699.0,-3.116000175476074,0,0
2.1467353999905754,0.37432861328125,-0.452789306640625,0.309417724609375,-0.747711181640625,0.06103515625,-0.1220703125,0.06103515625,0.4449462890625,-0.7991943359375,0.39892578125,-295.0,150.0,-150.0,101699.0,-3.116000175476074,0,0
2.146788700003526,0.37432861328125,-0.452789306640625,0.309417724609375,-0.747711181640625,0.06103515625,-0.1220703125,0.06103515625,0.4449462890625,-0.7991943359375,0.39892578125,-295.0,150.0,-150.0,101699.0,-3.116000175476074,0,0
2.146840399989742,0.37432861328125,-0.452789306640625,0.309417724609375,-0.747711181640625,0.0,-0.1220703125,0.06103515625,0.44580078125,-0.8004150390625,0.4000244140625,-295.0,150.0,-150.0,101699.0,-3.116000175476074,0,0
2.1468931999988854,0.37432861328125,-0.452789306640625,0.309417724609375,-0.747711181640625,0.0,-0.1220703125,0.06103515625,0.44580078125,-0.8004150390625,0.4000244140625,-293.0,150.0,-149.0,101700.0,-3.118000030517578,0,0
2.2077026999904774,0.374053955078125,-0.45263671875,0.309600830078125,-0.74786376953125,0.0,-0.18310546875,-0.06103515625,0.4427490234375,-0.8026123046875,0.399658203125,-293.0,150.0,-149.0,101700.0,-3.118000030517578,0,0
2.207767599989893,0.374053955078125,-0.45263671875,0.309600830078125,-0.74786376953125,0.30517578125,0.0,-0.06103515625,0.4461669921875,-0.802490234375,0.399169921875,-293.0,150.0,-149.0,101700.0,-3.118000030517578,0,0
2.207823399992776,0.374053955078125,-0.45263671875,0.309600830078125,-0.74786376953125,0.0,0.0,-0.3662109375,0.445556640625,-0.8018798828125,0.39794921875,-293.0,150.0,-149.0,101700.0,-3.118000030517578,0,0
2.207878699991852,0.3740234375,-0.45263671875,0.309600830078125,-0.74786376953125,0.06103515625,0.1220703125,-0.06103515625,0.4456787109375,-0.7989501953125,0.3995361328125,-293.0,150.0,-149.0,101700.0,-3.118000030517578,0,0
2.2079356999893207,0.3740234375,-0.45263671875,0.309600830078125,-0.74786376953125,0.06103515625,0.1220703125,-0.06103515625,0.4456787109375,-0.7989501953125,0.3995361328125,-293.0,150.0,-149.0,101700.0,-3.118000030517578,0,0
2.208008499990683,0.374053955078125,-0.45263671875,0.309600830078125,-0.74786376953125,0.244140625,-0.06103515625,-0.1220703125,0.4449462890625,-0.802734375,0.39990234375,-293.0,150.0,-149.0,101700.0,-3.118000030517578,0,0
2.2080623999936506,0.374053955078125,-0.45263671875,0.309600830078125,-0.74786376953125,-0.06103515625,-0.06103515625,-0.18310546875,0.4427490234375,-0.8031005859375,0.3980712890625,-293.0,150.0,-149.0,101700.0,-3.118000030517578,0,0
2.2081161999958567,0.374053955078125,-0.45263671875,0.309600830078125,-0.74786376953125,-0.06103515625,-0.06103515625,-0.18310546875,0.4427490234375,-0.8031005859375,0.3980712890625,-293.0,150.0,-149.0,101700.0,-3.118000030517578,0,0
2.2081701999995857,0.374053955078125,-0.45263671875,0.309600830078125,-0.74786376953125,0.0,-0.18310546875,-0.1220703125,0.44677734375,-0.8013916015625,0.39697265625,-293.0,150.0,-149.0,101700.0,-3.118000030517578,0,0
2.2082232999964617,0.374053955078125,-0.452606201171875,0.309600830078125,-0.74786376953125,-0.18310546875,-0.18310546875,-0.1220703125,0.4437255859375,-0.7999267578125,0.4005126953125,-293.0,150.0,-149.0,101700.0,-3.118000030517578,0,0
2.208276899997145,0.374053955078125,-0.452606201171875,0.309600830078125,-0.74786376953125,-0.18310546875,-0.244140625,0.06103515625,0.4453125,-0.8016357421875,0.39794921875,-293.0,150.0,-149.0,101700.0,-3.118000030517578,0,0
2.2669536999892443,0.374053955078125,-0.452606201171875,0.309600830078125,-0.74786376953125,-0.18310546875,-0.244140625,-0.1220703125,0.445068359375,-0.8021240234375,0.3990478515625,-293.0,150.0,-149.0,101700.0,-3.118000030517578,0,0
2.26701929999399,0.374053955078125,-0.452606201171875,0.309600830078125,-0.74786376953125,0.0,0.0,-0.06103515625,0.446044921875,-0.80078125,0.3985595703125,-293.0,150.0,-149.0,101700.0,-3.118000030517578,0,0
2.2670766999945045,0.374053955078125,-0.452606201171875,0.309600830078125,-0.74786376953125,-0.1220703125,-0.06103515625,0.0,0.4462890625,-0.8013916015625,0.3988037109375,-293.0,150.0,-149.0,101700.0,-3.118000030517578,0,0
2.2671302999951877,0.374053955078125,-0.452606201171875,0.309600830078125,-0.74786376953125,-0.1220703125,-0.06103515625,0.0,0.4462890625,-0.8013916015625,0.3988037109375,-293.0,150.0,-149.0,101700.0,-3.118000030517578,0,0
2.267183699994348,0.374053955078125,-0.452606201171875,0.309600830078125,-0.74786376953125,0.06103515625,0.18310546875,-0.18310546875,0.44677734375,-0.8013916015625,0.3990478515625,-293.0,150.0,-149.0,101700.0,-3.118000030517578,0,0
2.2672375999973156,0.374053955078125,-0.452606201171875,0.3095703125,-0.747894287109375,-0.06103515625,-0.1220703125,-0.1220703125,0.4464111328125,-0.800537109375,0.3975830078125,-293.0,150.0,-149.0,101700.0,-3.118000030517578,0,0
2.267291700001806,0.374053955078125,-0.452606201171875,0.3095703125,-0.747894287109375,-0.48828125,-0.1220703125,-0.1220703125,0.4461669921875,-0.7998046875,0.3985595703125,-293.0,151.0,-149.0,101700.0,-3.117000102996826,0,0
2.267858899998828,0.374053955078125,-0.452606201171875,0.3095703125,-0.747894287109375,0.30517578125,0.0,-0.1220703125,0.4444580078125,-0.7994384765625,0.398193359375,-293.0,151.0,-149.0,101700.0,-3.117000102996826,0,0
2.267921099992236,0.373931884765625,-0.45257568359375,0.30963134765625,-0.7479248046875,0.1220703125,-0.06103515625,0.244140625,0.4462890625,-0.8018798828125,0.3995361328125,-293.0,151.0,-149.0,101700.0,-3.117000102996826,0,0
2.2679784999927506,0.373931884765625,-0.45257568359375,0.30963134765625,-0.7479248046875,-0.18310546875,0.0,-0.18310546875,0.4462890625,-0.8021240234375,0.3995361328125,-293.0,151.0,-149.0,101700.0,-3.117000102996826,0,0
2.268033499989542,0.37396240234375,-0.45257568359375,0.30963134765625,-0.7479248046875,0.244140625,-0.30517578125,0.0,0.4449462890625,-0.8018798828125,0.39990234375,-293.0,151.0,-149.0,101700.0,-3.117000102996826,0,0
2.2680888999893796,0.37396240234375,-0.45257568359375,0.30963134765625,-0.747955322265625,-0.3662109375,-0.06103515625,0.0,0.4451904296875,-0.801025390625,0.39990234375,-293.0,151.0,-149.0,101700.0,-3.117000102996826,0,0
2.268141699998523,0.37396240234375,-0.45257568359375,0.30963134765625,-0.747955322265625,-0.3662109375,-0.06103515625,0.0,0.4451904296875,-0.801025390625,0.39990234375,-293.0,151.0,-149.0,101700.0,-3.117000102996826,0,0
2.3402688999922248,0.37396240234375,-0.452545166015625,0.30963134765625,-0.747955322265625,0.18310546875,-0.18310546875,-0.06103515625,0.444091796875,-0.80126953125,0.3992919921875,-293.0,151.0,-149.0,101700.0,-3.117000102996826,0,0
2.3403314000024693,0.37396240234375,-0.452545166015625,0.30963134765625,-0.747955322265625,0.1220703125,0.1220703125,-0.18310546875,0.443359375,-0.800537109375,0.400634765625,-293.0,151.0,-149.0,101700.0,-3.117000102996826,0,0
2.340389099990716,0.37396240234375,-0.452545166015625,0.30963134765625,-0.747955322265625,0.06103515625,-0.244140625,-0.1220703125,0.4449462890625,-0.801513671875,0.3994140625,-293.0,151.0,-149.0,101700.0,-3.117000102996826,0,0
2.3404475999996066,0.37396240234375,-0.452545166015625,0.30963134765625,-0.747955322265625,-0.06103515625,-0.18310546875,-0.06103515625,0.4456787109375,-0.802490234375,0.39990234375,-293.0,151.0,-149.0,101700.0,-3.117000102996826,0,0
2.3405083999969065,0.37396240234375,-0.452545166015625,0.30963134765625,-0.747955322265625,-0.18310546875,-0.06103515625,-0.18310546875,0.4444580078125,-0.8009033203125,0.3992919921875,-293.0,151.0,-149.0,101700.0,-3.117000102996826,0,0
2.340595100002247,0.37396240234375,-0.4525146484375,0.30963134765625,-0.747955322265625,0.244140625,0.0,-0.06103515625,0.444091796875,-0.802001953125,0.3995361328125,-293.0,151.0,-149.0,101700.0,-3.117000102996826,0,0
2.3406485000014072,0.37396240234375,-0.4525146484375,0.30963134765625,-0.747955322265625,0.18310546875,0.0,0.06103515625,0.4449462890625,-0.7991943359375,0.3995361328125,-293.0,151.0,-149.0,101700.0,-3.117000102996826,0,0
2.340702599991346,0.37396240234375,-0.4525146484375,0.30963134765625,-0.747955322265625,0.18310546875,0.0,0.06103515625,0.4449462890625,-0.7991943359375,0.3995361328125,-293.0,151.0,-149.0,101700.0,-3.117000102996826,0,0
2.340755299999728,0.37396240234375,-0.4525146484375,0.30963134765625,-0.747955322265625,0.30517578125,-0.06103515625,-0.1220703125,0.4443359375,-0.8018798828125,0.3985595703125,-293.0,151.0,-149.0,101700.0,-3.117000102996826,0,0
2.340820999990683,0.37396240234375,-0.4525146484375,0.30963134765625,-0.747955322265625,0.06103515625,-0.18310546875,-0.1220703125,0.44384765625,-0.801025390625,0.3992919921875,-293.0,151.0,-149.0,101700.0,-3.117000102996826,0,0
2.340875399997458,0.37396240234375,-0.4525146484375,0.30963134765625,-0.747955322265625,0.1220703125,-0.1220703125,0.0,0.446044921875,-0.8018798828125,0.399658203125,-293.0,151.0,-149.0,101700.0,-3.117000102996826,0,0
2.4009914999915054,0.373779296875,-0.452423095703125,0.30975341796875,-0.748077392578125,0.30517578125,-0.18310546875,0.1220703125,0.443359375,-0.800537109375,0.400146484375,-293.0,152.0,-150.0,101700.0,-3.118000030517578,0,0
2.4011118999915197,0.373779296875,-0.452423095703125,0.30975341796875,-0.748077392578125,-0.1220703125,-0.06103515625,-0.1220703125,0.4453125,-0.8011474609375,0.397216796875,-293.0,152.0,-150.0,101700.0,-3.118000030517578,0,0
2.4011767999909353,0.373779296875,-0.452423095703125,0.30975341796875,-0.748077392578125,0.18310546875,-0.244140625,-0.18310546875,0.444091796875,-0.80126953125,0.3985595703125,-293.0,152.0,-150.0,101700.0,-3.118000030517578,0,0
2.4012321999907726,0.373779296875,-0.452423095703125,0.30975341796875,-0.748077392578125,0.18310546875,-0.244140625,-0.18310546875,0.444091796875,-0.80126953125,0.3985595703125,-293.0,152.0,-150.0,101700.0,-3.118000030517578,0,0
2.401287400003639,0.373779296875,-0.452423095703125,0.30975341796875,-0.748077392578125,-0.06103515625,-0.06103515625,-0.1220703125,0.4432373046875,-0.8028564453125,0.398681640625,-293.0,152.0,-150.0,101700.0,-3.118000030517578,0,0
2.4014849999948638,0.373779296875,-0.452423095703125,0.30975341796875,-0.748077392578125,0.30517578125,0.0,-0.06103515625,0.44482421875,-0.8013916015625,0.4000244140625,-293.0,152.0,-150.0,101700.0,-3.118000030517578,0,0
2.40154099999927,0.373779296875,-0.452423095703125,0.30975341796875,-0.748077392578125,0.0,0.18310546875,-0.18310546875,0.443359375,-0.8021240234375,0.3988037109375,-293.0,152.0,-150.0,101700.0,-3.118000030517578,0,0
2.40162699999928,0.373779296875,-0.452423095703125,0.30975341796875,-0.748077392578125,0.30517578125,0.0,-0.06103515625,0.4449462890625,-0.8021240234375,0.3975830078125,-293.0,152.0,-150.0,101700.0,-3.118000030517578,0,0
2.401679399990826,0.373779296875,-0.452423095703125,0.30975341796875,-0.748077392578125,0.06103515625,-0.06103515625,0.0,0.4443359375,-0.8011474609375,0.3985595703125,-293.0,152.0,-150.0,101700.0,-3.118000030517578,0,0
2.4017324000014924,0.373779296875,-0.452423095703125,0.30975341796875,-0.748077392578125,0.18310546875,-0.3662109375,0.06103515625,0.4449462890625,-0.8031005859375,0.3997802734375,-293.0,152.0,-150.0,101700.0,-3.118000030517578,0,0
2.40178410000226,0.373779296875,-0.452423095703125,0.30975341796875,-0.748077392578125,0.0,0.1220703125,-0.1220703125,0.4434814453125,-0.8031005859375,0.398193359375,-293.0,152.0,-150.0,101700.0,-3.118000030517578,0,0
2.4622391000011703,0.373779296875,-0.452423095703125,0.30975341796875,-0.748046875,-0.06103515625,0.06103515625,0.0,0.4437255859375,-0.8038330078125,0.39697265625,-293.0,152.0,-150.0,101700.0,-3.118000030517578,0,0
2.4623081000027014,0.373779296875,-0.452423095703125,0.30975341796875,-0.748046875,0.1220703125,-0.1220703125,-0.1220703125,0.447021484375,-0.8016357421875,0.399658203125,-293.0,152.0,-150.0,101700.0,-3.118000030517578,0,0
2.4623642999940785,0.373779296875,-0.452423095703125,0.30975341796875,-0.748046875,0.1220703125,-0.1220703125,-0.1220703125,0.447021484375,-0.8016357421875,0.399658203125,-293.0,152.0,-150.0,101700.0,-3.118000030517578,0,0
2.462420199997723,0.373779296875,-0.452423095703125,0.30975341796875,-0.748077392578125,0.06103515625,-0.18310546875,-0.06103515625,0.4434814453125,-0.7998046875,0.3984375,-293.0,152.0,-150.0,101700.0,-3.118000030517578,0,0
2.4624760000006063,0.373779296875,-0.452423095703125,0.30975341796875,-0.748077392578125,0.06103515625,-0.244140625,-0.06103515625,0.4449462890625,-0.8018798828125,0.3985595703125,-293.0,152.0,-150.0,101700.0,-3.118000030517578,0,0
2.4625296000012895,0.373779296875,-0.452423095703125,0.30975341796875,-0.748077392578125,0.06103515625,-0.18310546875,-0.06103515625,0.4449462890625,-0.8011474609375,0.3995361328125,-293.0,152.0,-150.0,101700.0,-3.118000030517578,0,0
2.4625832000019727,0.373779296875,-0.452423095703125,0.30975341796875,-0.748077392578125,-0.06103515625,-0.06103515625,0.0,0.445068359375,-0.802001953125,0.3984375,-293.0,152.0,-150.0,101700.0,-3.118000030517578,0,0
2.4645796999975573,0.373779296875,-0.452423095703125,0.30975341796875,-0.748077392578125,-0.06103515625,0.0,-0.06103515625,0.4462890625,-0.802001953125,0.3978271484375,-293.0,152.0,-150.0,101700.0,-3.118000030517578,0,0
2.4646400999918114,0.373779296875,-0.452423095703125,0.30975341796875,-0.748077392578125,-0.06103515625,0.0,-0.06103515625,0.4462890625,-0.802001953125,0.3978271484375,-292.0,152.0,-150.0,101700.0,-3.117000102996826,0,0
2.464695100003155,0.373779296875,-0.452423095703125,0.30975341796875,-0.748077392578125,-0.18310546875,0.1220703125,-0.1220703125,0.447265625,-0.802490234375,0.39990234375,-292.0,152.0,-150.0,101700.0,-3.117000102996826,0,0
2.464748400001554,0.373565673828125,-0.45233154296875,0.30987548828125,-0.7481689453125,0.30517578125,-0.06103515625,-0.18310546875,0.447021484375,-0.801025390625,0.3978271484375,-292.0,152.0,-150.0,101700.0,-3.117000102996826,0,0
2.4648035999998683,0.373565673828125,-0.45233154296875,0.30987548828125,-0.7481689453125,0.30517578125,-0.06103515625,-0.18310546875,0.447021484375,-0.801025390625,0.3978271484375,-292.0,152.0,-150.0,101700.0,-3.117000102996826,0,0
2.4648577999905683,0.373565673828125,-0.45233154296875,0.30987548828125,-0.7481689453125,0.1220703125,-0.3662109375,0.06103515625,0.4478759765625,-0.802490234375,0.3975830078125,-292.0,152.0,-150.0,101700.0,-3.117000102996826,0,0
2.526010799992946,0.373565673828125,-0.45233154296875,0.30987548828125,-0.7481689453125,-0.1220703125,0.0,-0.18310546875,0.4451904296875,-0.8017578125,0.3973388671875,-292.0,152.0,-150.0,101700.0,-3.117000102996826,0,0
2.526075200003106,0.373565673828125,-0.45233154296875,0.30987548828125,-0.7481689453125,-0.06103515625,-0.06103515625,-0.18310546875,0.4464111328125,-0.8017578125,0.3974609375,-292.0,152.0,-150.0,101700.0,-3.117000102996826,0,0
2.52613489999203,0.373565673828125,-0.45233154296875,0.30987548828125,-0.7481689453125,-0.06103515625,-0.30517578125,-0.30517578125,0.4456787109375,-0.8017578125,0.3983154296875,-292.0,152.0,-150.0,101700.0,-3.117000102996826,0,0
2.5261889999965206,0.373565673828125,-0.45233154296875,0.30987548828125,-0.7481689453125,0.30517578125,0.1220703125,0.06103515625,0.44580078125,-0.802001953125,0.398681640625,-292.0,152.0,-150.0,101700.0,-3.117000102996826,0,0
2.5262447999994038,0.373565673828125,-0.452362060546875,0.30987548828125,-0.7481689453125,0.0,0.1220703125,0.1220703125,0.4454345703125,-0.8043212890625,0.39697265625,-292.0,152.0,-150.0,101700.0,-3.117000102996826,0,0
2.5263102000026265,0.373565673828125,-0.452362060546875,0.309906005859375,-0.748138427734375,-0.18310546875,-0.244140625,-0.06103515625,0.445068359375,-0.803466796875,0.396728515625,-292.0,152.0,-150.0,101700.0,-3.117000102996826,0,0
2.526363400000264,0.373565673828125,-0.452362060546875,0.309906005859375,-0.748138427734375,-0.18310546875,-0.244140625,-0.06103515625,0.445068359375,-0.803466796875,0.396728515625,-292.0,152.0,-150.0,101700.0,-3.117000102996826,0,0
2.526416099994094,0.373565673828125,-0.452362060546875,0.30987548828125,-0.7481689453125,-0.54931640625,-0.1220703125,-0.18310546875,0.4461669921875,-0.7994384765625,0.3994140625,-292.0,152.0,-150.0,101700.0,-3.117000102996826,0,0
2.52646919999097,0.373565673828125,-0.452362060546875,0.30987548828125,-0.7481689453125,0.18310546875,-0.244140625,0.06103515625,0.4449462890625,-0.800048828125,0.3988037109375,-292.0,152.0,-150.0,101700.0,-3.117000102996826,0,0
2.5265224000031594,0.373565673828125,-0.452362060546875,0.30987548828125,-0.7481689453125,0.0,0.18310546875,0.06103515625,0.446044921875,-0.80126953125,0.3978271484375,-292.0,152.0,-150.0,101700.0,-3.117000102996826,0,0
2.526575900003081,0.373565673828125,-0.452362060546875,0.30987548828125,-0.7481689453125,0.30517578125,-0.06103515625,-0.1220703125,0.447021484375,-0.801025390625,0.3978271484375,-292.0,152.0,-150.0,101700.0,-3.117000102996826,0,0
2.585885699998471,0.373565673828125,-0.452362060546875,0.309906005859375,-0.748138427734375,0.3662109375,-0.18310546875,0.18310546875,0.44677734375,-0.8026123046875,0.3980712890625,-292.0,152.0,-150.0,101700.0,-3.117000102996826,0,0
2.5859498999925563,0.373565673828125,-0.452362060546875,0.309906005859375,-0.748138427734375,0.06103515625,-0.244140625,0.1220703125,0.44384765625,-0.80126953125,0.3975830078125,-292.0,151.0,-150.0,101700.0,-3.117000102996826,0,0
2.586151499999687,0.373565673828125,-0.452362060546875,0.309906005859375,-0.748138427734375,0.06103515625,-0.244140625,0.1220703125,0.44384765625,-0.80126953125,0.3975830078125,-292.0,151.0,-150.0,101700.0,-3.117000102996826,0,0
2.586214099996141,0.37335205078125,-0.4522705078125,0.310028076171875,-0.748260498046875,-0.1220703125,0.06103515625,-0.06103515625,0.4442138671875,-0.8017578125,0.398681640625,-292.0,151.0,-150.0,101700.0,-3.117000102996826,0,0
2.586286799996742,0.37335205078125,-0.452301025390625,0.310028076171875,-0.748260498046875,-0.06103515625,-0.1220703125,-0.18310546875,0.445556640625,-0.8037109375,0.3988037109375,-292.0,151.0,-150.0,101700.0,-3.117000102996826,0,0
2.5879943999898387,0.37335205078125,-0.452301025390625,0.310028076171875,-0.748260498046875,-0.06103515625,-0.30517578125,-0.244140625,0.4466552734375,-0.8011474609375,0.39794921875,-292.0,151.0,-150.0,101700.0,-3.117000102996826,0,0
2.5880534000025364,0.37335205078125,-0.452301025390625,0.310028076171875,-0.748260498046875,0.30517578125,-0.1220703125,-0.1220703125,0.4466552734375,-0.8001708984375,0.3980712890625,-292.0,151.0,-150.0,101700.0,-3.117000102996826,0,0
2.5881075999932364,0.37335205078125,-0.452301025390625,0.310028076171875,-0.748260498046875,0.1220703125,-0.1220703125,-0.42724609375,0.4473876953125,-0.8009033203125,0.398193359375,-292.0,151.0,-150.0,101700.0,-3.117000102996826,0,0
2.5881633999961196,0.37335205078125,-0.452301025390625,0.310028076171875,-0.748260498046875,0.0,-0.18310546875,-0.1220703125,0.444580078125,-0.8017578125,0.3974609375,-292.0,151.0,-150.0,101700.0,-3.117000102996826,0,0
2.5882168999960413,0.37335205078125,-0.452301025390625,0.310028076171875,-0.748260498046875,0.06103515625,-0.06103515625,0.06103515625,0.4449462890625,-0.80126953125,0.3995361328125,-292.0,151.0,-150.0,101700.0,-3.117000102996826,0,0
2.588269899992156,0.37335205078125,-0.452301025390625,0.310028076171875,-0.748260498046875,0.06103515625,-0.244140625,-0.1220703125,0.4462890625,-0.80126953125,0.3975830078125,-292.0,151.0,-150.0,101700.0,-3.117000102996826,0,0
2.588324199998169,0.37335205078125,-0.452301025390625,0.310028076171875,-0.748260498046875,0.06103515625,-0.244140625,-0.1220703125,0.4462890625,-0.80126953125,0.3975830078125,-292.0,151.0,-150.0,101700.0,-3.117000102996826,0,0
2.653546399989864,0.37335205078125,-0.452301025390625,0.310028076171875,-0.748260498046875,0.06103515625,-0.06103515625,0.1220703125,0.4447021484375,-0.802001953125,0.398193359375,-292.0,151.0,-150.0,101700.0,-3.117000102996826,0,0
2.653610800000024,0.37335205078125,-0.452301025390625,0.310028076171875,-0.748260498046875,0.06103515625,-0.06103515625,-0.06103515625,0.4461669921875,-0.8016357421875,0.39892578125,-292.0,151.0,-150.0,101700.0,-3.117000102996826,0,0
2.6536716999980854,0.37335205078125,-0.452301025390625,0.310028076171875,-0.748260498046875,0.1220703125,-0.1220703125,0.0,0.4434814453125,-0.802001953125,0.3984375,-292.0,151.0,-150.0,101700.0,-3.117000102996826,0,0
2.653732199993101,0.37335205078125,-0.452301025390625,0.310028076171875,-0.74822998046875,-0.06103515625,-0.1220703125,0.06103515625,0.4461669921875,-0.8035888671875,0.3968505859375,-292.0,151.0,-150.0,101700.0,-3.117000102996826,0,0
2.653785999995307,0.37335205078125,-0.452301025390625,0.310028076171875,-0.74822998046875,0.0,-0.06103515625,0.0,0.445556640625,-0.802734375,0.39794921875,-292.0,151.0,-150.0,101700.0,-3.117000102996826,0,0
2.6538433999958215,0.37335205078125,-0.452301025390625,0.310028076171875,-0.74822998046875,-0.06103515625,-0.1220703125,-0.1220703125,0.4456787109375,-0.8026123046875,0.3983154296875,-292.0,151.0,-150.0,101700.0,-3.117000102996826,0,0
2.6539559999946505,0.37335205078125,-0.452301025390625,0.310028076171875,-0.74822998046875,0.1220703125,0.0,-0.06103515625,0.445556640625,-0.8016357421875,0.3984375,-292.0,151.0,-150.0,101700.0,-3.117000102996826,0,0
2.6540108999906806,0.37335205078125,-0.452301025390625,0.310028076171875,-0.74822998046875,0.18310546875,-0.06103515625,-0.1220703125,0.444580078125,-0.8035888671875,0.398681640625,-292.0,151.0,-150.0,101700.0,-3.117000102996826,0,0
2.654064999995171,0.373321533203125,-0.452301025390625,0.310028076171875,-0.74822998046875,0.0,0.06103515625,-0.06103515625,0.447021484375,-0.8013916015625,0.3992919921875,-292.0,151.0,-150.0,101700.0,-3.117000102996826,0,0
2.65411979999044,0.373321533203125,-0.452301025390625,0.310028076171875,-0.74822998046875,0.0,0.06103515625,-0.06103515625,0.447021484375,-0.8013916015625,0.3992919921875,-292.0,151.0,-150.0,101700.0,-3.117000102996826,0,0
2.6541732999903616,0.37335205078125,-0.452301025390625,0.310028076171875,-0.74822998046875,-0.1220703125,-0.06103515625,0.0,0.4454345703125,-0.8033447265625,0.39892578125,-292.0,150.0,-150.0,101699.0,-3.116000175476074,0,0
2.6542278999986593,0.373321533203125,-0.452301025390625,0.310028076171875,-0.74822998046875,0.06103515625,-0.06103515625,0.06103515625,0.4461669921875,-0.802001953125,0.399169921875,-292.0,150.0,-150.0,101699.0,-3.116000175476074,0,0
2.7168013999908,0.373321533203125,-0.452301025390625,0.310028076171875,-0.74822998046875,-0.244140625,0.1220703125,-0.06103515625,0.4451904296875,-0.8013916015625,0.398193359375,-292.0,150.0,-150.0,101699.0,-3.116000175476074,0,0
2.71686509999563,0.37335205078125,-0.452301025390625,0.310028076171875,-0.74822998046875,0.1220703125,-0.1220703125,-0.244140625,0.4459228515625,-0.8031005859375,0.3980712890625,-292.0,150.0,-150.0,101699.0,-3.116000175476074,0,0
2.716920899998513,0.37335205078125,-0.452301025390625,0.310028076171875,-0.74822998046875,0.0,0.06103515625,0.06103515625,0.4442138671875,-0.80419921875,0.399658203125,-292.0,150.0,-150.0,101699.0,-3.116000175476074,0,0
2.716976600000635,0.37335205078125,-0.452301025390625,0.310028076171875,-0.74822998046875,0.1220703125,-0.06103515625,0.1220703125,0.4459228515625,-0.8011474609375,0.3975830078125,-292.0,150.0,-150.0,101699.0,-3.116000175476074,0,0
2.7170323000027565,0.37335205078125,-0.452301025390625,0.310028076171875,-0.74822998046875,0.1220703125,-0.06103515625,0.1220703125,0.4459228515625,-0.8011474609375,0.3975830078125,-292.0,150.0,-150.0,101699.0,-3.116000175476074,0,0
2.7176314999960596,0.37335205078125,-0.452301025390625,0.310028076171875,-0.74822998046875,0.30517578125,-0.06103515625,0.244140625,0.447021484375,-0.8033447265625,0.3978271484375,-292.0,150.0,-150.0,101699.0,-3.116000175476074,0,0
2.7176957999909064,0.37335205078125,-0.452301025390625,0.310028076171875,-0.74822998046875,-0.06103515625,-0.1220703125,-0.06103515625,0.4432373046875,-0.80322265625,0.39892578125,-292.0,150.0,-150.0,101699.0,-3.116000175476074,0,0
2.7177493999915896,0.37335205078125,-0.452301025390625,0.310028076171875,-0.74822998046875,-0.1220703125,0.06103515625,0.18310546875,0.446044921875,-0.8013916015625,0.4000244140625,-292.0,150.0,-150.0,101699.0,-3.116000175476074,0,0
2.7178044999891426,0.37335205078125,-0.452301025390625,0.310028076171875,-0.74822998046875,0.18310546875,-0.1220703125,-0.244140625,0.4453125,-0.7998046875,0.3988037109375,-292.0,150.0,-150.0,101699.0,-3.116000175476074,0,0
2.717859500000486,0.37335205078125,-0.452301025390625,0.310028076171875,-0.74822998046875,0.244140625,-0.1220703125,-0.1220703125,0.4443359375,-0.8028564453125,0.3984375,-292.0,150.0,-150.0,101699.0,-3.116000175476074,0,0
2.717915000001085,0.37335205078125,-0.452301025390625,0.310028076171875,-0.74822998046875,-0.06103515625,-0.06103515625,-0.1220703125,0.4453125,-0.802734375,0.3984375,-292.0,150.0,-150.0,101699.0,-3.116000175476074,0,0
2.7179864999925485,0.37335205078125,-0.452301025390625,0.310028076171875,-0.74822998046875,0.244140625,0.0,-0.1220703125,0.4464111328125,-0.8026123046875,0.3984375,-292.0,150.0,-150.0,101699.0,-3.116000175476074,0,0
2.7816554000019096,0.37335205078125,-0.452301025390625,0.310028076171875,-0.74822998046875,0.1220703125,0.0,0.0,0.4447021484375,-0.8023681640625,0.39892578125,-292.0,150.0,-150.0,101699.0,-3.116000175476074,0,0
2.781721199993626,0.37335205078125,-0.452301025390625,0.310028076171875,-0.74822998046875,-0.06103515625,-0.1220703125,-0.18310546875,0.4488525390625,-0.8018798828125,0.3992919921875,-292.0,150.0,-150.0,101700.0,-3.117000102996826,0,0
2.7817769999965094,0.37335205078125,-0.452301025390625,0.310028076171875,-0.74822998046875,0.1220703125,0.06103515625,0.06103515625,0.4466552734375,-0.80224609375,0.3984375,-292.0,151.0,-149.0,101700.0,-3.117000102996826,0,0
2.781831400003284,0.37322998046875,-0.4522705078125,0.310089111328125,-0.748291015625,-0.1220703125,-0.06103515625,-0.244140625,0.4488525390625,-0.8023681640625,0.4014892578125,-292.0,151.0,-149.0,101700.0,-3.117000102996826,0,0
2.7819052999984706,0.37322998046875,-0.4522705078125,0.310089111328125,-0.748291015625,0.0,-0.244140625,-0.18310546875,0.4461669921875,-0.8009033203125,0.40185546875,-292.0,151.0,-149.0,101700.0,-3.117000102996826,0,0
2.781961400003638,0.37322998046875,-0.4522705078125,0.31005859375,-0.748291015625,0.1220703125,-0.06103515625,-0.18310546875,0.44580078125,-0.802734375,0.3980712890625,-292.0,151.0,-149.0,101700.0,-3.117000102996826,0,0
2.78201490000356,0.37322998046875,-0.4522705078125,0.31005859375,-0.748291015625,-0.06103515625,-0.1220703125,0.0,0.447265625,-0.802001953125,0.3973388671875,-292.0,151.0,-149.0,101700.0,-3.117000102996826,0,0
2.782067399995867,0.37322998046875,-0.4522705078125,0.31005859375,-0.748291015625,-0.244140625,-0.18310546875,-0.06103515625,0.44482421875,-0.7998046875,0.3995361328125,-292.0,151.0,-149.0,101700.0,-3.117000102996826,0,0
2.782119800001965,0.37322998046875,-0.4522705078125,0.31005859375,-0.748291015625,0.244140625,-0.06103515625,0.244140625,0.44482421875,-0.80078125,0.3978271484375,-292.0,151.0,-149.0,101700.0,-3.117000102996826,0,0
2.7821736999903806,0.37322998046875,-0.4522705078125,0.31005859375,-0.748291015625,0.244140625,-0.06103515625,0.244140625,0.44482421875,-0.80078125,0.3978271484375,-292.0,151.0,-149.0,101700.0,-3.117000102996826,0,0
2.7822278999956325,0.37322998046875,-0.4522705078125,0.31005859375,-0.748291015625,0.3662109375,-0.06103515625,0.18310546875,0.445556640625,-0.8017578125,0.4005126953125,-292.0,151.0,-149.0,101700.0,-3.117000102996826,0,0
2.8467856999923242,0.37322998046875,-0.4522705078125,0.31005859375,-0.748291015625,-0.18310546875,0.06103515625,0.244140625,0.4456787109375,-0.801025390625,0.3990478515625,-292.0,151.0,-149.0,101700.0,-3.117000102996826,0,0
2.8468509999947855,0.37322998046875,-0.4522705078125,0.31005859375,-0.748321533203125,-0.1220703125,0.06103515625,0.1220703125,0.445068359375,-0.802978515625,0.4002685546875,-292.0,151.0,-149.0,101700.0,-3.117000102996826,0,0
2.84806249999383,0.37322998046875,-0.452239990234375,0.31005859375,-0.748321533203125,-0.18310546875,0.0,0.06103515625,0.4434814453125,-0.8037109375,0.3995361328125,-292.0,151.0,-149.0,101700.0,-3.117000102996826,0,0
2.8481455000001006,0.37322998046875,-0.452239990234375,0.31005859375,-0.748321533203125,0.06103515625,0.18310546875,-0.30517578125,0.445068359375,-0.8017578125,0.3995361328125,-292.0,151.0,-149.0,101700.0,-3.117000102996826,0,0
2.8482040999952005,0.37322998046875,-0.452239990234375,0.31005859375,-0.748321533203125,-0.06103515625,-0.18310546875,0.0,0.4447021484375,-0.801025390625,0.3995361328125,-292.0,151.0,-149.0,101700.0,-3.117000102996826,0,0
2.848367699989467,0.37322998046875,-0.452239990234375,0.31005859375,-0.748321533203125,0.06103515625,-0.30517578125,-0.1220703125,0.4459228515625,-0.800537109375,0.3995361328125,-292.0,151.0,-149.0,101700.0,-3.117000102996826,0,0
2.850191499994253,0.37322998046875,-0.452239990234375,0.31005859375,-0.748321533203125,0.06103515625,-0.06103515625,0.1220703125,0.44384765625,-0.801513671875,0.4000244140625,-292.0,151.0,-149.0,101700.0,-3.117000102996826,0,0
2.8540961999970023,0.37322998046875,-0.452239990234375,0.31005859375,-0.748321533203125,0.06103515625,-0.06103515625,0.1220703125,0.44384765625,-0.801513671875,0.4000244140625,-292.0,152.0,-148.0,101699.0,-3.116000175476074,0,0
2.910190099995816,0.37335205078125,-0.4522705078125,0.309967041015625,-0.748291015625,-0.18310546875,-0.18310546875,0.18310546875,0.445068359375,-0.8026123046875,0.4007568359375,-292.0,152.0,-148.0,101699.0,-3.116000175476074,0,0
2.9102566999936244,0.37335205078125,-0.4522705078125,0.309967041015625,-0.748291015625,0.18310546875,0.0,-0.06103515625,0.4462890625,-0.8004150390625,0.400634765625,-292.0,152.0,-148.0,101699.0,-3.116000175476074,0,0
2.9103153999894857,0.37335205078125,-0.4522705078125,0.309967041015625,-0.748291015625,0.18310546875,-0.244140625,-0.1220703125,0.4439697265625,-0.8023681640625,0.399658203125,-292.0,152.0,-148.0,101699.0,-3.116000175476074,0,0
2.910373399994569,0.37335205078125,-0.4522705078125,0.309967041015625,-0.748291015625,0.18310546875,-0.244140625,-0.1220703125,0.4439697265625,-0.8023681640625,0.399658203125,-292.0,152.0,-148.0,101699.0,-3.116000175476074,0,0
2.910430899995845,0.37335205078125,-0.4522705078125,0.309967041015625,-0.748291015625,-0.18310546875,-0.1220703125,-0.06103515625,0.445556640625,-0.802734375,0.39990234375,-292.0,152.0,-148.0,101699.0,-3.116000175476074,0,0
2.9105187999957707,0.37335205078125,-0.4522705078125,0.309967041015625,-0.748291015625,0.1220703125,-0.18310546875,-0.18310546875,0.445556640625,-0.7989501953125,0.39794921875,-292.0,152.0,-148.0,101699.0,-3.116000175476074,0,0
2.910575699992478,0.37335205078125,-0.4522705078125,0.309967041015625,-0.748291015625,0.30517578125,-0.1220703125,-0.1220703125,0.44580078125,-0.801025390625,0.398193359375,-292.0,152.0,-148.0,101699.0,-3.116000175476074,0,0
2.9106306999892695,0.37335205078125,-0.4522705078125,0.309967041015625,-0.748291015625,0.0,-0.244140625,-0.18310546875,0.4476318359375,-0.8023681640625,0.3975830078125,-292.0,152.0,-148.0,101699.0,-3.116000175476074,0,0
2.910687199997483,0.37335205078125,-0.4522705078125,0.309967041015625,-0.748291015625,-0.1220703125,-0.06103515625,-0.18310546875,0.446044921875,-0.8011474609375,0.39892578125,-292.0,152.0,-148.0,101699.0,-3.116000175476074,0,0
2.9107424999965588,0.37335205078125,-0.4522705078125,0.309967041015625,-0.748291015625,0.18310546875,-0.1220703125,0.06103515625,0.4459228515625,-0.802001953125,0.4010009765625,-292.0,152.0,-148.0,101699.0,-3.116000175476074,0,0
2.9107979999971576,0.37335205078125,-0.4522705078125,0.309967041015625,-0.748291015625,-0.18310546875,-0.244140625,-0.1220703125,0.4473876953125,-0.80224609375,0.398681640625,-292.0,152.0,-148.0,101699.0,-3.116000175476074,0,0
2.9108532999962335,0.37335205078125,-0.4522705078125,0.309967041015625,-0.748291015625,0.0,0.06103515625,-0.06103515625,0.446533203125,-0.8016357421875,0.401611328125,-292.0,152.0,-148.0,101699.0,-3.116000175476074,0,0
2.9676531000004616,0.37335205078125,-0.4522705078125,0.309967041015625,-0.748291015625,0.244140625,-0.30517578125,-0.1220703125,0.446044921875,-0.80322265625,0.399658203125,-292.0,152.0,-148.0,101699.0,-3.116000175476074,0,0
2.967715799997677,0.37335205078125,-0.4522705078125,0.309967041015625,-0.748291015625,0.06103515625,0.18310546875,-0.06103515625,0.4461669921875,-0.803466796875,0.3992919921875,-292.0,152.0,-148.0,101699.0,-3.116000175476074,0,0
2.967772899995907,0.37335205078125,-0.452239990234375,0.309967041015625,-0.748291015625,0.18310546875,0.1220703125,-0.1220703125,0.4425048828125,-0.80078125,0.400146484375,-292.0,152.0,-148.0,101699.0,-3.116000175476074,0,0
2.967828399996506,0.37335205078125,-0.452239990234375,0.309967041015625,-0.748291015625,0.30517578125,-0.18310546875,-0.3662109375,0.4462890625,-0.7998046875,0.398681640625,-292.0,152.0,-148.0,101699.0,-3.116000175476074,0,0
2.9678848999901675,0.37335205078125,-0.452239990234375,0.309967041015625,-0.748291015625,0.06103515625,-0.3662109375,-0.18310546875,0.4442138671875,-0.801513671875,0.3994140625,-292.0,153.0,-148.0,101699.0,-3.116000175476074,0,0
2.9684390999900643,0.373565673828125,-0.45233154296875,0.309844970703125,-0.748199462890625,0.1220703125,-0.244140625,-0.244140625,0.44482421875,-0.8011474609375,0.3992919921875,-292.0,153.0,-148.0,101699.0,-3.116000175476074,0,0
2.968496799992863,0.373565673828125,-0.45233154296875,0.309844970703125,-0.748199462890625,0.06103515625,-0.3662109375,-0.3662109375,0.4453125,-0.8021240234375,0.4012451171875,-292.0,153.0,-148.0,101699.0,-3.116000175476074,0,0
2.968551400001161,0.373565673828125,-0.45233154296875,0.309844970703125,-0.748199462890625,0.18310546875,-0.06103515625,-0.06103515625,0.44482421875,-0.8023681640625,0.40087890625,-292.0,153.0,-148.0,101699.0,-3.116000175476074,0,0
2.9686069000017596,0.373565673828125,-0.45233154296875,0.309844970703125,-0.748199462890625,0.18310546875,-0.06103515625,-0.06103515625,0.44482421875,-0.8023681640625,0.40087890625,-292.0,153.0,-148.0,101699.0,-3.116000175476074,0,0
2.968660699989414,0.373565673828125,-0.452301025390625,0.309844970703125,-0.748199462890625,0.06103515625,-0.06103515625,0.0,0.4456787109375,-0.8017578125,0.399658203125,-292.0,153.0,-148.0,101699.0,-3.116000175476074,0,0
2.9687145999923814,0.373565673828125,-0.45233154296875,0.309844970703125,-0.748199462890625,0.244140625,0.244140625,-0.06103515625,0.4464111328125,-0.8028564453125,0.3975830078125,-292.0,153.0,-148.0,101699.0,-3.116000175476074,0,0
