Time stamp(sec),adc1,adc2,roll_angular_rate,pitch_angular_rate,yaw_angular_rate,acc_X,acc_Y,acc_Z,mag_X,mag_Y,mag_Z,pressure,altitude
0.031096799997612834,0.369232177734375,-0.45068359375,0.312347412109375,-0.75030517578125,0.244140625,0.1220703125,0.0,0.446533203125,-0.79931640625,0.4000244140625,-294.0,150.0,-152.0,101701.0,-3.13100004196167,0,0
0.031176100004813634,0.369232177734375,-0.45068359375,0.312347412109375,-0.75030517578125,-0.18310546875,0.06103515625,0.06103515625,0.447509765625,-0.8011474609375,0.4000244140625,-294.0,150.0,-152.0,101701.0,-3.13100004196167,0,0
0.03123379999306053,0.369232177734375,-0.45068359375,0.312347412109375,-0.75030517578125,0.06103515625,0.0,-0.18310546875,0.4461669921875,-0.8028564453125,0.3988037109375,-294.0,150.0,-152.0,101701.0,-3.13100004196167,0,0
0.03128850000211969,0.369232177734375,-0.45068359375,0.312347412109375,-0.75030517578125,0.1220703125,-0.06103515625,0.0,0.445556640625,-0.80224609375,0.400146484375,-294.0,150.0,-152.0,101701.0,-3.13100004196167,0,0
0.031358199994429015,0.369232177734375,-0.45068359375,0.312347412109375,-0.75030517578125,0.0,-0.06103515625,-0.1220703125,0.4466552734375,-0.802001953125,0.4002685546875,-294.0,150.0,-152.0,101701.0,-3.130000114440918,0,0
0.031415999997989275,0.369232177734375,-0.45068359375,0.312347412109375,-0.75030517578125,-0.06103515625,-0.3662109375,-0.1220703125,0.4447021484375,-0.8023681640625,0.3985595703125,-294.0,150.0,-152.0,101701.0,-3.130000114440918,0,0
0.03147499999613501,0.369232177734375,-0.45068359375,0.312347412109375,-0.75030517578125,-0.18310546875,-0.18310546875,-0.30517578125,0.445556640625,-0.7994384765625,0.3988037109375,-294.0,150.0,-152.0,101701.0,-3.130000114440918,0,0
0.031577300003846176,0.369232177734375,-0.450653076171875,0.312347412109375,-0.75030517578125,0.0,-0.1220703125,0.0,0.4468994140625,-0.801025390625,0.3997802734375,-294.0,150.0,-152.0,101701.0,-3.130000114440918,0,0
0.03165249999437947,0.369232177734375,-0.450653076171875,0.312347412109375,-0.75030517578125,0.1220703125,-0.1220703125,-0.42724609375,0.444091796875,-0.7999267578125,0.4005126953125,-294.0,150.0,-152.0,101701.0,-3.130000114440918,0,0
0.031708700000308454,0.369232177734375,-0.450653076171875,0.312347412109375,-0.75030517578125,0.1220703125,-0.1220703125,-0.42724609375,0.444091796875,-0.7999267578125,0.4005126953125,-294.0,150.0,-152.0,101701.0,-3.130000114440918,0,0
0.03176270000403747,0.369232177734375,-0.450653076171875,0.312347412109375,-0.75030517578125,0.0,-0.18310546875,-0.1220703125,0.4466552734375,-0.8021240234375,0.4007568359375,-294.0,150.0,-152.0,101701.0,-3.130000114440918,0,0
0.09861650000675581,0.369232177734375,-0.450653076171875,0.31231689453125,-0.75030517578125,0.06103515625,-0.1220703125,0.0,0.4466552734375,-0.8026123046875,0.3984375,-294.0,150.0,-152.0,101701.0,-3.130000114440918,0,0
0.09868060000007972,0.369232177734375,-0.450653076171875,0.312347412109375,-0.75030517578125,-0.06103515625,-0.1220703125,-0.18310546875,0.4437255859375,-0.79931640625,0.399169921875,-294.0,150.0,-152.0,101701.0,-3.130000114440918,0,0
0.09873690000677016,0.369232177734375,-0.450653076171875,0.31231689453125,-0.75030517578125,0.1220703125,0.1220703125,0.1220703125,0.445068359375,-0.8009033203125,0.397216796875,-294.0,150.0,-152.0,101701.0,-3.130000114440918,0,0
0.09879299999738578,0.369232177734375,-0.450653076171875,0.31231689453125,-0.75030517578125,0.0,0.18310546875,-0.244140625,0.4454345703125,-0.7991943359375,0.3992919921875,-293.0,151.0,-151.0,101701.0,-3.130000114440918,0,0
0.09884930000407621,0.369232177734375,-0.450653076171875,0.31231689453125,-0.75030517578125,-0.06103515625,0.06103515625,-0.244140625,0.4447021484375,-0.802001953125,0.39794921875,-293.0,151.0,-151.0,101701.0,-3.130000114440918,0,0
0.09890850000374485,0.369110107421875,-0.45062255859375,0.3123779296875,-0.7503662109375,0.18310546875,0.1220703125,-0.06103515625,0.4476318359375,-0.8001708984375,0.400390625,-293.0,151.0,-151.0,101701.0,-3.130000114440918,0,0
0.10249350000231061,0.369110107421875,-0.45062255859375,0.3123779296875,-0.7503662109375,0.244140625,-0.06103515625,0.244140625,0.446533203125,-0.802490234375,0.4002685546875,-293.0,151.0,-151.0,101701.0,-3.130000114440918,0,0
0.10254750000603963,0.369140625,-0.450592041015625,0.3123779296875,-0.7503662109375,0.0,0.1220703125,0.18310546875,0.445556640625,-0.8031005859375,0.399658203125,-293.0,151.0,-151.0,101701.0,-3.130000114440918,0,0
0.10260050000215415,0.369140625,-0.450592041015625,0.3123779296875,-0.7503662109375,0.0,0.1220703125,0.18310546875,0.445556640625,-0.8031005859375,0.399658203125,-293.0,151.0,-151.0,101701.0,-3.130000114440918,0,0
0.10265369999979157,0.369140625,-0.450592041015625,0.3123779296875,-0.7503662109375,0.06103515625,0.06103515625,0.06103515625,0.4454345703125,-0.8023681640625,0.4000244140625,-293.0,151.0,-151.0,101701.0,-3.130000114440918,0,0
0.10270459999446757,0.369140625,-0.450592041015625,0.3123779296875,-0.7503662109375,0.06103515625,0.18310546875,0.0,0.445556640625,-0.802734375,0.4002685546875,-293.0,151.0,-151.0,101701.0,-3.130000114440918,0,0
0.10275639999599662,0.369140625,-0.450592041015625,0.3123779296875,-0.7503662109375,-0.244140625,0.06103515625,-0.18310546875,0.4456787109375,-0.8018798828125,0.3988037109375,-293.0,151.0,-151.0,101701.0,-3.130000114440918,0,0
0.10281110000505578,0.369140625,-0.450592041015625,0.3123779296875,-0.7503662109375,0.06103515625,-0.1220703125,-0.244140625,0.4443359375,-0.8006591796875,0.3992919921875,-293.0,151.0,-151.0,101701.0,-3.130000114440918,0,0
0.1621309000038309,0.369140625,-0.450592041015625,0.3123779296875,-0.7503662109375,0.67138671875,-0.42724609375,-0.244140625,0.446044921875,-0.802734375,0.399169921875,-293.0,151.0,-151.0,101701.0,-3.130000114440918,0,0
0.16219030000502244,0.369140625,-0.450592041015625,0.3123779296875,-0.7503662109375,-0.1220703125,-0.244140625,0.0,0.4471435546875,-0.799072265625,0.3990478515625,-293.0,151.0,-151.0,101701.0,-3.130000114440918,0,0
0.16224210000655148,0.369140625,-0.450592041015625,0.3123779296875,-0.7503662109375,0.06103515625,-0.18310546875,-0.06103515625,0.4456787109375,-0.80126953125,0.399169921875,-293.0,151.0,-151.0,101701.0,-3.130000114440918,0,0
0.1622944999980973,0.369140625,-0.450592041015625,0.3123779296875,-0.7503662109375,0.06103515625,-0.18310546875,-0.06103515625,0.4456787109375,-0.80126953125,0.399169921875,-293.0,151.0,-151.0,101701.0,-3.130000114440918,0,0
0.16253000000142492,0.369140625,-0.450592041015625,0.3123779296875,-0.7503662109375,0.1220703125,0.1220703125,0.0,0.446533203125,-0.7989501953125,0.3992919921875,-293.0,151.0,-151.0,101701.0,-3.130000114440918,0,0
0.16266020000330172,0.369140625,-0.450592041015625,0.3123779296875,-0.750396728515625,0.0,-0.1220703125,-0.06103515625,0.44677734375,-0.7996826171875,0.3985595703125,-293.0,151.0,-151.0,101701.0,-3.130000114440918,0,0
0.16271809999307152,0.369140625,-0.450592041015625,0.3123779296875,-0.750396728515625,0.1220703125,0.0,-0.1220703125,0.4464111328125,-0.8016357421875,0.39794921875,-293.0,151.0,-151.0,101701.0,-3.130000114440918,0,0
0.16277199999603909,0.369140625,-0.450592041015625,0.3123779296875,-0.7503662109375,0.0,0.0,0.06103515625,0.4449462890625,-0.8013916015625,0.397216796875,-293.0,151.0,-151.0,101701.0,-3.130000114440918,0,0
0.1628255999967223,0.369140625,-0.450592041015625,0.3123779296875,-0.7503662109375,0.0,0.0,0.06103515625,0.4449462890625,-0.8013916015625,0.397216796875,-293.0,151.0,-151.0,101701.0,-3.130000114440918,0,0
0.1628781000035815,0.369140625,-0.450592041015625,0.3123779296875,-0.7503662109375,0.18310546875,0.0,0.06103515625,0.4464111328125,-0.80078125,0.3988037109375,-293.0,151.0,-151.0,101701.0,-3.130000114440918,0,0
0.162930000005872,0.369140625,-0.450592041015625,0.3123779296875,-0.7503662109375,0.18310546875,0.0,0.06103515625,0.4464111328125,-0.80078125,0.3988037109375,-292.0,152.0,-151.0,101701.0,-3.130000114440918,0,0
0.16298429999733344,0.3690185546875,-0.4505615234375,0.31243896484375,-0.75042724609375,-0.06103515625,-0.06103515625,0.1220703125,0.4447021484375,-0.8023681640625,0.39794921875,-292.0,152.0,-151.0,101701.0,-3.130000114440918,0,0
0.22371780000685249,0.369049072265625,-0.4505615234375,0.31243896484375,-0.75042724609375,0.06103515625,-0.30517578125,-0.18310546875,0.445556640625,-0.8031005859375,0.3988037109375,-292.0,152.0,-151.0,101701.0,-3.130000114440918,0,0
0.2237779999995837,0.3690185546875,-0.4505615234375,0.31243896484375,-0.75042724609375,0.06103515625,-0.06103515625,-0.1220703125,0.4464111328125,-0.8026123046875,0.3985595703125,-292.0,152.0,-151.0,101701.0,-3.130000114440918,0,0
0.22383139999874402,0.369049072265625,-0.4505615234375,0.31243896484375,-0.75042724609375,-0.30517578125,0.06103515625,-0.06103515625,0.44580078125,-0.8021240234375,0.399169921875,-292.0,152.0,-151.0,101701.0,-3.130000114440918,0,0
0.2238835000025574,0.369049072265625,-0.4505615234375,0.31243896484375,-0.75042724609375,-0.18310546875,0.0,-0.30517578125,0.4453125,-0.801513671875,0.3994140625,-292.0,152.0,-151.0,101701.0,-3.130000114440918,0,0
0.22393720000400208,0.3690185546875,-0.4505615234375,0.31243896484375,-0.75042724609375,0.06103515625,-0.18310546875,0.0,0.4466552734375,-0.8011474609375,0.3975830078125,-292.0,152.0,-151.0,101701.0,-3.130000114440918,0,0
0.22404960000130814,0.3690185546875,-0.4505615234375,0.31243896484375,-0.75042724609375,0.48828125,0.0,-0.244140625,0.4453125,-0.800537109375,0.3973388671875,-292.0,152.0,-151.0,101701.0,-3.130000114440918,0,0
0.22410510000190698,0.3690185546875,-0.4505615234375,0.31243896484375,-0.75042724609375,0.48828125,0.0,-0.244140625,0.4453125,-0.800537109375,0.3973388671875,-292.0,152.0,-151.0,101701.0,-3.130000114440918,0,0
0.22415759999421425,0.3690185546875,-0.4505615234375,0.31243896484375,-0.75042724609375,0.18310546875,0.06103515625,-0.06103515625,0.446044921875,-0.799560546875,0.397216796875,-292.0,152.0,-151.0,101701.0,-3.130000114440918,0,0
0.22421299999405164,0.3690185546875,-0.4505615234375,0.31243896484375,-0.75042724609375,0.18310546875,0.06103515625,-0.06103515625,0.446044921875,-0.799560546875,0.397216796875,-292.0,152.0,-151.0,101701.0,-3.130000114440918,0,0
0.22429499999270774,0.369049072265625,-0.4505615234375,0.31243896484375,-0.75042724609375,-0.06103515625,0.0,0.06103515625,0.445068359375,-0.7998046875,0.39892578125,-292.0,152.0,-151.0,101701.0,-3.130000114440918,0,0
0.22434820000489708,0.369049072265625,-0.4505615234375,0.31243896484375,-0.75042724609375,-0.1220703125,-0.18310546875,0.06103515625,0.4464111328125,-0.8055419921875,0.3978271484375,-292.0,152.0,-151.0,101701.0,-3.130000114440918,0,0
0.2904578000016045,0.369049072265625,-0.4505615234375,0.312469482421875,-0.75042724609375,0.42724609375,0.06103515625,0.3662109375,0.4468994140625,-0.8052978515625,0.4017333984375,-292.0,152.0,-151.0,101701.0,-3.130000114440918,0,0
0.29052260000025854,0.369049072265625,-0.4505615234375,0.312469482421875,-0.75042724609375,-0.18310546875,0.06103515625,0.244140625,0.446533203125,-0.8043212890625,0.3990478515625,-292.0,152.0,-151.0,101701.0,-3.130000114440918,0,0
0.2907255000027362,0.369049072265625,-0.450531005859375,0.312469482421875,-0.750396728515625,0.06103515625,-0.18310546875,-0.06103515625,0.4422607421875,-0.80419921875,0.396728515625,-292.0,152.0,-151.0,101701.0,-3.130000114440918,0,0
0.2907861999992747,0.369049072265625,-0.450531005859375,0.312469482421875,-0.750396728515625,-0.06103515625,-0.18310546875,-0.30517578125,0.4393310546875,-0.8001708984375,0.39697265625,-292.0,152.0,-151.0,101701.0,-3.130000114440918,0,0
0.2908432999975048,0.369049072265625,-0.450531005859375,0.312469482421875,-0.750396728515625,-0.244140625,-0.3662109375,-0.3662109375,0.44482421875,-0.7982177734375,0.3975830078125,-292.0,152.0,-151.0,101701.0,-3.130000114440918,0,0
0.2932381999999052,0.369049072265625,-0.450531005859375,0.312469482421875,-0.750396728515625,0.244140625,-0.244140625,-0.67138671875,0.4437255859375,-0.797119140625,0.396240234375,-292.0,153.0,-151.0,101701.0,-3.130000114440918,0,0
0.29354119999334216,0.369049072265625,-0.450531005859375,0.312469482421875,-0.750396728515625,0.1220703125,-0.1220703125,-0.54931640625,0.4437255859375,-0.7957763671875,0.39501953125,-292.0,153.0,-151.0,101701.0,-3.130000114440918,0,0
0.29360030000680126,0.369049072265625,-0.450531005859375,0.312469482421875,-0.750396728515625,0.1220703125,-0.1220703125,-0.54931640625,0.4437255859375,-0.7957763671875,0.39501953125,-292.0,153.0,-151.0,101701.0,-3.130000114440918,0,0
0.2936541999952169,0.368927001953125,-0.45050048828125,0.312530517578125,-0.750457763671875,0.0,-0.06103515625,-0.06103515625,0.445068359375,-0.7989501953125,0.39794921875,-292.0,153.0,-151.0,101701.0,-3.130000114440918,0,0
0.2963757999968948,0.368927001953125,-0.450531005859375,0.3125,-0.750457763671875,-0.244140625,-0.1220703125,0.244140625,0.4471435546875,-0.800048828125,0.3978271484375,-292.0,153.0,-151.0,101701.0,-3.130000114440918,0,0
0.29645870000240393,0.368927001953125,-0.450531005859375,0.3125,-0.750457763671875,0.18310546875,0.244140625,0.3662109375,0.447265625,-0.801025390625,0.39892578125,-292.0,153.0,-151.0,101701.0,-3.130000114440918,0,0
0.29651850000664126,0.368927001953125,-0.45050048828125,0.3125,-0.750457763671875,-0.06103515625,0.18310546875,0.30517578125,0.4454345703125,-0.80322265625,0.40087890625,-292.0,153.0,-151.0,101701.0,-3.130000114440918,0,0
0.2965734000026714,0.368927001953125,-0.45050048828125,0.3125,-0.75048828125,0.0,0.1220703125,0.6103515625,0.4443359375,-0.801513671875,0.4012451171875,-292.0,153.0,-151.0,101701.0,-3.130000114440918,0,0
0.3558571000030497,0.368927001953125,-0.45050048828125,0.3125,-0.75048828125,0.06103515625,0.0,0.18310546875,0.44580078125,-0.806396484375,0.3990478515625,-292.0,153.0,-151.0,101701.0,-3.130000114440918,0,0
0.3559199000010267,0.368927001953125,-0.45050048828125,0.3125,-0.75048828125,0.06103515625,0.0,0.18310546875,0.44580078125,-0.806396484375,0.3990478515625,-292.0,153.0,-151.0,101701.0,-3.130000114440918,0,0
0.35597540000162553,0.368927001953125,-0.45050048828125,0.312530517578125,-0.750457763671875,0.18310546875,0.0,-0.30517578125,0.4454345703125,-0.8033447265625,0.3983154296875,-292.0,153.0,-151.0,101701.0,-3.130000114440918,0,0
0.3560308000014629,0.368927001953125,-0.45050048828125,0.312530517578125,-0.750457763671875,0.1220703125,-0.244140625,-0.79345703125,0.4432373046875,-0.8021240234375,0.3968505859375,-292.0,153.0,-151.0,101701.0,-3.130000114440918,0,0
0.3560871999943629,0.368927001953125,-0.45050048828125,0.312530517578125,-0.750457763671875,0.244140625,-0.48828125,-0.732421875,0.4443359375,-0.800048828125,0.396240234375,-292.0,153.0,-151.0,101701.0,-3.130000114440918,0,0
0.3561596999934409,0.368927001953125,-0.45050048828125,0.312530517578125,-0.750457763671875,0.244140625,-0.18310546875,-0.91552734375,0.4447021484375,-0.8009033203125,0.3955078125,-292.0,153.0,-151.0,101701.0,-3.130000114440918,0,0
0.3562136999971699,0.368927001953125,-0.45050048828125,0.312530517578125,-0.750457763671875,0.06103515625,-0.06103515625,-0.48828125,0.4427490234375,-0.796630859375,0.3968505859375,-292.0,153.0,-151.0,101701.0,-3.130000114440918,0,0
0.35626899999624584,0.368927001953125,-0.450531005859375,0.312530517578125,-0.750457763671875,0.244140625,0.06103515625,-0.1220703125,0.4537353515625,-0.8023681640625,0.399658203125,-292.0,153.0,-151.0,101701.0,-3.130000114440918,0,0
0.3563212000008207,0.368927001953125,-0.450531005859375,0.3125,-0.750457763671875,0.1220703125,0.1220703125,0.1220703125,0.4468994140625,-0.7965087890625,0.39794921875,-292.0,153.0,-151.0,101701.0,-3.130000114440918,0,0
0.3563748000015039,0.368927001953125,-0.450531005859375,0.3125,-0.750457763671875,-0.18310546875,-0.06103515625,0.1220703125,0.444091796875,-0.79638671875,0.3983154296875,-292.0,153.0,-151.0,101701.0,-3.130000114440918,0,0
0.3564279999991413,0.368896484375,-0.450531005859375,0.3125,-0.750457763671875,-0.06103515625,-0.06103515625,0.3662109375,0.44775390625,-0.798828125,0.3968505859375,-292.0,153.0,-151.0,101701.0,-3.130000114440918,0,0
0.42003520000434946,0.368804931640625,-0.45050048828125,0.31256103515625,-0.750518798828125,0.244140625,0.244140625,0.79345703125,0.4493408203125,-0.8056640625,0.4012451171875,-291.0,153.0,-152.0,101701.0,-3.130000114440918,0,0
0.4200958000001265,0.368804931640625,-0.45050048828125,0.31256103515625,-0.750518798828125,-0.06103515625,-0.1220703125,0.0,0.44482421875,-0.800537109375,0.3985595703125,-291.0,153.0,-152.0,101701.0,-3.130000114440918,0,0
0.4201500000053784,0.368804931640625,-0.45050048828125,0.31256103515625,-0.750518798828125,0.06103515625,0.0,-0.30517578125,0.442626953125,-0.80224609375,0.4010009765625,-291.0,153.0,-152.0,101701.0,-3.130000114440918,0,0
0.42020269999920856,0.368804931640625,-0.45050048828125,0.31256103515625,-0.750518798828125,-0.06103515625,-0.244140625,-0.244140625,0.444091796875,-0.80322265625,0.401611328125,-291.0,153.0,-152.0,101701.0,-3.130000114440918,0,0
0.42025520000606775,0.368804931640625,-0.45050048828125,0.31256103515625,-0.750518798828125,0.06103515625,-0.30517578125,-0.18310546875,0.4447021484375,-0.80419921875,0.3955078125,-291.0,153.0,-152.0,101701.0,-3.130000114440918,0,0
0.42042350000701845,0.368804931640625,-0.45050048828125,0.312591552734375,-0.750518798828125,0.3662109375,-0.18310546875,-0.1220703125,0.4442138671875,-0.7994384765625,0.39794921875,-291.0,153.0,-152.0,101701.0,-3.130000114440918,0,0
0.42047899999306537,0.368804931640625,-0.45050048828125,0.31256103515625,-0.750518798828125,0.06103515625,-0.244140625,-0.42724609375,0.4461669921875,-0.8009033203125,0.40087890625,-291.0,153.0,-152.0,101701.0,-3.130000114440918,0,0
0.4205327999952715,0.368804931640625,-0.45050048828125,0.31256103515625,-0.750518798828125,0.06103515625,-0.244140625,-0.42724609375,0.4461669921875,-0.8009033203125,0.40087890625,-291.0,153.0,-152.0,101701.0,-3.130000114440918,0,0
0.42058649999671616,0.368804931640625,-0.45050048828125,0.31256103515625,-0.750518798828125,-0.18310546875,-0.06103515625,-0.244140625,0.4483642578125,-0.80126953125,0.4010009765625,-291.0,153.0,-152.0,101701.0,-3.130000114440918,0,0
0.42063839999900665,0.368804931640625,-0.45050048828125,0.31256103515625,-0.750518798828125,-0.06103515625,-0.06103515625,0.06103515625,0.446044921875,-0.8018798828125,0.3995361328125,-291.0,153.0,-152.0,101701.0,-3.130000114440918,0,0
0.42069159999664407,0.368804931640625,-0.45050048828125,0.31256103515625,-0.750518798828125,0.0,-0.1220703125,0.3662109375,0.4459228515625,-0.799560546875,0.398681640625,-291.0,153.0,-152.0,101701.0,-3.130000114440918,0,0
0.480170700000599,0.368804931640625,-0.450469970703125,0.31256103515625,-0.750518798828125,-0.1220703125,-0.06103515625,0.1220703125,0.44482421875,-0.8011474609375,0.4002685546875,-291.0,153.0,-152.0,101701.0,-3.130000114440918,0,0
0.48023770000145305,0.368804931640625,-0.450469970703125,0.31256103515625,-0.750518798828125,-0.06103515625,-0.06103515625,0.1220703125,0.44384765625,-0.8026123046875,0.3974609375,-291.0,153.0,-152.0,101701.0,-3.130000114440918,0,0
0.4802973000041675,0.368804931640625,-0.45050048828125,0.31256103515625,-0.750518798828125,-0.06103515625,0.0,-0.06103515625,0.4468994140625,-0.8043212890625,0.399658203125,-291.0,153.0,-152.0,101701.0,-3.130000114440918,0,0
0.4803561000007903,0.368804931640625,-0.45050048828125,0.31256103515625,-0.750518798828125,0.1220703125,-0.06103515625,0.1220703125,0.4481201171875,-0.803955078125,0.399169921875,-291.0,153.0,-152.0,101701.0,-3.130000114440918,0,0
0.4804135000013048,0.368804931640625,-0.45050048828125,0.31256103515625,-0.750518798828125,0.06103515625,-0.1220703125,-0.18310546875,0.4443359375,-0.8028564453125,0.398193359375,-291.0,153.0,-152.0,101701.0,-3.130000114440918,0,0
0.4804697999934433,0.368804931640625,-0.45050048828125,0.31256103515625,-0.750518798828125,-0.30517578125,-0.30517578125,-0.18310546875,0.4453125,-0.8017578125,0.3978271484375,-291.0,153.0,-152.0,101701.0,-3.130000114440918,0,0
0.4805447999970056,0.368804931640625,-0.45050048828125,0.31256103515625,-0.750518798828125,-0.30517578125,-0.30517578125,-0.18310546875,0.4453125,-0.8017578125,0.3978271484375,-291.0,153.0,-152.0,101701.0,-3.130000114440918,0,0
0.4806029000028502,0.368804931640625,-0.45050048828125,0.312591552734375,-0.750518798828125,0.0,-0.18310546875,-0.3662109375,0.44677734375,-0.8023681640625,0.3975830078125,-291.0,152.0,-151.0,101701.0,-3.130000114440918,0,0
0.48085120000177994,0.368804931640625,-0.45050048828125,0.312591552734375,-0.750518798828125,0.30517578125,-0.30517578125,-0.42724609375,0.44677734375,-0.800537109375,0.3973388671875,-291.0,152.0,-151.0,101701.0,-3.130000114440918,0,0
0.48090989999764133,0.36859130859375,-0.450408935546875,0.31268310546875,-0.7506103515625,0.244140625,-0.244140625,-0.48828125,0.445556640625,-0.7999267578125,0.3988037109375,-291.0,152.0,-151.0,101701.0,-3.130000114440918,0,0
0.48096640000585467,0.36859130859375,-0.450408935546875,0.312713623046875,-0.7506103515625,0.06103515625,-0.244140625,-0.54931640625,0.44384765625,-0.79931640625,0.3975830078125,-291.0,152.0,-151.0,101701.0,-3.130000114440918,0,0
0.4810219000064535,0.36859130859375,-0.450408935546875,0.31268310546875,-0.7506103515625,-0.1220703125,0.06103515625,0.06103515625,0.44873046875,-0.80029296875,0.3966064453125,-291.0,152.0,-151.0,101701.0,-3.130000114440918,0,0
0.4810767000017222,0.36859130859375,-0.450408935546875,0.31268310546875,-0.7506103515625,0.06103515625,-0.06103515625,0.18310546875,0.4444580078125,-0.7994384765625,0.396484375,-291.0,152.0,-151.0,101701.0,-3.130000114440918,0,0
0.5429588999977568,0.36859130859375,-0.450408935546875,0.31268310546875,-0.7506103515625,-0.06103515625,-0.1220703125,0.244140625,0.446533203125,-0.800048828125,0.39990234375,-291.0,152.0,-151.0,101701.0,-3.130000114440918,0,0
0.5430313999968348,0.36859130859375,-0.450408935546875,0.31268310546875,-0.7506103515625,-0.244140625,-0.06103515625,0.30517578125,0.44482421875,-0.8011474609375,0.3990478515625,-291.0,152.0,-151.0,101701.0,-3.130000114440918,0,0
0.5430950000009034,0.36859130859375,-0.450408935546875,0.31268310546875,-0.7506103515625,0.1220703125,-0.06103515625,0.0,0.4453125,-0.80126953125,0.398681640625,-291.0,152.0,-151.0,101701.0,-3.130000114440918,0,0
0.5431992999947397,0.36859130859375,-0.450408935546875,0.31268310546875,-0.7506103515625,0.06103515625,0.1220703125,-0.06103515625,0.4454345703125,-0.8018798828125,0.3980712890625,-291.0,152.0,-151.0,101701.0,-3.130000114440918,0,0
0.543262399995001,0.36859130859375,-0.450408935546875,0.31268310546875,-0.7506103515625,0.1220703125,-0.3662109375,-0.1220703125,0.4443359375,-0.80126953125,0.4002685546875,-291.0,152.0,-151.0,101701.0,-3.130000114440918,0,0
0.5433411999983946,0.368621826171875,-0.450408935546875,0.31268310546875,-0.7506103515625,-0.06103515625,0.1220703125,-0.18310546875,0.4443359375,-0.8023681640625,0.3980712890625,-291.0,152.0,-151.0,101701.0,-3.130000114440918,0,0
0.5434012000041548,0.368621826171875,-0.450408935546875,0.312713623046875,-0.7506103515625,0.0,-0.18310546875,-0.42724609375,0.4432373046875,-0.8026123046875,0.3988037109375,-291.0,152.0,-151.0,101701.0,-3.130000114440918,0,0
0.5434631999960402,0.368621826171875,-0.450408935546875,0.312713623046875,-0.7506103515625,0.1220703125,-0.18310546875,-0.30517578125,0.4454345703125,-0.8013916015625,0.3984375,-291.0,152.0,-151.0,101701.0,-3.130000114440918,0,0
0.5435249000001932,0.36859130859375,-0.450408935546875,0.31268310546875,-0.7506103515625,0.18310546875,-0.1220703125,-0.244140625,0.4468994140625,-0.7994384765625,0.399169921875,-291.0,152.0,-151.0,101701.0,-3.130000114440918,0,0
0.5436393999989377,0.368621826171875,-0.450408935546875,0.31268310546875,-0.7506103515625,0.18310546875,0.0,0.0,0.4461669921875,-0.8017578125,0.400146484375,-291.0,152.0,-151.0,101701.0,-3.130000114440918,0,0
0.5437117999972543,0.368621826171875,-0.450408935546875,0.31268310546875,-0.7506103515625,0.18310546875,0.0,0.0,0.4461669921875,-0.8017578125,0.400146484375,-291.0,152.0,-151.0,101701.0,-3.130000114440918,0,0
0.6067084999958752,0.36859130859375,-0.450408935546875,0.31268310546875,-0.7506103515625,0.0,0.0,0.0,0.4466552734375,-0.801025390625,0.3975830078125,-291.0,152.0,-151.0,101701.0,-3.133000135421753,0,0
0.6067788999935146,0.368408203125,-0.4503173828125,0.31280517578125,-0.750732421875,0.1220703125,0.06103515625,0.3662109375,0.4456787109375,-0.8023681640625,0.3975830078125,-291.0,152.0,-151.0,101701.0,-3.133000135421753,0,0
0.6068433000036748,0.368408203125,-0.4503173828125,0.312835693359375,-0.750701904296875,0.244140625,-0.1220703125,0.18310546875,0.4461669921875,-0.802734375,0.3955078125,-291.0,152.0,-151.0,101701.0,-3.133000135421753,0,0
0.6069063000031747,0.368408203125,-0.4503173828125,0.312835693359375,-0.750701904296875,-0.06103515625,-0.1220703125,0.06103515625,0.444580078125,-0.8011474609375,0.3968505859375,-291.0,152.0,-151.0,101701.0,-3.133000135421753,0,0
0.6069677000050433,0.368408203125,-0.450347900390625,0.312835693359375,-0.750701904296875,-0.1220703125,-0.1220703125,-0.1220703125,0.445556640625,-0.8018798828125,0.3961181640625,-291.0,152.0,-151.0,101701.0,-3.133000135421753,0,0
0.6075661999930162,0.368408203125,-0.450347900390625,0.312835693359375,-0.750701904296875,0.1220703125,0.06103515625,-0.1220703125,0.4468994140625,-0.8011474609375,0.3990478515625,-291.0,152.0,-151.0,101701.0,-3.133000135421753,0,0
0.6076376999990316,0.368408203125,-0.450347900390625,0.312835693359375,-0.750701904296875,0.1220703125,0.06103515625,-0.1220703125,0.4468994140625,-0.8011474609375,0.3990478515625,-291.0,152.0,-151.0,101701.0,-3.133000135421753,0,0
0.6077007999992929,0.368377685546875,-0.450347900390625,0.312835693359375,-0.750701904296875,0.18310546875,0.1220703125,-0.18310546875,0.4449462890625,-0.80078125,0.3978271484375,-291.0,152.0,-151.0,101701.0,-3.133000135421753,0,0
0.6077627000049688,0.368377685546875,-0.450347900390625,0.312835693359375,-0.750701904296875,0.06103515625,-0.1220703125,0.0,0.446044921875,-0.80224609375,0.3992919921875,-291.0,152.0,-151.0,101701.0,-3.133000135421753,0,0
0.6078246999968542,0.368377685546875,-0.450347900390625,0.312835693359375,-0.750701904296875,0.06103515625,-0.1220703125,-0.1220703125,0.4461669921875,-0.802978515625,0.399169921875,-291.0,152.0,-151.0,101701.0,-3.133000135421753,0,0
0.6078852999926312,0.368377685546875,-0.450347900390625,0.312835693359375,-0.750701904296875,0.06103515625,-0.1220703125,-0.1220703125,0.4461669921875,-0.802978515625,0.399169921875,-291.0,152.0,-151.0,101701.0,-3.133000135421753,0,0
0.6786572999990312,0.368377685546875,-0.4503173828125,0.312835693359375,-0.750701904296875,0.0,-0.18310546875,0.0,0.44482421875,-0.800537109375,0.3992919921875,-291.0,152.0,-151.0,101701.0,-3.133000135421753,0,0
0.6787248000036925,0.368377685546875,-0.4503173828125,0.312835693359375,-0.750701904296875,0.3662109375,-0.18310546875,-0.06103515625,0.445556640625,-0.8013916015625,0.3978271484375,-291.0,152.0,-151.0,101701.0,-3.133000135421753,0,0
0.6787811999965925,0.368377685546875,-0.450347900390625,0.312835693359375,-0.750701904296875,0.06103515625,0.1220703125,0.18310546875,0.44580078125,-0.8006591796875,0.3980712890625,-291.0,152.0,-151.0,101701.0,-3.133000135421753,0,0
0.6788358000048902,0.368377685546875,-0.450347900390625,0.312835693359375,-0.750701904296875,0.1220703125,0.18310546875,-0.06103515625,0.447509765625,-0.8017578125,0.3980712890625,-291.0,152.0,-151.0,101701.0,-3.133000135421753,0,0
0.678891300005489,0.368377685546875,-0.450347900390625,0.312835693359375,-0.750701904296875,0.06103515625,0.0,0.18310546875,0.44482421875,-0.8011474609375,0.3990478515625,-291.0,152.0,-151.0,101701.0,-3.133000135421753,0,0
0.6789458999992348,0.368377685546875,-0.450347900390625,0.312835693359375,-0.750701904296875,0.06103515625,0.0,0.18310546875,0.44482421875,-0.8011474609375,0.3990478515625,-291.0,152.0,-151.0,101701.0,-3.133000135421753,0,0
0.678999499999918,0.368408203125,-0.450347900390625,0.312835693359375,-0.750701904296875,0.0,0.06103515625,-0.06103515625,0.4453125,-0.802734375,0.3975830078125,-291.0,152.0,-151.0,101701.0,-3.133000135421753,0,0
0.679404099995736,0.368408203125,-0.450347900390625,0.312835693359375,-0.750701904296875,0.1220703125,-0.18310546875,0.06103515625,0.4453125,-0.80322265625,0.399169921875,-291.0,152.0,-151.0,101701.0,-3.133000135421753,0,0
0.6794599999993807,0.368377685546875,-0.450347900390625,0.312835693359375,-0.750701904296875,0.18310546875,-0.1220703125,-0.1220703125,0.445556640625,-0.8026123046875,0.3975830078125,-291.0,152.0,-151.0,101701.0,-3.133000135421753,0,0
0.6795158000022639,0.368377685546875,-0.450347900390625,0.312835693359375,-0.750701904296875,-0.42724609375,-0.18310546875,-0.18310546875,0.445556640625,-0.8001708984375,0.3963623046875,-290.0,152.0,-151.0,101701.0,-3.13100004196167,0,0
0.6795702999952482,0.368377685546875,-0.450347900390625,0.312835693359375,-0.750701904296875,-0.42724609375,-0.18310546875,-0.18310546875,0.445556640625,-0.8001708984375,0.3963623046875,-290.0,152.0,-151.0,101701.0,-3.13100004196167,0,0
0.6796252000058303,0.3681640625,-0.45025634765625,0.312957763671875,-0.75079345703125,0.1220703125,-0.30517578125,-0.3662109375,0.4462890625,-0.801025390625,0.396240234375,-290.0,152.0,-151.0,101701.0,-3.13100004196167,0,0
0.6796778999996604,0.3681640625,-0.45025634765625,0.312957763671875,-0.75079345703125,0.06103515625,-0.06103515625,0.0,0.44580078125,-0.8011474609375,0.3980712890625,-290.0,152.0,-151.0,101701.0,-3.13100004196167,0,0
0.7387355999962892,0.3681640625,-0.450286865234375,0.312957763671875,-0.75079345703125,-0.1220703125,0.06103515625,-0.06103515625,0.4449462890625,-0.8009033203125,0.3983154296875,-290.0,152.0,-151.0,101701.0,-3.13100004196167,0,0
0.738801900006365,0.3681640625,-0.450286865234375,0.312957763671875,-0.75079345703125,0.18310546875,-0.244140625,-0.06103515625,0.446044921875,-0.8017578125,0.3988037109375,-290.0,152.0,-151.0,101701.0,-3.13100004196167,0,0
0.7388574999931734,0.3681640625,-0.45025634765625,0.312957763671875,-0.75079345703125,0.06103515625,-0.1220703125,-0.06103515625,0.44384765625,-0.7999267578125,0.396240234375,-290.0,152.0,-151.0,101701.0,-3.13100004196167,0,0
0.7389450000046054,0.3681640625,-0.45025634765625,0.312957763671875,-0.75079345703125,0.1220703125,-0.1220703125,-0.18310546875,0.4439697265625,-0.800537109375,0.399169921875,-290.0,152.0,-151.0,101701.0,-3.13100004196167,0,0
0.7389989999937825,0.3681640625,-0.45025634765625,0.312957763671875,-0.75079345703125,-0.18310546875,-0.06103515625,0.06103515625,0.446044921875,-0.8004150390625,0.39892578125,-290.0,152.0,-151.0,101701.0,-3.13100004196167,0,0
0.7394727000064449,0.3681640625,-0.45025634765625,0.312957763671875,-0.75079345703125,-0.06103515625,-0.06103515625,0.0,0.444091796875,-0.8028564453125,0.3983154296875,-290.0,152.0,-151.0,101701.0,-3.13100004196167,0,0
0.7395336000045063,0.3681640625,-0.45025634765625,0.31298828125,-0.75079345703125,0.244140625,0.0,-0.1220703125,0.4447021484375,-0.8026123046875,0.398681640625,-290.0,152.0,-151.0,101701.0,-3.13100004196167,0,0
0.7395895999943605,0.3681640625,-0.450286865234375,0.31298828125,-0.75079345703125,0.06103515625,-0.18310546875,-0.1220703125,0.4462890625,-0.802490234375,0.3974609375,-290.0,152.0,-151.0,101701.0,-3.13100004196167,0,0
0.7396429999935208,0.3681640625,-0.450286865234375,0.31298828125,-0.75079345703125,0.06103515625,-0.18310546875,-0.1220703125,0.4462890625,-0.802490234375,0.3974609375,-290.0,152.0,-151.0,101701.0,-3.13100004196167,0,0
0.7396953999996185,0.3681640625,-0.450286865234375,0.31298828125,-0.75079345703125,-0.18310546875,-0.244140625,0.0,0.446044921875,-0.801513671875,0.3970947265625,-290.0,152.0,-151.0,101701.0,-3.13100004196167,0,0
0.7397486999980174,0.3681640625,-0.450286865234375,0.31298828125,-0.75079345703125,0.06103515625,-0.1220703125,0.06103515625,0.444091796875,-0.80078125,0.398193359375,-290.0,152.0,-151.0,101701.0,-3.13100004196167,0,0
0.8346208000002662,0.3681640625,-0.450286865234375,0.31298828125,-0.75079345703125,0.06103515625,-0.1220703125,-0.3662109375,0.4461669921875,-0.80029296875,0.39697265625,-290.0,152.0,-151.0,101701.0,-3.13100004196167,0,0
0.8346926999947755,0.3681640625,-0.450286865234375,0.31298828125,-0.75079345703125,0.1220703125,-0.1220703125,0.18310546875,0.445556640625,-0.802734375,0.3978271484375,-290.0,152.0,-151.0,101701.0,-3.133000135421753,0,0
0.8347491000022274,0.3681640625,-0.450286865234375,0.31298828125,-0.75079345703125,-0.1220703125,-0.1220703125,0.0,0.4471435546875,-0.802978515625,0.3975830078125,-290.0,150.0,-151.0,101701.0,-3.133000135421753,0,0
0.8348389000020688,0.367950439453125,-0.4501953125,0.3131103515625,-0.750885009765625,-0.06103515625,-0.244140625,0.06103515625,0.445556640625,-0.800537109375,0.400634765625,-290.0,150.0,-151.0,101701.0,-3.133000135421753,0,0
0.8348920999997063,0.367950439453125,-0.4501953125,0.3131103515625,-0.750885009765625,-0.18310546875,-0.06103515625,0.1220703125,0.4459228515625,-0.8017578125,0.39892578125,-290.0,150.0,-151.0,101701.0,-3.133000135421753,0,0
0.8349594000028446,0.367950439453125,-0.4501953125,0.3131103515625,-0.750885009765625,-0.18310546875,-0.06103515625,0.1220703125,0.4459228515625,-0.8017578125,0.39892578125,-290.0,150.0,-151.0,101701.0,-3.133000135421753,0,0
0.8350137999950675,0.367950439453125,-0.450225830078125,0.3131103515625,-0.750885009765625,0.1220703125,-0.1220703125,-0.18310546875,0.4468994140625,-0.80029296875,0.3974609375,-290.0,150.0,-151.0,101701.0,-3.133000135421753,0,0
0.8350662000011653,0.367950439453125,-0.450225830078125,0.3131103515625,-0.750885009765625,0.0,-0.1220703125,0.0,0.4471435546875,-0.800537109375,0.3978271484375,-290.0,150.0,-151.0,101701.0,-3.133000135421753,0,0
0.8351182000042172,0.367950439453125,-0.450225830078125,0.3131103515625,-0.750885009765625,0.244140625,-0.18310546875,-0.18310546875,0.447998046875,-0.8011474609375,0.3958740234375,-290.0,150.0,-151.0,101701.0,-3.133000135421753,0,0
0.8351701000065077,0.367950439453125,-0.450225830078125,0.3131103515625,-0.750885009765625,0.0,-0.06103515625,-0.06103515625,0.4464111328125,-0.8017578125,0.39892578125,-290.0,150.0,-151.0,101701.0,-3.133000135421753,0,0
0.8352231000026222,0.367950439453125,-0.450225830078125,0.3131103515625,-0.750885009765625,0.244140625,0.0,0.1220703125,0.446044921875,-0.7998046875,0.3963623046875,-290.0,150.0,-151.0,101701.0,-3.133000135421753,0,0
0.861854000002495,0.367950439453125,-0.450225830078125,0.3131103515625,-0.750885009765625,0.0,0.0,-0.18310546875,0.446044921875,-0.799560546875,0.399169921875,-290.0,150.0,-151.0,101701.0,-3.133000135421753,0,0
0.8619185999996262,0.367950439453125,-0.450225830078125,0.3131103515625,-0.750885009765625,0.1220703125,-0.18310546875,-0.1220703125,0.4451904296875,-0.7998046875,0.3975830078125,-290.0,150.0,-151.0,101701.0,-3.133000135421753,0,0
0.8619756999978563,0.367950439453125,-0.450225830078125,0.3131103515625,-0.750885009765625,0.06103515625,-0.18310546875,-0.18310546875,0.444580078125,-0.8017578125,0.3990478515625,-290.0,150.0,-151.0,101701.0,-3.133000135421753,0,0
0.862032699995325,0.367950439453125,-0.450225830078125,0.3131103515625,-0.750885009765625,0.06103515625,-0.18310546875,-0.18310546875,0.444580078125,-0.8017578125,0.3990478515625,-290.0,150.0,-151.0,101701.0,-3.133000135421753,0,0
0.8620862999960082,0.367950439453125,-0.450225830078125,0.313079833984375,-0.750885009765625,0.0,-0.18310546875,-0.1220703125,0.4486083984375,-0.80126953125,0.398681640625,-290.0,150.0,-151.0,101701.0,-3.133000135421753,0,0
0.8621402999997372,0.367950439453125,-0.450225830078125,0.313079833984375,-0.750885009765625,0.1220703125,0.0,0.1220703125,0.445556640625,-0.8018798828125,0.3990478515625,-290.0,150.0,-151.0,101701.0,-3.133000135421753,0,0
0.8621953999972902,0.367950439453125,-0.450225830078125,0.3131103515625,-0.750885009765625,0.06103515625,0.0,-0.06103515625,0.4454345703125,-0.8009033203125,0.3955078125,-290.0,150.0,-151.0,101701.0,-3.133000135421753,0,0
0.8635982999985572,0.367950439453125,-0.45025634765625,0.3131103515625,-0.750885009765625,0.1220703125,-0.06103515625,-0.244140625,0.444091796875,-0.8009033203125,0.3961181640625,-290.0,150.0,-151.0,101701.0,-3.133000135421753,0,0
0.8636579000012716,0.367950439453125,-0.45025634765625,0.3131103515625,-0.750885009765625,0.244140625,-0.1220703125,-0.244140625,0.4451904296875,-0.8018798828125,0.396728515625,-290.0,150.0,-151.0,101701.0,-3.133000135421753,0,0
0.8637132000003476,0.367950439453125,-0.45025634765625,0.3131103515625,-0.750885009765625,0.30517578125,-0.1220703125,0.1220703125,0.4444580078125,-0.7999267578125,0.398193359375,-290.0,150.0,-151.0,101701.0,-3.133000135421753,0,0
0.8637669000017922,0.367950439453125,-0.45025634765625,0.3131103515625,-0.750885009765625,0.18310546875,-0.06103515625,0.06103515625,0.44287109375,-0.8021240234375,0.3994140625,-290.0,150.0,-151.0,101701.0,-3.133000135421753,0,0
0.8638532000040868,0.367950439453125,-0.45025634765625,0.3131103515625,-0.750885009765625,0.18310546875,-0.06103515625,0.06103515625,0.44287109375,-0.8021240234375,0.3994140625,-290.0,150.0,-150.0,101701.0,-3.132000207901001,0,0
0.8639090999931796,0.36773681640625,-0.450164794921875,0.313232421875,-0.7509765625,-0.06103515625,-0.1220703125,0.1220703125,0.4451904296875,-0.8023681640625,0.3973388671875,-290.0,150.0,-150.0,101701.0,-3.132000207901001,0,0
0.9315523999975994,0.36773681640625,-0.450164794921875,0.313232421875,-0.7509765625,-0.30517578125,-0.244140625,-0.1220703125,0.446044921875,-0.802490234375,0.39990234375,-290.0,150.0,-150.0,101701.0,-3.132000207901001,0,0
0.9321030999999493,0.36773681640625,-0.450164794921875,0.313232421875,-0.7509765625,0.244140625,-0.1220703125,-0.1220703125,0.4481201171875,-0.8016357421875,0.39892578125,-290.0,150.0,-150.0,101701.0,-3.132000207901001,0,0
0.9321724000037648,0.36773681640625,-0.450164794921875,0.313232421875,-0.7509765625,-0.06103515625,-0.244140625,0.1220703125,0.446533203125,-0.80029296875,0.3973388671875,-290.0,150.0,-150.0,101701.0,-3.132000207901001,0,0
0.9322705999948084,0.36773681640625,-0.450164794921875,0.313232421875,-0.750946044921875,-0.244140625,-0.1220703125,-0.244140625,0.4449462890625,-0.8013916015625,0.3974609375,-290.0,150.0,-150.0,101701.0,-3.132000207901001,0,0
0.9323245999985375,0.36773681640625,-0.450164794921875,0.313232421875,-0.750946044921875,-0.1220703125,0.0,0.1220703125,0.446533203125,-0.80322265625,0.396728515625,-290.0,150.0,-150.0,101701.0,-3.132000207901001,0,0
0.9330799000017578,0.36773681640625,-0.4501953125,0.313232421875,-0.750946044921875,0.1220703125,0.18310546875,-0.1220703125,0.4462890625,-0.8001708984375,0.3978271484375,-290.0,150.0,-150.0,101701.0,-3.132000207901001,0,0
0.9331379999930505,0.36773681640625,-0.4501953125,0.313232421875,-0.750946044921875,0.18310546875,0.1220703125,-0.06103515625,0.4461669921875,-0.8018798828125,0.3966064453125,-290.0,150.0,-150.0,101701.0,-3.132000207901001,0,0
0.9331937999959337,0.36773681640625,-0.4501953125,0.313232421875,-0.750946044921875,0.18310546875,0.1220703125,-0.06103515625,0.4461669921875,-0.8018798828125,0.3966064453125,-290.0,150.0,-150.0,101701.0,-3.132000207901001,0,0
0.9332454999967013,0.36773681640625,-0.450164794921875,0.313232421875,-0.750946044921875,0.0,-0.1220703125,0.0,0.4459228515625,-0.8023681640625,0.3983154296875,-290.0,150.0,-150.0,101701.0,-3.132000207901001,0,0
0.933296999995946,0.36773681640625,-0.4501953125,0.313232421875,-0.750946044921875,-0.06103515625,0.1220703125,0.1220703125,0.448974609375,-0.8011474609375,0.3978271484375,-290.0,150.0,-150.0,101701.0,-3.132000207901001,0,0
0.9333492000005208,0.36773681640625,-0.4501953125,0.313232421875,-0.7509765625,0.0,-0.244140625,-0.18310546875,0.4459228515625,-0.80029296875,0.399169921875,-290.0,150.0,-150.0,101701.0,-3.132000207901001,0,0
0.9890876999998,0.367706298828125,-0.4501953125,0.313232421875,-0.750946044921875,0.06103515625,0.0,-0.06103515625,0.44580078125,-0.802001953125,0.3975830078125,-290.0,150.0,-150.0,101701.0,-3.132000207901001,0,0
0.9891476000047987,0.36773681640625,-0.4501953125,0.313232421875,-0.750946044921875,0.244140625,-0.1220703125,-0.1220703125,0.443603515625,-0.8013916015625,0.3984375,-290.0,150.0,-150.0,101701.0,-3.132000207901001,0,0
0.9892027000023518,0.36773681640625,-0.450164794921875,0.313232421875,-0.7509765625,0.06103515625,0.0,-0.30517578125,0.4447021484375,-0.80029296875,0.39892578125,-290.0,150.0,-150.0,101701.0,-3.132000207901001,0,0
0.9894593000062741,0.36773681640625,-0.4501953125,0.313232421875,-0.750946044921875,0.42724609375,0.06103515625,0.18310546875,0.444580078125,-0.802001953125,0.396728515625,-290.0,150.0,-150.0,101701.0,-3.133000135421753,0,0
0.9895237000018824,0.36773681640625,-0.4501953125,0.313232421875,-0.750946044921875,0.42724609375,0.06103515625,0.18310546875,0.444580078125,-0.802001953125,0.396728515625,-290.0,150.0,-150.0,101701.0,-3.133000135421753,0,0
0.9899418999993941,0.367523193359375,-0.450103759765625,0.3133544921875,-0.751068115234375,0.1220703125,-0.06103515625,-0.244140625,0.4444580078125,-0.80029296875,0.3973388671875,-290.0,151.0,-151.0,101701.0,-3.133000135421753,0,0
0.9900053000019398,0.367523193359375,-0.450103759765625,0.3133544921875,-0.751068115234375,0.18310546875,-0.06103515625,-0.18310546875,0.4471435546875,-0.8011474609375,0.39697265625,-290.0,151.0,-151.0,101701.0,-3.133000135421753,0,0
0.9900597999949241,0.367523193359375,-0.450103759765625,0.313385009765625,-0.751068115234375,0.18310546875,0.1220703125,-0.1220703125,0.443359375,-0.799072265625,0.397216796875,-290.0,151.0,-151.0,101701.0,-3.133000135421753,0,0
0.9901116999972146,0.367523193359375,-0.450103759765625,0.313385009765625,-0.751068115234375,0.06103515625,0.0,0.06103515625,0.4449462890625,-0.8009033203125,0.3975830078125,-290.0,151.0,-151.0,101701.0,-3.133000135421753,0,0
0.990166000003228,0.367523193359375,-0.450103759765625,0.313385009765625,-0.75103759765625,0.0,0.0,-0.244140625,0.44580078125,-0.8004150390625,0.3961181640625,-290.0,151.0,-151.0,101701.0,-3.133000135421753,0,0
0.9902183999947738,0.36749267578125,-0.450103759765625,0.313385009765625,-0.75103759765625,-0.06103515625,-0.06103515625,-0.1220703125,0.4488525390625,-0.8006591796875,0.396728515625,-290.0,151.0,-151.0,101701.0,-3.133000135421753,0,0
1.0536433999950532,0.36749267578125,-0.450103759765625,0.3133544921875,-0.75103759765625,0.1220703125,0.0,-0.3662109375,0.4471435546875,-0.800537109375,0.3992919921875,-290.0,151.0,-151.0,101701.0,-3.133000135421753,0,0
1.0537091000005603,0.36749267578125,-0.450103759765625,0.3133544921875,-0.75103759765625,0.0,-0.244140625,-0.06103515625,0.445556640625,-0.801025390625,0.3970947265625,-290.0,151.0,-151.0,101701.0,-3.133000135421753,0,0
1.0537634999927832,0.36749267578125,-0.450103759765625,0.3133544921875,-0.75103759765625,0.0,-0.244140625,-0.06103515625,0.445556640625,-0.801025390625,0.3970947265625,-290.0,151.0,-151.0,101701.0,-3.133000135421753,0,0
1.053818100001081,0.36749267578125,-0.45013427734375,0.313385009765625,-0.75103759765625,0.0,-0.06103515625,0.1220703125,0.4449462890625,-0.8017578125,0.395751953125,-290.0,151.0,-151.0,101701.0,-3.133000135421753,0,0
1.0538724999933038,0.36749267578125,-0.45013427734375,0.313385009765625,-0.75103759765625,0.244140625,-0.18310546875,-0.1220703125,0.44580078125,-0.801025390625,0.39794921875,-290.0,151.0,-151.0,101701.0,-3.133000135421753,0,0
1.0539256000047317,0.36749267578125,-0.45013427734375,0.313385009765625,-0.75103759765625,-0.18310546875,-0.1220703125,-0.244140625,0.4466552734375,-0.8004150390625,0.3968505859375,-290.0,151.0,-151.0,101701.0,-3.133000135421753,0,0
1.0539781999978004,0.36749267578125,-0.45013427734375,0.313385009765625,-0.75103759765625,0.18310546875,-0.18310546875,-0.18310546875,0.4442138671875,-0.8009033203125,0.3975830078125,-290.0,151.0,-151.0,101701.0,-3.133000135421753,0,0
1.054197399993427,0.36749267578125,-0.45013427734375,0.313385009765625,-0.75103759765625,-0.54931640625,-0.30517578125,-0.1220703125,0.4425048828125,-0.802001953125,0.396484375,-290.0,151.0,-151.0,101701.0,-3.133000135421753,0,0
1.0542581000045175,0.36749267578125,-0.45013427734375,0.313385009765625,-0.75103759765625,0.06103515625,0.1220703125,0.06103515625,0.44580078125,-0.802734375,0.3970947265625,-290.0,151.0,-151.0,101701.0,-3.133000135421753,0,0
1.0543119999929331,0.36749267578125,-0.45013427734375,0.313385009765625,-0.75103759765625,-0.06103515625,-0.42724609375,-0.3662109375,0.4456787109375,-0.80029296875,0.3975830078125,-290.0,151.0,-151.0,101701.0,-3.133000135421753,0,0
1.0543648000020767,0.36749267578125,-0.45013427734375,0.31341552734375,-0.75103759765625,0.244140625,-0.1220703125,0.06103515625,0.442626953125,-0.802978515625,0.397216796875,-290.0,151.0,-151.0,101701.0,-3.133000135421753,0,0
1.0544176999974297,0.36749267578125,-0.45013427734375,0.31341552734375,-0.75103759765625,0.244140625,-0.06103515625,0.06103515625,0.4423828125,-0.8017578125,0.39697265625,-290.0,151.0,-151.0,101701.0,-3.133000135421753,0,0
1.0544697000004817,0.36749267578125,-0.45013427734375,0.31341552734375,-0.75103759765625,0.244140625,-0.06103515625,0.06103515625,0.4423828125,-0.8017578125,0.39697265625,-290.0,151.0,-151.0,101701.0,-3.133000135421753,0,0
1.1213488999928813,0.367401123046875,-0.450103759765625,0.3134765625,-0.751068115234375,-0.06103515625,-0.06103515625,-0.1220703125,0.4444580078125,-0.8004150390625,0.3953857421875,-291.0,150.0,-151.0,101702.0,-3.134000062942505,0,0
1.1214108999993186,0.367401123046875,-0.450103759765625,0.3134765625,-0.751068115234375,0.06103515625,-0.06103515625,-0.3662109375,0.4466552734375,-0.8013916015625,0.3968505859375,-291.0,150.0,-151.0,101702.0,-3.134000062942505,0,0
1.1214651000045706,0.367401123046875,-0.450103759765625,0.3134765625,-0.751068115234375,0.06103515625,-0.1220703125,0.0,0.4456787109375,-0.7999267578125,0.3973388671875,-291.0,150.0,-151.0,101702.0,-3.134000062942505,0,0
1.1215224000043236,0.367401123046875,-0.450103759765625,0.3134765625,-0.751068115234375,0.06103515625,-0.1220703125,-0.30517578125,0.445068359375,-0.80029296875,0.39794921875,-291.0,150.0,-151.0,101702.0,-3.134000062942505,0,0
1.121578899997985,0.367401123046875,-0.450103759765625,0.3134765625,-0.751068115234375,0.18310546875,0.0,-0.06103515625,0.44580078125,-0.8018798828125,0.3980712890625,-291.0,150.0,-151.0,101702.0,-3.134000062942505,0,0
1.1216508000070462,0.367401123046875,-0.450103759765625,0.3134765625,-0.751068115234375,-0.06103515625,0.0,0.1220703125,0.4453125,-0.802734375,0.396240234375,-291.0,150.0,-151.0,101702.0,-3.134000062942505,0,0
1.1217030999978306,0.367401123046875,-0.450103759765625,0.3134765625,-0.751068115234375,-0.06103515625,0.0,0.1220703125,0.4453125,-0.802734375,0.396240234375,-291.0,150.0,-151.0,101702.0,-3.134000062942505,0,0
1.1217561999947065,0.367401123046875,-0.450103759765625,0.313507080078125,-0.75103759765625,-0.1220703125,-0.18310546875,-0.06103515625,0.444580078125,-0.802978515625,0.396728515625,-291.0,150.0,-151.0,101702.0,-3.134000062942505,0,0
1.1218086000008043,0.367401123046875,-0.450103759765625,0.313507080078125,-0.75103759765625,0.18310546875,-0.1220703125,-0.06103515625,0.444580078125,-0.8001708984375,0.3968505859375,-291.0,150.0,-151.0,101702.0,-3.134000062942505,0,0
1.1218629999930272,0.367401123046875,-0.450103759765625,0.313507080078125,-0.75103759765625,-0.1220703125,0.30517578125,-0.244140625,0.4461669921875,-0.8028564453125,0.397216796875,-291.0,150.0,-151.0,101702.0,-3.134000062942505,0,0
1.1219162000052165,0.367401123046875,-0.45013427734375,0.313507080078125,-0.75103759765625,-0.244140625,0.0,-0.06103515625,0.443115234375,-0.801513671875,0.3974609375,-291.0,150.0,-151.0,101702.0,-3.134000062942505,0,0
1.1825791000010213,0.367401123046875,-0.45013427734375,0.313507080078125,-0.75103759765625,0.244140625,0.0,-0.244140625,0.446533203125,-0.8013916015625,0.3984375,-291.0,150.0,-151.0,101702.0,-3.134000062942505,0,0
1.1826482000033138,0.367401123046875,-0.45013427734375,0.313507080078125,-0.75103759765625,0.18310546875,-0.06103515625,-0.18310546875,0.4466552734375,-0.8011474609375,0.397216796875,-291.0,150.0,-151.0,101702.0,-3.134000062942505,0,0
1.182710799999768,0.367401123046875,-0.45013427734375,0.313507080078125,-0.75103759765625,0.244140625,-0.18310546875,-0.18310546875,0.4432373046875,-0.8009033203125,0.395263671875,-291.0,150.0,-151.0,101702.0,-3.134000062942505,0,0
1.1827705000032438,0.367401123046875,-0.45013427734375,0.313507080078125,-0.75103759765625,0.244140625,-0.18310546875,-0.18310546875,0.4432373046875,-0.8009033203125,0.395263671875,-291.0,150.0,-151.0,101702.0,-3.134000062942505,0,0
1.1828280000045197,0.367401123046875,-0.45013427734375,0.313507080078125,-0.75103759765625,-0.244140625,-0.1220703125,0.06103515625,0.4451904296875,-0.80029296875,0.3968505859375,-291.0,150.0,-151.0,101702.0,-3.134000062942505,0,0
1.1830171000037808,0.367401123046875,-0.45013427734375,0.31353759765625,-0.75103759765625,0.06103515625,-0.18310546875,-0.06103515625,0.44482421875,-0.802001953125,0.3968505859375,-291.0,150.0,-151.0,101701.0,-3.133000135421753,0,0
1.183087199999136,0.367401123046875,-0.45013427734375,0.31353759765625,-0.75103759765625,0.06103515625,0.0,0.18310546875,0.4461669921875,-0.8004150390625,0.3973388671875,-291.0,150.0,-151.0,101701.0,-3.133000135421753,0,0
1.183146299998043,0.367279052734375,-0.450103759765625,0.3135986328125,-0.751068115234375,0.06103515625,-0.244140625,-0.06103515625,0.44482421875,-0.8021240234375,0.39697265625,-291.0,150.0,-151.0,101701.0,-3.133000135421753,0,0
1.1832041000016034,0.367279052734375,-0.450103759765625,0.3135986328125,-0.751068115234375,0.3662109375,0.0,0.06103515625,0.4449462890625,-0.802490234375,0.3975830078125,-291.0,150.0,-151.0,101701.0,-3.133000135421753,0,0
1.1832621000066865,0.3673095703125,-0.450103759765625,0.3135986328125,-0.751068115234375,0.0,-0.06103515625,-0.1220703125,0.445068359375,-0.80126953125,0.3975830078125,-291.0,150.0,-151.0,101701.0,-3.133000135421753,0,0
1.1833202999987407,0.367279052734375,-0.450103759765625,0.3135986328125,-0.751068115234375,-0.244140625,-0.244140625,-0.06103515625,0.4464111328125,-0.800537109375,0.3958740234375,-291.0,150.0,-151.0,101701.0,-3.133000135421753,0,0
1.1833771999954479,0.367279052734375,-0.450103759765625,0.3135986328125,-0.751068115234375,0.244140625,-0.244140625,0.30517578125,0.4454345703125,-0.8021240234375,0.396484375,-291.0,150.0,-151.0,101701.0,-3.133000135421753,0,0
1.2473459000029834,0.367279052734375,-0.450103759765625,0.3135986328125,-0.751068115234375,0.244140625,-0.244140625,0.30517578125,0.4454345703125,-0.8021240234375,0.396484375,-291.0,150.0,-151.0,101701.0,-3.133000135421753,0,0
1.2474201000004541,0.367279052734375,-0.45013427734375,0.3135986328125,-0.751068115234375,0.0,-0.06103515625,0.0,0.4481201171875,-0.8018798828125,0.3988037109375,-291.0,150.0,-151.0,101701.0,-3.133000135421753,0,0
1.2474825999961467,0.367279052734375,-0.45013427734375,0.3135986328125,-0.751068115234375,-0.06103515625,-0.244140625,0.0,0.4454345703125,-0.8023681640625,0.3963623046875,-291.0,150.0,-151.0,101701.0,-3.133000135421753,0,0
1.2475427000026684,0.367279052734375,-0.45013427734375,0.3135986328125,-0.751068115234375,-0.18310546875,-0.18310546875,-0.1220703125,0.4449462890625,-0.8011474609375,0.396240234375,-291.0,150.0,-151.0,101701.0,-3.133000135421753,0,0
1.2476012999977684,0.367279052734375,-0.45013427734375,0.3135986328125,-0.751068115234375,0.1220703125,0.0,-0.06103515625,0.4473876953125,-0.801513671875,0.396484375,-291.0,150.0,-151.0,101701.0,-3.133000135421753,0,0
1.2476587999990443,0.367279052734375,-0.45013427734375,0.3135986328125,-0.751068115234375,0.06103515625,0.0,-0.18310546875,0.4449462890625,-0.7996826171875,0.3978271484375,-291.0,150.0,-151.0,101701.0,-3.133000135421753,0,0
1.2479223999980604,0.367279052734375,-0.45013427734375,0.3135986328125,-0.75103759765625,-0.06103515625,-0.1220703125,0.1220703125,0.4453125,-0.8013916015625,0.3961181640625,-291.0,150.0,-151.0,101701.0,-3.133000135421753,0,0
1.2479907999950228,0.367279052734375,-0.45013427734375,0.3135986328125,-0.75103759765625,-0.1220703125,-0.30517578125,0.06103515625,0.4466552734375,-0.8009033203125,0.397216796875,-291.0,150.0,-151.0,101701.0,-3.133000135421753,0,0
1.2480505999992602,0.367279052734375,-0.45013427734375,0.3135986328125,-0.75103759765625,0.0,0.0,-0.06103515625,0.4461669921875,-0.8013916015625,0.3968505859375,-291.0,150.0,-151.0,101701.0,-3.133000135421753,0,0
1.2481087000051048,0.367279052734375,-0.45013427734375,0.3135986328125,-0.75103759765625,0.42724609375,0.0,-0.1220703125,0.44580078125,-0.8023681640625,0.3968505859375,-291.0,150.0,-151.0,101701.0,-3.133000135421753,0,0
1.2481661000056192,0.367279052734375,-0.45013427734375,0.3135986328125,-0.75103759765625,0.42724609375,0.0,-0.1220703125,0.44580078125,-0.8023681640625,0.3968505859375,-291.0,150.0,-151.0,101701.0,-3.133000135421753,0,0
1.248222700000042,0.367279052734375,-0.450164794921875,0.313629150390625,-0.75103759765625,-0.1220703125,-0.18310546875,-0.18310546875,0.44482421875,-0.8009033203125,0.3946533203125,-291.0,150.0,-151.0,101701.0,-3.133000135421753,0,0
1.3185876000061398,0.367279052734375,-0.450164794921875,0.313629150390625,-0.75103759765625,-0.06103515625,0.06103515625,0.0,0.445068359375,-0.801025390625,0.3956298828125,-291.0,150.0,-150.0,101701.0,-3.13100004196167,0,0
1.3186558000015793,0.367279052734375,-0.450164794921875,0.313629150390625,-0.75103759765625,0.1220703125,-0.18310546875,-0.18310546875,0.4461669921875,-0.8023681640625,0.395751953125,-291.0,150.0,-150.0,101701.0,-3.13100004196167,0,0
1.3187171000026865,0.367279052734375,-0.450164794921875,0.313629150390625,-0.751007080078125,0.06103515625,-0.18310546875,0.0,0.4439697265625,-0.802734375,0.3955078125,-291.0,150.0,-150.0,101701.0,-3.13100004196167,0,0
1.3187766000046395,0.367279052734375,-0.450164794921875,0.313629150390625,-0.751007080078125,0.48828125,-0.06103515625,-0.06103515625,0.4473876953125,-0.7999267578125,0.3956298828125,-291.0,150.0,-150.0,101701.0,-3.13100004196167,0,0
1.3188361000065925,0.367279052734375,-0.450164794921875,0.31365966796875,-0.751007080078125,0.18310546875,-0.1220703125,0.06103515625,0.4454345703125,-0.801025390625,0.396728515625,-291.0,150.0,-150.0,101701.0,-3.13100004196167,0,0
1.318959399999585,0.367279052734375,-0.450164794921875,0.31365966796875,-0.751007080078125,0.18310546875,-0.1220703125,0.06103515625,0.4454345703125,-0.801025390625,0.396728515625,-291.0,150.0,-150.0,101701.0,-3.13100004196167,0,0
1.3190191000030609,0.367279052734375,-0.450164794921875,0.31365966796875,-0.751007080078125,0.0,0.06103515625,0.0,0.447509765625,-0.8031005859375,0.395751953125,-291.0,150.0,-150.0,101701.0,-3.13100004196167,0,0
1.3190769999928307,0.367279052734375,-0.4501953125,0.31365966796875,-0.751007080078125,-0.244140625,-0.18310546875,0.06103515625,0.4459228515625,-0.802001953125,0.396240234375,-291.0,150.0,-150.0,101701.0,-3.13100004196167,0,0
1.3191365999955451,0.36724853515625,-0.4501953125,0.31365966796875,-0.751007080078125,0.0,-0.1220703125,-0.1220703125,0.4449462890625,-0.7996826171875,0.396240234375,-291.0,150.0,-150.0,101701.0,-3.13100004196167,0,0
1.319196099997498,0.36724853515625,-0.4501953125,0.31365966796875,-0.751007080078125,-0.06103515625,0.0,-0.1220703125,0.4454345703125,-0.800537109375,0.3955078125,-291.0,150.0,-150.0,101701.0,-3.13100004196167,0,0
1.3192572999978438,0.36724853515625,-0.4501953125,0.31365966796875,-0.751007080078125,0.1220703125,-0.1220703125,-0.244140625,0.443359375,-0.8009033203125,0.3966064453125,-291.0,150.0,-150.0,101701.0,-3.13100004196167,0,0
1.3745133000047645,0.36724853515625,-0.450225830078125,0.31365966796875,-0.7509765625,0.06103515625,0.18310546875,-0.244140625,0.445556640625,-0.80224609375,0.398193359375,-291.0,150.0,-150.0,101701.0,-3.13100004196167,0,0
1.374585500001558,0.36724853515625,-0.450225830078125,0.313690185546875,-0.7509765625,0.06103515625,-0.18310546875,0.0,0.4464111328125,-0.8040771484375,0.396484375,-291.0,150.0,-150.0,101701.0,-3.13100004196167,0,0
1.3746454000065569,0.36724853515625,-0.450225830078125,0.313690185546875,-0.7509765625,0.06103515625,-0.18310546875,0.0,0.4464111328125,-0.8040771484375,0.396484375,-291.0,150.0,-150.0,101701.0,-3.13100004196167,0,0
1.37470270000631,0.36724853515625,-0.450225830078125,0.313690185546875,-0.7509765625,0.18310546875,0.0,-0.1220703125,0.447509765625,-0.802978515625,0.39697265625,-291.0,150.0,-150.0,101701.0,-3.13100004196167,0,0
1.3747595000022557,0.36724853515625,-0.450225830078125,0.313690185546875,-0.7509765625,-0.18310546875,0.06103515625,0.06103515625,0.446533203125,-0.8004150390625,0.3939208984375,-291.0,150.0,-150.0,101701.0,-3.13100004196167,0,0
1.3748340000020107,0.36724853515625,-0.450225830078125,0.313690185546875,-0.7509765625,0.0,-0.1220703125,-0.1220703125,0.4456787109375,-0.7999267578125,0.3958740234375,-291.0,150.0,-150.0,101701.0,-3.13100004196167,0,0
1.3748899000056554,0.36724853515625,-0.45025634765625,0.313690185546875,-0.7509765625,-0.1220703125,-0.18310546875,-0.18310546875,0.4451904296875,-0.798828125,0.394775390625,-291.0,150.0,-150.0,101701.0,-3.13100004196167,0,0
1.3749455999932252,0.36724853515625,-0.45025634765625,0.313690185546875,-0.7509765625,0.244140625,-0.1220703125,0.06103515625,0.445068359375,-0.8021240234375,0.394287109375,-291.0,150.0,-150.0,101701.0,-3.130000114440918,0,0
1.3750016999983927,0.36724853515625,-0.45025634765625,0.313690185546875,-0.7509765625,0.3662109375,0.06103515625,0.0,0.4437255859375,-0.8009033203125,0.395263671875,-293.0,150.0,-150.0,101701.0,-3.130000114440918,0,0
1.3750587999966228,0.36724853515625,-0.45025634765625,0.313690185546875,-0.7509765625,-0.1220703125,-0.18310546875,0.0,0.443603515625,-0.7999267578125,0.3961181640625,-293.0,150.0,-150.0,101701.0,-3.130000114440918,0,0
1.3751153000048362,0.36724853515625,-0.45025634765625,0.313720703125,-0.750946044921875,0.06103515625,-0.06103515625,-0.1220703125,0.445068359375,-0.8040771484375,0.394287109375,-293.0,150.0,-150.0,101701.0,-3.130000114440918,0,0
1.3751713999954518,0.36724853515625,-0.45025634765625,0.313720703125,-0.750946044921875,0.06103515625,-0.06103515625,-0.1220703125,0.445068359375,-0.8040771484375,0.394287109375,-293.0,150.0,-150.0,101701.0,-3.130000114440918,0,0
1.4383162000012817,0.36724853515625,-0.45025634765625,0.313720703125,-0.750946044921875,0.06103515625,-0.244140625,0.244140625,0.4456787109375,-0.8021240234375,0.393798828125,-293.0,150.0,-150.0,101701.0,-3.130000114440918,0,0
1.4383843999967212,0.36724853515625,-0.45025634765625,0.313720703125,-0.750946044921875,0.1220703125,-0.244140625,-0.06103515625,0.445068359375,-0.8048095703125,0.395263671875,-293.0,150.0,-150.0,101701.0,-3.130000114440918,0,0
1.4384444000024814,0.36724853515625,-0.450286865234375,0.313720703125,-0.750946044921875,0.06103515625,-0.06103515625,0.06103515625,0.446533203125,-0.8031005859375,0.3953857421875,-293.0,150.0,-150.0,101701.0,-3.130000114440918,0,0
1.4385018000029959,0.36724853515625,-0.450286865234375,0.313720703125,-0.750946044921875,0.06103515625,0.0,-0.244140625,0.4471435546875,-0.802734375,0.396240234375,-293.0,150.0,-150.0,101701.0,-3.130000114440918,0,0
1.438557600005879,0.367218017578125,-0.450286865234375,0.313751220703125,-0.75091552734375,0.18310546875,-0.06103515625,0.0,0.44580078125,-0.8033447265625,0.39453125,-293.0,150.0,-150.0,101701.0,-3.130000114440918,0,0
1.4386148000048706,0.367218017578125,-0.450286865234375,0.313751220703125,-0.75091552734375,0.244140625,0.0,0.0,0.4476318359375,-0.80078125,0.393798828125,-293.0,150.0,-150.0,101701.0,-3.130000114440918,0,0
1.4394215999927837,0.367218017578125,-0.4503173828125,0.313751220703125,-0.75091552734375,0.06103515625,-0.06103515625,-0.1220703125,0.4464111328125,-0.8021240234375,0.395263671875,-293.0,150.0,-150.0,101701.0,-3.130000114440918,0,0
1.4394874999998137,0.367218017578125,-0.4503173828125,0.313751220703125,-0.75091552734375,0.244140625,-0.06103515625,-0.244140625,0.44482421875,-0.7996826171875,0.39599609375,-293.0,150.0,-150.0,101701.0,-3.130000114440918,0,0
1.4396283999958541,0.367218017578125,-0.4503173828125,0.313751220703125,-0.75091552734375,-0.06103515625,-0.30517578125,-0.06103515625,0.446044921875,-0.80078125,0.3944091796875,-293.0,150.0,-150.0,101701.0,-3.130000114440918,0,0
1.439709500002209,0.367218017578125,-0.4503173828125,0.313751220703125,-0.75091552734375,-0.06103515625,-0.30517578125,-0.06103515625,0.446044921875,-0.80078125,0.3944091796875,-293.0,150.0,-150.0,101701.0,-3.130000114440918,0,0
1.4397717999963788,0.367218017578125,-0.4503173828125,0.313751220703125,-0.75091552734375,0.06103515625,-0.1220703125,0.1220703125,0.444580078125,-0.799560546875,0.396728515625,-293.0,150.0,-150.0,101701.0,-3.130000114440918,0,0
1.4398299000022234,0.367218017578125,-0.4503173828125,0.313751220703125,-0.75091552734375,-0.06103515625,-0.244140625,-0.06103515625,0.44580078125,-0.80029296875,0.396728515625,-293.0,150.0,-150.0,101701.0,-3.130000114440918,0,0
1.504697299998952,0.367218017578125,-0.450347900390625,0.313751220703125,-0.75091552734375,0.1220703125,-0.30517578125,-0.06103515625,0.446533203125,-0.799072265625,0.39501953125,-293.0,150.0,-150.0,101701.0,-3.130000114440918,0,0
1.5047751999954926,0.367218017578125,-0.450347900390625,0.313751220703125,-0.750885009765625,0.06103515625,0.0,-0.1220703125,0.4454345703125,-0.8037109375,0.3936767578125,-293.0,150.0,-150.0,101701.0,-3.130000114440918,0,0
1.5048384999972768,0.3671875,-0.450347900390625,0.313751220703125,-0.750885009765625,0.06103515625,0.0,-0.1220703125,0.4454345703125,-0.8037109375,0.3936767578125,-293.0,149.0,-150.0,101701.0,-3.13100004196167,0,0
1.504940800004988,0.3671875,-0.450347900390625,0.313751220703125,-0.750885009765625,0.06103515625,-0.1220703125,0.06103515625,0.4454345703125,-0.8011474609375,0.3966064453125,-293.0,149.0,-150.0,101701.0,-3.13100004196167,0,0
1.5050086999981431,0.3671875,-0.450347900390625,0.313751220703125,-0.750885009765625,0.06103515625,-0.1220703125,0.06103515625,0.4454345703125,-0.8011474609375,0.3966064453125,-293.0,149.0,-150.0,101701.0,-3.13100004196167,0,0
1.5051005999994231,0.3671875,-0.45037841796875,0.313751220703125,-0.750885009765625,-0.244140625,0.0,-0.18310546875,0.4423828125,-0.802001953125,0.395263671875,-293.0,149.0,-150.0,101701.0,-3.13100004196167,0,0
1.505162300003576,0.3671875,-0.45037841796875,0.313751220703125,-0.750885009765625,0.6103515625,0.0,-0.18310546875,0.4478759765625,-0.8011474609375,0.39599609375,-293.0,149.0,-150.0,101701.0,-3.13100004196167,0,0
1.5052202999941073,0.3671875,-0.45037841796875,0.313751220703125,-0.750885009765625,0.0,-0.1220703125,-0.06103515625,0.44580078125,-0.7998046875,0.3948974609375,-293.0,149.0,-150.0,101701.0,-3.13100004196167,0,0
1.5052777999953832,0.3671875,-0.45037841796875,0.31378173828125,-0.750885009765625,0.0,-0.18310546875,-0.06103515625,0.44677734375,-0.803466796875,0.3963623046875,-293.0,149.0,-150.0,101701.0,-3.13100004196167,0,0
1.5053341000020737,0.3671875,-0.45037841796875,0.31378173828125,-0.750885009765625,-0.1220703125,-0.18310546875,0.30517578125,0.4461669921875,-0.8043212890625,0.39599609375,-293.0,149.0,-150.0,101701.0,-3.13100004196167,0,0
1.5053926999971736,0.3671875,-0.45037841796875,0.31378173828125,-0.750885009765625,-0.1220703125,0.0,-0.244140625,0.4471435546875,-0.8016357421875,0.395751953125,-293.0,149.0,-150.0,101701.0,-3.13100004196167,0,0
1.5054493000061484,0.3671875,-0.45037841796875,0.31378173828125,-0.750885009765625,0.18310546875,0.06103515625,0.1220703125,0.4434814453125,-0.799560546875,0.396484375,-293.0,149.0,-150.0,101701.0,-3.13100004196167,0,0
1.5620006999961333,0.3671875,-0.45037841796875,0.31378173828125,-0.750885009765625,-0.06103515625,-0.06103515625,0.18310546875,0.4437255859375,-0.80224609375,0.3953857421875,-293.0,149.0,-150.0,101701.0,-3.13100004196167,0,0
1.562077299997327,0.3671875,-0.45037841796875,0.31378173828125,-0.7508544921875,0.1220703125,-0.06103515625,0.06103515625,0.444580078125,-0.80126953125,0.3941650390625,-293.0,149.0,-150.0,101701.0,-3.13100004196167,0,0
1.5621401999960653,0.3671875,-0.45037841796875,0.31378173828125,-0.7508544921875,0.1220703125,0.0,0.0,0.447265625,-0.8009033203125,0.3958740234375,-293.0,149.0,-150.0,101701.0,-3.13100004196167,0,0
1.5621997999987798,0.3671875,-0.450408935546875,0.31378173828125,-0.7508544921875,0.244140625,-0.1220703125,-0.18310546875,0.4468994140625,-0.8028564453125,0.396484375,-293.0,149.0,-150.0,101701.0,-3.13100004196167,0,0
1.562456999992719,0.3671875,-0.450408935546875,0.313812255859375,-0.7508544921875,0.06103515625,0.1220703125,0.1220703125,0.4476318359375,-0.8011474609375,0.394287109375,-293.0,149.0,-150.0,101701.0,-3.13100004196167,0,0
1.5625264999980573,0.3671875,-0.450408935546875,0.313812255859375,-0.7508544921875,-0.42724609375,-0.30517578125,0.0,0.446044921875,-0.8026123046875,0.393310546875,-293.0,149.0,-150.0,101701.0,-3.13100004196167,0,0
1.5625858999992488,0.3671875,-0.450408935546875,0.313812255859375,-0.7508544921875,-0.18310546875,-0.1220703125,-0.1220703125,0.4471435546875,-0.802490234375,0.3963623046875,-293.0,149.0,-150.0,101701.0,-3.13100004196167,0,0
1.5626440000050934,0.3671875,-0.450408935546875,0.313812255859375,-0.7508544921875,0.06103515625,0.0,0.06103515625,0.4468994140625,-0.802978515625,0.3951416015625,-293.0,149.0,-150.0,101701.0,-3.13100004196167,0,0
1.56270979999681,0.3671875,-0.450408935546875,0.313812255859375,-0.7508544921875,0.18310546875,-0.18310546875,0.0,0.4464111328125,-0.8017578125,0.3973388671875,-293.0,148.0,-149.0,101701.0,-3.130000114440918,0,0
1.5627679000026546,0.3671875,-0.450408935546875,0.313812255859375,-0.7508544921875,0.18310546875,-0.18310546875,0.0,0.4464111328125,-0.8017578125,0.3973388671875,-293.0,148.0,-149.0,101701.0,-3.130000114440918,0,0
1.5628261999954702,0.367156982421875,-0.450439453125,0.313812255859375,-0.7508544921875,0.1220703125,-0.1220703125,0.1220703125,0.44482421875,-0.8013916015625,0.3953857421875,-293.0,148.0,-149.0,101701.0,-3.130000114440918,0,0
1.6304343999945559,0.367156982421875,-0.450439453125,0.313812255859375,-0.7508544921875,0.06103515625,-0.06103515625,-0.1220703125,0.4454345703125,-0.8021240234375,0.3958740234375,-293.0,148.0,-149.0,101701.0,-3.130000114440918,0,0
1.630502300002263,0.367156982421875,-0.450439453125,0.313812255859375,-0.7508544921875,0.0,0.0,-0.06103515625,0.4476318359375,-0.802978515625,0.3963623046875,-293.0,148.0,-149.0,101701.0,-3.130000114440918,0,0
1.630562699996517,0.367156982421875,-0.450439453125,0.313812255859375,-0.750823974609375,0.18310546875,-0.18310546875,0.06103515625,0.444580078125,-0.80029296875,0.39501953125,-293.0,148.0,-149.0,101701.0,-3.130000114440918,0,0
1.6306214000069303,0.367156982421875,-0.450439453125,0.313812255859375,-0.750823974609375,-0.18310546875,-0.3662109375,0.1220703125,0.4453125,-0.8016357421875,0.3973388671875,-293.0,148.0,-149.0,101701.0,-3.130000114440918,0,0
1.6306824000057532,0.367156982421875,-0.450439453125,0.313812255859375,-0.7508544921875,0.244140625,-0.244140625,-0.18310546875,0.4473876953125,-0.80029296875,0.3963623046875,-293.0,148.0,-149.0,101701.0,-3.130000114440918,0,0
1.6307396000047447,0.367156982421875,-0.450439453125,0.313812255859375,-0.7508544921875,0.1220703125,0.1220703125,-0.06103515625,0.4468994140625,-0.80126953125,0.3970947265625,-293.0,148.0,-149.0,101701.0,-3.130000114440918,0,0
1.6308258000062779,0.367156982421875,-0.450439453125,0.313812255859375,-0.7508544921875,-0.18310546875,0.06103515625,0.06103515625,0.4471435546875,-0.8021240234375,0.3963623046875,-293.0,148.0,-149.0,101701.0,-3.130000114440918,0,0
1.6308864000020549,0.367156982421875,-0.450439453125,0.313812255859375,-0.7508544921875,0.06103515625,-0.06103515625,-0.06103515625,0.447265625,-0.801025390625,0.3970947265625,-293.0,148.0,-149.0,101701.0,-3.130000114440918,0,0
1.6309438000025693,0.367156982421875,-0.450439453125,0.313812255859375,-0.7508544921875,0.06103515625,-0.06103515625,-0.06103515625,0.447265625,-0.801025390625,0.3970947265625,-293.0,148.0,-149.0,101701.0,-3.130000114440918,0,0
1.6310026999999536,0.367156982421875,-0.450439453125,0.313812255859375,-0.750823974609375,-0.1220703125,0.18310546875,0.0,0.4462890625,-0.8013916015625,0.39501953125,-293.0,148.0,-149.0,101701.0,-3.130000114440918,0,0
1.6310609999927692,0.367156982421875,-0.450469970703125,0.313812255859375,-0.750823974609375,-0.06103515625,-0.244140625,-0.1220703125,0.4464111328125,-0.8004150390625,0.3958740234375,-293.0,148.0,-149.0,101701.0,-3.130000114440918,0,0
1.6311171999986982,0.367156982421875,-0.450439453125,0.313812255859375,-0.750823974609375,0.06103515625,-0.244140625,0.06103515625,0.4442138671875,-0.7998046875,0.3963623046875,-293.0,148.0,-149.0,101701.0,-3.130000114440918,0,0
1.631172699999297,0.367156982421875,-0.450469970703125,0.313812255859375,-0.750823974609375,0.244140625,0.06103515625,-0.06103515625,0.44482421875,-0.8016357421875,0.3956298828125,-293.0,148.0,-149.0,101701.0,-3.130000114440918,0,0
1.6938938999956008,0.367156982421875,-0.450469970703125,0.313812255859375,-0.750823974609375,0.18310546875,0.0,-0.18310546875,0.4459228515625,-0.801513671875,0.3951416015625,-293.0,148.0,-149.0,101701.0,-3.130000114440918,0,0
1.6939582000049995,0.367156982421875,-0.450469970703125,0.313812255859375,-0.750823974609375,-0.1220703125,-0.06103515625,-0.30517578125,0.4437255859375,-0.801025390625,0.39599609375,-293.0,148.0,-149.0,101701.0,-3.130000114440918,0,0
1.6940191000030609,0.367156982421875,-0.450469970703125,0.313812255859375,-0.750823974609375,-0.1220703125,-0.06103515625,-0.30517578125,0.4437255859375,-0.801025390625,0.39599609375,-293.0,148.0,-149.0,101701.0,-3.130000114440918,0,0
1.6940873999992618,0.367156982421875,-0.450469970703125,0.313812255859375,-0.750823974609375,0.18310546875,0.0,0.06103515625,0.4453125,-0.79931640625,0.394775390625,-293.0,149.0,-150.0,101701.0,-3.130000114440918,0,0
1.6941605000029085,0.367156982421875,-0.450469970703125,0.313812255859375,-0.750823974609375,-0.30517578125,-0.1220703125,-0.06103515625,0.4464111328125,-0.8006591796875,0.396728515625,-293.0,149.0,-150.0,101701.0,-3.130000114440918,0,0
1.694216799995047,0.367156982421875,-0.450469970703125,0.313812255859375,-0.750823974609375,0.06103515625,-0.18310546875,0.1220703125,0.4462890625,-0.8009033203125,0.39453125,-293.0,149.0,-150.0,101701.0,-3.130000114440918,0,0
1.6942739999940386,0.367156982421875,-0.450469970703125,0.313812255859375,-0.750823974609375,0.06103515625,-0.18310546875,0.1220703125,0.4454345703125,-0.80224609375,0.3953857421875,-293.0,149.0,-150.0,101701.0,-3.130000114440918,0,0
1.6943306000030134,0.367156982421875,-0.45050048828125,0.313812255859375,-0.750823974609375,0.18310546875,0.0,-0.06103515625,0.4482421875,-0.8011474609375,0.39599609375,-293.0,149.0,-150.0,101701.0,-3.130000114440918,0,0
1.6943873999989592,0.36712646484375,-0.45050048828125,0.313812255859375,-0.750823974609375,-0.06103515625,-0.1220703125,-0.244140625,0.4466552734375,-0.8038330078125,0.39599609375,-293.0,149.0,-150.0,101701.0,-3.130000114440918,0,0
1.694442699998035,0.36712646484375,-0.45050048828125,0.313812255859375,-0.750823974609375,-0.1220703125,-0.1220703125,-0.06103515625,0.4461669921875,-0.80078125,0.396484375,-293.0,149.0,-150.0,101701.0,-3.130000114440918,0,0
1.6945006000023568,0.36712646484375,-0.45050048828125,0.313812255859375,-0.750823974609375,0.0,-0.1220703125,0.06103515625,0.4476318359375,-0.8031005859375,0.3973388671875,-293.0,149.0,-150.0,101701.0,-3.130000114440918,0,0
1.7568598999932874,0.367156982421875,-0.45050048828125,0.313812255859375,-0.750823974609375,0.244140625,0.06103515625,0.06103515625,0.445068359375,-0.7998046875,0.396240234375,-293.0,149.0,-150.0,101701.0,-3.130000114440918,0,0
1.756919299994479,0.36712646484375,-0.45050048828125,0.313812255859375,-0.750823974609375,0.06103515625,-0.1220703125,-0.06103515625,0.446044921875,-0.8009033203125,0.3966064453125,-293.0,149.0,-150.0,101701.0,-3.130000114440918,0,0
1.757001499994658,0.367156982421875,-0.45050048828125,0.313812255859375,-0.750823974609375,0.30517578125,0.06103515625,-0.1220703125,0.4442138671875,-0.80078125,0.3956298828125,-293.0,149.0,-150.0,101701.0,-3.130000114440918,0,0
1.757117000001017,0.367156982421875,-0.45050048828125,0.313812255859375,-0.750823974609375,-0.18310546875,-0.06103515625,-0.18310546875,0.444091796875,-0.80078125,0.396240234375,-293.0,149.0,-150.0,101701.0,-3.130000114440918,0,0
1.7571737999969628,0.367156982421875,-0.45050048828125,0.313812255859375,-0.750823974609375,-0.06103515625,0.0,0.0,0.4442138671875,-0.8001708984375,0.3963623046875,-293.0,149.0,-150.0,101701.0,-3.130000114440918,0,0
1.758676800003741,0.367156982421875,-0.45050048828125,0.313812255859375,-0.750823974609375,0.18310546875,0.0,-0.1220703125,0.44580078125,-0.8009033203125,0.3966064453125,-293.0,149.0,-150.0,101701.0,-3.130000114440918,0,0
1.758736100004171,0.367156982421875,-0.45050048828125,0.313812255859375,-0.750823974609375,-0.30517578125,-0.30517578125,-0.06103515625,0.4447021484375,-0.8013916015625,0.398193359375,-293.0,149.0,-150.0,101701.0,-3.130000114440918,0,0
1.758790499996394,0.367156982421875,-0.45050048828125,0.313812255859375,-0.750823974609375,0.42724609375,-0.18310546875,0.1220703125,0.4466552734375,-0.7996826171875,0.3978271484375,-293.0,149.0,-150.0,101701.0,-3.130000114440918,0,0
1.758856400003424,0.367156982421875,-0.45050048828125,0.313812255859375,-0.750823974609375,0.42724609375,-0.18310546875,0.1220703125,0.4466552734375,-0.7996826171875,0.3978271484375,-293.0,149.0,-150.0,101701.0,-3.130000114440918,0,0
1.7589106999948854,0.367156982421875,-0.45050048828125,0.3138427734375,-0.750823974609375,-0.06103515625,-0.06103515625,0.06103515625,0.4447021484375,-0.800048828125,0.393798828125,-293.0,149.0,-150.0,101701.0,-3.130000114440918,0,0
1.7589619000063976,0.367156982421875,-0.45050048828125,0.313812255859375,-0.750823974609375,0.244140625,0.18310546875,-0.06103515625,0.4456787109375,-0.80029296875,0.3973388671875,-293.0,149.0,-150.0,101701.0,-3.130000114440918,0,0
1.8271337000041967,0.367156982421875,-0.45050048828125,0.3138427734375,-0.750823974609375,0.244140625,-0.244140625,0.06103515625,0.4466552734375,-0.8016357421875,0.396240234375,-294.0,150.0,-151.0,101701.0,-3.130000114440918,0,0
1.8272015999973519,0.367156982421875,-0.45050048828125,0.3138427734375,-0.750823974609375,-0.06103515625,-0.18310546875,-0.1220703125,0.44580078125,-0.802490234375,0.3978271484375,-294.0,150.0,-151.0,101701.0,-3.130000114440918,0,0
1.8272582000063267,0.367156982421875,-0.45050048828125,0.313812255859375,-0.750823974609375,0.30517578125,-0.06103515625,0.0,0.44775390625,-0.8016357421875,0.3984375,-294.0,150.0,-151.0,101701.0,-3.130000114440918,0,0
1.8273153000045568,0.367156982421875,-0.45050048828125,0.3138427734375,-0.750823974609375,0.0,0.18310546875,0.06103515625,0.4442138671875,-0.8026123046875,0.397216796875,-294.0,150.0,-151.0,101701.0,-3.130000114440918,0,0
1.8274482999986503,0.367156982421875,-0.45050048828125,0.3138427734375,-0.750823974609375,0.1220703125,0.0,0.0,0.44677734375,-0.8017578125,0.397216796875,-294.0,150.0,-151.0,101701.0,-3.130000114440918,0,0
1.827527799992822,0.367156982421875,-0.45050048828125,0.3138427734375,-0.750823974609375,-0.18310546875,-0.1220703125,-0.1220703125,0.444091796875,-0.7999267578125,0.3961181640625,-294.0,150.0,-151.0,101701.0,-3.130000114440918,0,0
1.8277089000039268,0.367156982421875,-0.45050048828125,0.3138427734375,-0.75079345703125,0.244140625,0.0,-0.1220703125,0.4459228515625,-0.802001953125,0.3956298828125,-294.0,150.0,-151.0,101701.0,-3.130000114440918,0,0
1.8277679000020726,0.367156982421875,-0.45050048828125,0.3138427734375,-0.75079345703125,0.244140625,0.0,-0.1220703125,0.4459228515625,-0.802001953125,0.3956298828125,-294.0,150.0,-151.0,101701.0,-3.130000114440918,0,0
1.8278218000050401,0.36712646484375,-0.45050048828125,0.313812255859375,-0.750823974609375,-0.06103515625,-0.244140625,-0.1220703125,0.4449462890625,-0.7999267578125,0.394287109375,-294.0,150.0,-151.0,101701.0,-3.130000114440918,0,0
1.8278757999942172,0.36712646484375,-0.45050048828125,0.313812255859375,-0.750823974609375,0.1220703125,0.06103515625,0.0,0.44775390625,-0.802490234375,0.396728515625,-294.0,150.0,-151.0,101701.0,-3.130000114440918,0,0
1.8279317999986233,0.36712646484375,-0.45050048828125,0.313812255859375,-0.750823974609375,0.0,-0.244140625,-0.1220703125,0.4459228515625,-0.8006591796875,0.394287109375,-294.0,150.0,-151.0,101701.0,-3.130000114440918,0,0
1.8279868999961764,0.36712646484375,-0.45050048828125,0.3138427734375,-0.75079345703125,-0.06103515625,-0.244140625,0.06103515625,0.4444580078125,-0.802490234375,0.396484375,-294.0,150.0,-151.0,101701.0,-3.130000114440918,0,0
1.828046299997368,0.36712646484375,-0.45050048828125,0.313812255859375,-0.75079345703125,-0.06103515625,-0.06103515625,0.1220703125,0.4486083984375,-0.80126953125,0.3953857421875,-294.0,150.0,-151.0,101701.0,-3.130000114440918,0,0
1.8838509000052,0.36712646484375,-0.45050048828125,0.313812255859375,-0.75079345703125,-0.06103515625,-0.06103515625,0.0,0.4449462890625,-0.7996826171875,0.39697265625,-294.0,150.0,-151.0,101701.0,-3.130000114440918,0,0
1.8839133000001311,0.36712646484375,-0.45050048828125,0.313812255859375,-0.75079345703125,-0.06103515625,-0.06103515625,0.0,0.4449462890625,-0.7996826171875,0.39697265625,-294.0,150.0,-151.0,101701.0,-3.130000114440918,0,0
1.8839711000036914,0.36712646484375,-0.45050048828125,0.313812255859375,-0.75079345703125,0.1220703125,-0.18310546875,-0.06103515625,0.4462890625,-0.800537109375,0.395263671875,-294.0,150.0,-151.0,101701.0,-3.130000114440918,0,0
1.8840294999972684,0.36712646484375,-0.45050048828125,0.313812255859375,-0.75079345703125,-0.1220703125,-0.30517578125,-0.244140625,0.446533203125,-0.800537109375,0.397216796875,-294.0,150.0,-151.0,101701.0,-3.130000114440918,0,0
1.8840870999993058,0.36712646484375,-0.45050048828125,0.313812255859375,-0.750823974609375,-0.1220703125,-0.30517578125,-0.244140625,0.446533203125,-0.800537109375,0.397216796875,-294.0,150.0,-151.0,101701.0,-3.130000114440918,0,0
1.884157199994661,0.367218017578125,-0.4505615234375,0.313751220703125,-0.750762939453125,0.06103515625,-0.18310546875,-0.1220703125,0.4464111328125,-0.8004150390625,0.39794921875,-295.0,151.0,-150.0,101701.0,-3.130000114440918,0,0
1.8842110999976285,0.367218017578125,-0.4505615234375,0.313751220703125,-0.750762939453125,0.1220703125,-0.06103515625,0.06103515625,0.44482421875,-0.8011474609375,0.396728515625,-295.0,151.0,-150.0,101701.0,-3.130000114440918,0,0
1.884312599999248,0.367218017578125,-0.4505615234375,0.313751220703125,-0.750762939453125,0.244140625,0.0,0.0,0.4442138671875,-0.8006591796875,0.3963623046875,-295.0,151.0,-150.0,101701.0,-3.130000114440918,0,0
1.8843657999968855,0.367218017578125,-0.4505615234375,0.313751220703125,-0.750762939453125,0.0,-0.3662109375,0.0,0.4454345703125,-0.801025390625,0.3956298828125,-295.0,151.0,-150.0,101701.0,-3.130000114440918,0,0
1.8844191999960458,0.367218017578125,-0.4505615234375,0.313751220703125,-0.750762939453125,0.18310546875,0.0,0.06103515625,0.44677734375,-0.801025390625,0.395263671875,-295.0,151.0,-150.0,101701.0,-3.130000114440918,0,0
1.884472599995206,0.367218017578125,-0.4505615234375,0.313751220703125,-0.750762939453125,0.06103515625,0.244140625,0.1220703125,0.445068359375,-0.80224609375,0.399169921875,-295.0,151.0,-150.0,101701.0,-3.130000114440918,0,0
1.9499856000038562,0.36724853515625,-0.4505615234375,0.31378173828125,-0.750762939453125,-0.30517578125,-0.30517578125,0.0,0.44580078125,-0.8016357421875,0.396484375,-295.0,151.0,-150.0,101701.0,-3.130000114440918,0,0
1.9500486000033561,0.36724853515625,-0.4505615234375,0.31378173828125,-0.750762939453125,-0.1220703125,-0.18310546875,0.0,0.4437255859375,-0.8035888671875,0.3970947265625,-295.0,151.0,-150.0,101701.0,-3.130000114440918,0,0
1.9501048999954946,0.367218017578125,-0.4505615234375,0.31378173828125,-0.750762939453125,0.18310546875,-0.1220703125,-0.06103515625,0.4471435546875,-0.8026123046875,0.3975830078125,-295.0,151.0,-150.0,101701.0,-3.130000114440918,0,0
1.9501601999945706,0.36724853515625,-0.4505615234375,0.31378173828125,-0.750762939453125,0.18310546875,-0.18310546875,0.06103515625,0.447998046875,-0.8011474609375,0.396728515625,-295.0,151.0,-150.0,101701.0,-3.130000114440918,0,0
1.950216500001261,0.36724853515625,-0.4505615234375,0.313751220703125,-0.750762939453125,-0.06103515625,-0.1220703125,0.0,0.4456787109375,-0.8026123046875,0.3983154296875,-295.0,151.0,-150.0,101701.0,-3.130000114440918,0,0
1.9503434000071138,0.36724853515625,-0.450531005859375,0.313751220703125,-0.750762939453125,0.18310546875,0.1220703125,-0.1220703125,0.44580078125,-0.7999267578125,0.3983154296875,-295.0,151.0,-150.0,101701.0,-3.130000114440918,0,0
1.950397199994768,0.36724853515625,-0.450531005859375,0.313751220703125,-0.750762939453125,-0.18310546875,-0.30517578125,-0.244140625,0.4453125,-0.802490234375,0.3975830078125,-295.0,151.0,-150.0,101701.0,-3.130000114440918,0,0
1.950450100004673,0.36724853515625,-0.450531005859375,0.313751220703125,-0.750762939453125,-0.18310546875,-0.30517578125,-0.244140625,0.4453125,-0.802490234375,0.3975830078125,-295.0,151.0,-150.0,101701.0,-3.130000114440918,0,0
1.950502099993173,0.36724853515625,-0.450531005859375,0.313751220703125,-0.750762939453125,0.18310546875,-0.1220703125,-0.06103515625,0.444091796875,-0.802734375,0.396484375,-295.0,151.0,-150.0,101701.0,-3.130000114440918,0,0
1.9505880999931833,0.36724853515625,-0.450531005859375,0.313751220703125,-0.750762939453125,0.06103515625,-0.1220703125,-0.06103515625,0.446533203125,-0.8013916015625,0.3980712890625,-295.0,151.0,-150.0,101701.0,-3.130000114440918,0,0
1.9506408000015654,0.36724853515625,-0.450531005859375,0.31378173828125,-0.750762939453125,0.18310546875,-0.1220703125,-0.18310546875,0.443115234375,-0.801025390625,0.396240234375,-295.0,151.0,-150.0,101701.0,-3.130000114440918,0,0
2.0151249000045937,0.36724853515625,-0.450531005859375,0.31378173828125,-0.750762939453125,-0.1220703125,-0.42724609375,-0.18310546875,0.4449462890625,-0.8011474609375,0.39794921875,-295.0,151.0,-150.0,101701.0,-3.130000114440918,0,0
2.0151887999963947,0.36724853515625,-0.450531005859375,0.31378173828125,-0.750762939453125,-0.18310546875,-0.18310546875,-0.1220703125,0.445556640625,-0.8009033203125,0.3966064453125,-294.0,150.0,-149.0,101701.0,-3.130000114440918,0,0
2.0152447000000393,0.367340087890625,-0.450592041015625,0.313720703125,-0.750701904296875,-0.06103515625,-0.1220703125,-0.06103515625,0.4473876953125,-0.8031005859375,0.3973388671875,-294.0,150.0,-149.0,101701.0,-3.130000114440918,0,0
2.015299100006814,0.367340087890625,-0.450592041015625,0.313720703125,-0.750701904296875,0.0,-0.1220703125,0.0,0.4473876953125,-0.8043212890625,0.3973388671875,-294.0,150.0,-149.0,101701.0,-3.130000114440918,0,0
2.0153526999929454,0.367340087890625,-0.450592041015625,0.313720703125,-0.750701904296875,0.1220703125,-0.06103515625,0.1220703125,0.44482421875,-0.8009033203125,0.3974609375,-294.0,150.0,-149.0,101701.0,-3.130000114440918,0,0
2.0154068999981973,0.367340087890625,-0.450592041015625,0.313720703125,-0.750701904296875,0.1220703125,-0.06103515625,0.1220703125,0.44482421875,-0.8009033203125,0.3974609375,-294.0,150.0,-149.0,101701.0,-3.130000114440918,0,0
2.018410100004985,0.367340087890625,-0.4505615234375,0.313690185546875,-0.750701904296875,0.244140625,-0.18310546875,-0.1220703125,0.44384765625,-0.8006591796875,0.3968505859375,-294.0,150.0,-149.0,101701.0,-3.130000114440918,0,0
2.018468499998562,0.367340087890625,-0.4505615234375,0.313690185546875,-0.750701904296875,0.0,0.0,0.0,0.4456787109375,-0.80126953125,0.3973388671875,-294.0,150.0,-149.0,101701.0,-3.130000114440918,0,0
2.0185231000068597,0.367340087890625,-0.4505615234375,0.313690185546875,-0.750732421875,0.06103515625,-0.18310546875,0.0,0.4451904296875,-0.8001708984375,0.3973388671875,-294.0,150.0,-149.0,101701.0,-3.130000114440918,0,0
2.0185767999937525,0.367340087890625,-0.4505615234375,0.313690185546875,-0.750732421875,0.1220703125,-0.1220703125,-0.18310546875,0.4461669921875,-0.801513671875,0.3975830078125,-294.0,150.0,-149.0,101701.0,-3.130000114440918,0,0
2.0186319000058575,0.367340087890625,-0.4505615234375,0.313690185546875,-0.750732421875,-0.1220703125,-0.1220703125,0.0,0.44384765625,-0.8004150390625,0.398193359375,-294.0,150.0,-149.0,101701.0,-3.130000114440918,0,0
2.018686399998842,0.367340087890625,-0.4505615234375,0.313690185546875,-0.750732421875,0.18310546875,-0.1220703125,0.0,0.4464111328125,-0.80126953125,0.3975830078125,-294.0,150.0,-149.0,101701.0,-3.129000186920166,0,0
2.018739999999525,0.367340087890625,-0.4505615234375,0.313690185546875,-0.750732421875,-0.06103515625,-0.18310546875,-0.1220703125,0.4471435546875,-0.80322265625,0.3968505859375,-294.0,150.0,-149.0,101701.0,-3.129000186920166,0,0
2.0744855999946594,0.367340087890625,-0.4505615234375,0.313690185546875,-0.750732421875,0.1220703125,-0.18310546875,0.1220703125,0.4423828125,-0.800537109375,0.3973388671875,-294.0,150.0,-149.0,101701.0,-3.129000186920166,0,0
2.074543700000504,0.367340087890625,-0.4505615234375,0.313690185546875,-0.750732421875,0.1220703125,0.244140625,0.06103515625,0.443115234375,-0.8009033203125,0.3975830078125,-294.0,150.0,-149.0,101701.0,-3.129000186920166,0,0
2.0745993000018643,0.367340087890625,-0.4505615234375,0.313690185546875,-0.750732421875,0.18310546875,-0.1220703125,0.06103515625,0.4451904296875,-0.80078125,0.3975830078125,-294.0,150.0,-149.0,101701.0,-3.129000186920166,0,0
2.074654500000179,0.367340087890625,-0.4505615234375,0.313690185546875,-0.750732421875,0.1220703125,-0.1220703125,0.0,0.446044921875,-0.80224609375,0.3956298828125,-294.0,150.0,-149.0,101701.0,-3.129000186920166,0,0
2.0747108000068692,0.367340087890625,-0.4505615234375,0.313690185546875,-0.750732421875,0.06103515625,-0.06103515625,0.06103515625,0.4462890625,-0.80029296875,0.3978271484375,-294.0,150.0,-149.0,101701.0,-3.129000186920166,0,0
2.074812100006966,0.36737060546875,-0.4505615234375,0.313690185546875,-0.750732421875,-0.18310546875,-0.244140625,0.06103515625,0.4437255859375,-0.8001708984375,0.397216796875,-294.0,150.0,-149.0,101701.0,-3.129000186920166,0,0
2.074864599999273,0.36737060546875,-0.4505615234375,0.313690185546875,-0.750732421875,-0.18310546875,-0.244140625,0.06103515625,0.4437255859375,-0.8001708984375,0.397216796875,-294.0,150.0,-147.0,101701.0,-3.129000186920166,0,0
2.0749179999984335,0.36767578125,-0.45068359375,0.313507080078125,-0.750579833984375,-0.06103515625,-0.06103515625,0.0,0.44677734375,-0.8016357421875,0.397216796875,-294.0,150.0,-147.0,101701.0,-3.129000186920166,0,0
2.074970100002247,0.36767578125,-0.450653076171875,0.313507080078125,-0.750579833984375,-0.1220703125,-0.06103515625,-0.06103515625,0.4454345703125,-0.80224609375,0.39794921875,-294.0,150.0,-147.0,101701.0,-3.129000186920166,0,0
2.0750236000021687,0.36767578125,-0.450653076171875,0.313507080078125,-0.750579833984375,-0.1220703125,-0.06103515625,-0.06103515625,0.4454345703125,-0.80224609375,0.39794921875,-294.0,150.0,-147.0,101701.0,-3.129000186920166,0,0
2.075075899992953,0.36767578125,-0.450653076171875,0.313507080078125,-0.750579833984375,0.3662109375,-0.1220703125,-0.18310546875,0.4442138671875,-0.80126953125,0.3983154296875,-294.0,150.0,-147.0,101701.0,-3.129000186920166,0,0
2.1421169999957783,0.36767578125,-0.450653076171875,0.313507080078125,-0.750579833984375,0.06103515625,0.0,-0.30517578125,0.4439697265625,-0.8028564453125,0.3988037109375,-294.0,150.0,-147.0,101701.0,-3.129000186920166,0,0
2.142183300005854,0.36767578125,-0.450653076171875,0.313507080078125,-0.7506103515625,-0.244140625,-0.1220703125,0.06103515625,0.44287109375,-0.80078125,0.3975830078125,-294.0,150.0,-147.0,101701.0,-3.129000186920166,0,0
2.142239199994947,0.36767578125,-0.450653076171875,0.313507080078125,-0.7506103515625,0.0,-0.244140625,0.06103515625,0.4447021484375,-0.799560546875,0.3990478515625,-294.0,150.0,-147.0,101701.0,-3.129000186920166,0,0
2.1422936000017216,0.36767578125,-0.450653076171875,0.313507080078125,-0.7506103515625,0.18310546875,0.06103515625,-0.18310546875,0.4456787109375,-0.7998046875,0.3973388671875,-294.0,150.0,-147.0,101701.0,-3.128000259399414,0,0
2.1423469000001205,0.36767578125,-0.45062255859375,0.3134765625,-0.7506103515625,-0.06103515625,-0.244140625,0.0,0.4449462890625,-0.8001708984375,0.39892578125,-294.0,150.0,-147.0,101701.0,-3.128000259399414,0,0
2.142462000003434,0.36767578125,-0.45062255859375,0.3134765625,-0.7506103515625,0.244140625,-0.18310546875,0.0,0.445556640625,-0.802734375,0.3978271484375,-294.0,150.0,-147.0,101701.0,-3.128000259399414,0,0
2.1425226999999722,0.36767578125,-0.45062255859375,0.3134765625,-0.7506103515625,0.244140625,-0.18310546875,0.0,0.445556640625,-0.802734375,0.3978271484375,-294.0,150.0,-147.0,101701.0,-3.128000259399414,0,0
2.142576900005224,0.36767578125,-0.45062255859375,0.3134765625,-0.7506103515625,-0.1220703125,0.06103515625,0.18310546875,0.44482421875,-0.7998046875,0.3966064453125,-294.0,150.0,-147.0,101701.0,-3.128000259399414,0,0
2.142630200003623,0.36767578125,-0.45062255859375,0.3134765625,-0.7506103515625,-0.06103515625,-0.06103515625,-0.244140625,0.4459228515625,-0.800537109375,0.3983154296875,-294.0,150.0,-147.0,101701.0,-3.128000259399414,0,0
2.142683099998976,0.36767578125,-0.45062255859375,0.3134765625,-0.7506103515625,-0.06103515625,-0.06103515625,-0.244140625,0.4459228515625,-0.800537109375,0.3983154296875,-294.0,150.0,-147.0,101701.0,-3.128000259399414,0,0
2.1427357999928063,0.36767578125,-0.45062255859375,0.3134765625,-0.7506103515625,0.06103515625,0.1220703125,-0.06103515625,0.44873046875,-0.8026123046875,0.39697265625,-294.0,150.0,-147.0,101701.0,-3.128000259399414,0,0
2.204029000000446,0.36767578125,-0.45062255859375,0.3134765625,-0.7506103515625,0.06103515625,-0.18310546875,-0.18310546875,0.4466552734375,-0.8033447265625,0.3980712890625,-294.0,150.0,-147.0,101701.0,-3.128000259399414,0,0
2.204091299994616,0.36767578125,-0.45062255859375,0.3134765625,-0.7506103515625,-0.18310546875,-0.244140625,0.244140625,0.445068359375,-0.8038330078125,0.3980712890625,-294.0,150.0,-147.0,101701.0,-3.128000259399414,0,0
2.204144899995299,0.36767578125,-0.45062255859375,0.3134765625,-0.7506103515625,0.30517578125,0.06103515625,-0.18310546875,0.4443359375,-0.8017578125,0.4002685546875,-294.0,150.0,-147.0,101701.0,-3.128000259399414,0,0
2.2041992000013124,0.36767578125,-0.45062255859375,0.3134765625,-0.7506103515625,0.1220703125,-0.06103515625,-0.06103515625,0.4459228515625,-0.802001953125,0.39990234375,-295.0,152.0,-148.0,101701.0,-3.128000259399414,0,0
2.2042839000059757,0.36767578125,-0.45062255859375,0.3134765625,-0.7506103515625,0.1220703125,-0.06103515625,-0.06103515625,0.4459228515625,-0.802001953125,0.39990234375,-295.0,152.0,-148.0,101701.0,-3.128000259399414,0,0
2.20433769999363,0.367889404296875,-0.45068359375,0.3133544921875,-0.750518798828125,0.244140625,-0.1220703125,-0.1220703125,0.4466552734375,-0.7998046875,0.3995361328125,-295.0,152.0,-148.0,101701.0,-3.128000259399414,0,0
2.2043932999949902,0.367889404296875,-0.45068359375,0.3133544921875,-0.750518798828125,-0.06103515625,-0.06103515625,0.06103515625,0.4476318359375,-0.8018798828125,0.3995361328125,-295.0,152.0,-148.0,101701.0,-3.128000259399414,0,0
2.20467419999477,0.367889404296875,-0.45068359375,0.313323974609375,-0.750518798828125,0.18310546875,-0.1220703125,-0.1220703125,0.4482421875,-0.8028564453125,0.3975830078125,-295.0,152.0,-148.0,101701.0,-3.128000259399414,0,0
2.204734400002053,0.367889404296875,-0.45068359375,0.313323974609375,-0.75054931640625,-0.1220703125,0.06103515625,0.0,0.4466552734375,-0.8001708984375,0.3990478515625,-295.0,152.0,-148.0,101701.0,-3.128000259399414,0,0
2.204788599992753,0.367889404296875,-0.45068359375,0.313323974609375,-0.75054931640625,0.1220703125,-0.30517578125,-0.06103515625,0.4459228515625,-0.8018798828125,0.4002685546875,-295.0,152.0,-148.0,101701.0,-3.128000259399414,0,0
2.204841099999612,0.367889404296875,-0.45068359375,0.313323974609375,-0.75054931640625,0.06103515625,0.0,0.06103515625,0.4449462890625,-0.8009033203125,0.4000244140625,-295.0,152.0,-148.0,101701.0,-3.128000259399414,0,0
2.2048955999925965,0.367889404296875,-0.45068359375,0.313323974609375,-0.75054931640625,-0.06103515625,-0.06103515625,0.06103515625,0.4443359375,-0.8004150390625,0.3975830078125,-295.0,152.0,-148.0,101701.0,-3.128000259399414,0,0
2.204947499994887,0.367889404296875,-0.450653076171875,0.313323974609375,-0.75054931640625,0.18310546875,0.18310546875,-0.30517578125,0.4453125,-0.79931640625,0.3990478515625,-295.0,152.0,-148.0,101701.0,-3.128000259399414,0,0
2.27167190000182,0.367889404296875,-0.450653076171875,0.31329345703125,-0.75054931640625,-0.06103515625,0.244140625,0.0,0.4453125,-0.8021240234375,0.398193359375,-295.0,152.0,-148.0,101701.0,-3.129000186920166,0,0
2.271737699993537,0.367889404296875,-0.45068359375,0.31329345703125,-0.75054931640625,-0.18310546875,0.0,0.1220703125,0.447509765625,-0.801025390625,0.3970947265625,-295.0,152.0,-148.0,101701.0,-3.129000186920166,0,0
2.271840700006578,0.367889404296875,-0.45068359375,0.31329345703125,-0.75054931640625,0.244140625,-0.1220703125,-0.06103515625,0.4481201171875,-0.8033447265625,0.396484375,-295.0,152.0,-148.0,101701.0,-3.129000186920166,0,0
2.27191579999635,0.367889404296875,-0.45068359375,0.31329345703125,-0.75054931640625,0.0,-0.06103515625,-0.244140625,0.4449462890625,-0.8037109375,0.39892578125,-295.0,152.0,-148.0,101701.0,-3.129000186920166,0,0
2.271973800001433,0.367889404296875,-0.450653076171875,0.31329345703125,-0.75054931640625,0.0,-0.1220703125,0.0,0.443603515625,-0.802001953125,0.3985595703125,-295.0,152.0,-148.0,101701.0,-3.129000186920166,0,0
2.272996800005785,0.367889404296875,-0.450653076171875,0.31329345703125,-0.75054931640625,-0.18310546875,-0.30517578125,0.0,0.446533203125,-0.8016357421875,0.3988037109375,-295.0,152.0,-148.0,101701.0,-3.129000186920166,0,0
2.2730562999931863,0.367889404296875,-0.450653076171875,0.31329345703125,-0.750579833984375,-0.06103515625,-0.244140625,-0.244140625,0.4459228515625,-0.8017578125,0.3980712890625,-295.0,152.0,-148.0,101701.0,-3.129000186920166,0,0
2.273109999994631,0.367889404296875,-0.450653076171875,0.31329345703125,-0.750579833984375,0.54931640625,-0.1220703125,0.1220703125,0.443115234375,-0.8016357421875,0.398193359375,-295.0,152.0,-148.0,101701.0,-3.129000186920166,0,0
2.2731620999984443,0.367889404296875,-0.450653076171875,0.31329345703125,-0.750579833984375,0.54931640625,-0.1220703125,0.1220703125,0.443115234375,-0.8016357421875,0.398193359375,-295.0,152.0,-148.0,101701.0,-3.129000186920166,0,0
2.2732149999937974,0.367889404296875,-0.450653076171875,0.31329345703125,-0.750579833984375,0.30517578125,-0.1220703125,0.06103515625,0.4456787109375,-0.802001953125,0.399169921875,-295.0,152.0,-150.0,101701.0,-3.129000186920166,0,0
2.2732665999938035,0.368011474609375,-0.45068359375,0.313232421875,-0.750518798828125,0.18310546875,0.0,-0.18310546875,0.445556640625,-0.8011474609375,0.3992919921875,-295.0,152.0,-150.0,101701.0,-3.129000186920166,0,0
2.3326033000048483,0.368011474609375,-0.45068359375,0.313201904296875,-0.75054931640625,0.0,-0.244140625,0.0,0.448486328125,-0.8009033203125,0.3985595703125,-295.0,152.0,-150.0,101701.0,-3.129000186920166,0,0
2.3326647999929264,0.368011474609375,-0.45068359375,0.313201904296875,-0.75054931640625,-0.1220703125,0.0,-0.244140625,0.4451904296875,-0.800537109375,0.3994140625,-295.0,152.0,-150.0,101701.0,-3.129000186920166,0,0
2.33272200000647,0.368011474609375,-0.45068359375,0.313201904296875,-0.75054931640625,0.0,0.0,-0.06103515625,0.4471435546875,-0.8009033203125,0.3992919921875,-295.0,152.0,-150.0,101701.0,-3.129000186920166,0,0
2.3327764999994542,0.368011474609375,-0.45068359375,0.313201904296875,-0.75054931640625,-0.1220703125,-0.06103515625,0.1220703125,0.4456787109375,-0.8016357421875,0.3984375,-295.0,152.0,-150.0,101701.0,-3.129000186920166,0,0
2.332830200000899,0.368011474609375,-0.450653076171875,0.313201904296875,-0.75054931640625,-0.18310546875,-0.244140625,0.18310546875,0.4451904296875,-0.801025390625,0.3984375,-295.0,152.0,-150.0,101701.0,-3.129000186920166,0,0
2.343958900004509,0.368011474609375,-0.450653076171875,0.313201904296875,-0.75054931640625,-0.18310546875,-0.244140625,0.18310546875,0.4451904296875,-0.801025390625,0.3984375,-295.0,152.0,-150.0,101701.0,-3.129000186920166,0,0
2.3440223000070546,0.368011474609375,-0.450653076171875,0.313201904296875,-0.75054931640625,0.1220703125,0.06103515625,-0.18310546875,0.44384765625,-0.800537109375,0.3983154296875,-295.0,152.0,-150.0,101701.0,-3.128000259399414,0,0
2.3440793000045232,0.368011474609375,-0.450653076171875,0.313201904296875,-0.75054931640625,0.30517578125,-0.244140625,-0.06103515625,0.4444580078125,-0.7994384765625,0.4007568359375,-295.0,152.0,-150.0,101701.0,-3.128000259399414,0,0
2.3441345000028377,0.368011474609375,-0.450653076171875,0.313201904296875,-0.75054931640625,-0.30517578125,-0.30517578125,0.0,0.4459228515625,-0.7999267578125,0.399658203125,-295.0,152.0,-150.0,101701.0,-3.128000259399414,0,0
2.344187900001998,0.368011474609375,-0.45062255859375,0.313201904296875,-0.75054931640625,0.06103515625,0.0,-0.30517578125,0.4456787109375,-0.8031005859375,0.398193359375,-295.0,152.0,-150.0,101701.0,-3.128000259399414,0,0
2.34423990000505,0.368011474609375,-0.45062255859375,0.313201904296875,-0.75054931640625,0.30517578125,-0.06103515625,0.18310546875,0.4439697265625,-0.80126953125,0.3974609375,-295.0,152.0,-150.0,101701.0,-3.128000259399414,0,0
2.398491500003729,0.368011474609375,-0.45062255859375,0.313201904296875,-0.750579833984375,0.244140625,0.06103515625,0.06103515625,0.4453125,-0.802001953125,0.399658203125,-295.0,152.0,-150.0,101701.0,-3.128000259399414,0,0
2.39855979999993,0.3680419921875,-0.45062255859375,0.313201904296875,-0.750579833984375,0.3662109375,-0.1220703125,0.1220703125,0.444580078125,-0.8011474609375,0.3992919921875,-295.0,152.0,-150.0,101701.0,-3.128000259399414,0,0
2.398618000006536,0.3680419921875,-0.450592041015625,0.313201904296875,-0.750579833984375,-0.30517578125,0.06103515625,0.06103515625,0.442138671875,-0.8006591796875,0.3997802734375,-295.0,152.0,-150.0,101701.0,-3.128000259399414,0,0
2.3986735999933444,0.3680419921875,-0.450592041015625,0.313201904296875,-0.750579833984375,-0.30517578125,0.06103515625,0.06103515625,0.442138671875,-0.8006591796875,0.3997802734375,-295.0,152.0,-150.0,101701.0,-3.128000259399414,0,0
2.398729699998512,0.3680419921875,-0.450592041015625,0.313201904296875,-0.750579833984375,0.0,-0.06103515625,-0.1220703125,0.4453125,-0.8028564453125,0.397216796875,-295.0,152.0,-150.0,101701.0,-3.128000259399414,0,0
2.398783299999195,0.3680419921875,-0.45062255859375,0.313201904296875,-0.750579833984375,-0.1220703125,-0.18310546875,-0.1220703125,0.4464111328125,-0.8016357421875,0.3963623046875,-294.0,153.0,-150.0,101701.0,-3.128000259399414,0,0
2.3988391000020783,0.368133544921875,-0.450653076171875,0.313140869140625,-0.750518798828125,0.1220703125,-0.244140625,-0.3662109375,0.4462890625,-0.801513671875,0.3963623046875,-294.0,153.0,-150.0,101701.0,-3.128000259399414,0,0
2.3990646000020206,0.368133544921875,-0.450653076171875,0.313140869140625,-0.750518798828125,0.1220703125,-0.18310546875,-0.18310546875,0.445068359375,-0.802001953125,0.3992919921875,-294.0,153.0,-150.0,101701.0,-3.128000259399414,0,0
2.3991280000045663,0.368133544921875,-0.450653076171875,0.313140869140625,-0.750518798828125,-0.06103515625,-0.06103515625,-0.06103515625,0.44482421875,-0.8001708984375,0.397216796875,-294.0,153.0,-150.0,101701.0,-3.128000259399414,0,0
2.3991841999959433,0.368133544921875,-0.450653076171875,0.313140869140625,-0.750518798828125,-0.06103515625,-0.244140625,0.0,0.44482421875,-0.802734375,0.399169921875,-294.0,153.0,-150.0,101701.0,-3.128000259399414,0,0
2.399237000005087,0.368133544921875,-0.450653076171875,0.313140869140625,-0.750518798828125,0.244140625,-0.06103515625,-0.06103515625,0.4466552734375,-0.8016357421875,0.3994140625,-294.0,153.0,-150.0,101701.0,-3.128000259399414,0,0
2.3992910999950254,0.368133544921875,-0.450653076171875,0.313140869140625,-0.750518798828125,-0.30517578125,0.0,0.0,0.446044921875,-0.8013916015625,0.398681640625,-294.0,153.0,-150.0,101701.0,-3.128000259399414,0,0
2.399344299992663,0.368133544921875,-0.450653076171875,0.3131103515625,-0.750518798828125,0.1220703125,0.06103515625,-0.06103515625,0.44677734375,-0.8023681640625,0.4005126953125,-294.0,153.0,-150.0,101701.0,-3.128000259399414,0,0
2.467776599994977,0.368133544921875,-0.450653076171875,0.3131103515625,-0.75054931640625,0.06103515625,-0.06103515625,-0.06103515625,0.4466552734375,-0.8033447265625,0.3980712890625,-294.0,153.0,-150.0,101701.0,-3.130000114440918,0,0
2.4678398999967612,0.368133544921875,-0.450653076171875,0.3131103515625,-0.75054931640625,0.0,-0.06103515625,0.18310546875,0.4456787109375,-0.802978515625,0.39990234375,-294.0,153.0,-150.0,101701.0,-3.130000114440918,0,0
2.46789610000269,0.368133544921875,-0.450653076171875,0.3131103515625,-0.75054931640625,0.1220703125,-0.1220703125,-0.1220703125,0.4451904296875,-0.8009033203125,0.39697265625,-294.0,153.0,-150.0,101701.0,-3.130000114440918,0,0
2.4679509999987204,0.368133544921875,-0.450653076171875,0.3131103515625,-0.75054931640625,0.06103515625,0.06103515625,-0.06103515625,0.446533203125,-0.8013916015625,0.3980712890625,-294.0,153.0,-150.0,101701.0,-3.130000114440918,0,0
2.4680053000047337,0.368133544921875,-0.45062255859375,0.3131103515625,-0.75054931640625,0.06103515625,-0.18310546875,0.1220703125,0.44384765625,-0.8006591796875,0.3975830078125,-294.0,153.0,-150.0,101701.0,-3.130000114440918,0,0
2.469117400003597,0.368133544921875,-0.45062255859375,0.3131103515625,-0.75054931640625,0.06103515625,-0.244140625,0.06103515625,0.447021484375,-0.8013916015625,0.3975830078125,-294.0,153.0,-150.0,101701.0,-3.130000114440918,0,0
2.4691758999979356,0.368133544921875,-0.45062255859375,0.3131103515625,-0.75054931640625,-0.1220703125,-0.06103515625,-0.244140625,0.4447021484375,-0.80419921875,0.3980712890625,-294.0,153.0,-150.0,101701.0,-3.130000114440918,0,0
2.469234400006826,0.368133544921875,-0.45062255859375,0.3131103515625,-0.75054931640625,-0.1220703125,-0.06103515625,-0.244140625,0.4447021484375,-0.80419921875,0.3980712890625,-294.0,153.0,-150.0,101701.0,-3.130000114440918,0,0
2.4693085000035353,0.368133544921875,-0.45062255859375,0.3131103515625,-0.75054931640625,-0.1220703125,-0.244140625,-0.06103515625,0.4444580078125,-0.8001708984375,0.3978271484375,-294.0,153.0,-150.0,101701.0,-3.130000114440918,0,0
2.4693659000040498,0.368133544921875,-0.45062255859375,0.3131103515625,-0.75054931640625,0.0,0.0,-0.1220703125,0.447021484375,-0.8006591796875,0.3990478515625,-294.0,153.0,-150.0,101701.0,-3.130000114440918,0,0
2.469418799999403,0.368133544921875,-0.45062255859375,0.3131103515625,-0.75054931640625,0.0,0.0,-0.1220703125,0.447021484375,-0.8006591796875,0.3990478515625,-294.0,154.0,-152.0,101701.0,-3.130000114440918,0,0
2.5217810000031022,0.3681640625,-0.450592041015625,0.3131103515625,-0.75054931640625,0.06103515625,-0.30517578125,0.06103515625,0.44580078125,-0.8043212890625,0.3983154296875,-294.0,154.0,-152.0,101701.0,-3.130000114440918,0,0
2.521843299997272,0.3681640625,-0.450592041015625,0.3131103515625,-0.75054931640625,0.0,0.0,-0.30517578125,0.443603515625,-0.79931640625,0.397216796875,-294.0,154.0,-152.0,101701.0,-3.130000114440918,0,0
2.5219004999962635,0.3681640625,-0.450592041015625,0.3131103515625,-0.75054931640625,0.0,-0.3662109375,0.0,0.444580078125,-0.8035888671875,0.3978271484375,-294.0,154.0,-152.0,101701.0,-3.130000114440918,0,0
2.521955300006084,0.3681640625,-0.450592041015625,0.3131103515625,-0.75054931640625,0.18310546875,0.0,0.1220703125,0.445556640625,-0.8017578125,0.3975830078125,-294.0,154.0,-152.0,101701.0,-3.130000114440918,0,0
2.5220105000043986,0.3681640625,-0.450592041015625,0.3131103515625,-0.75054931640625,0.18310546875,0.0,0.1220703125,0.445556640625,-0.8017578125,0.3975830078125,-294.0,154.0,-152.0,101701.0,-3.130000114440918,0,0
2.5230529999971623,0.3681640625,-0.450592041015625,0.3131103515625,-0.75054931640625,0.06103515625,0.06103515625,-0.48828125,0.4444580078125,-0.8009033203125,0.398681640625,-294.0,154.0,-152.0,101701.0,-3.130000114440918,0,0
2.52310910000233,0.3681640625,-0.450592041015625,0.3131103515625,-0.75054931640625,0.1220703125,0.0,-0.18310546875,0.445068359375,-0.800537109375,0.402099609375,-294.0,154.0,-152.0,101701.0,-3.130000114440918,0,0
2.523161599994637,0.3681640625,-0.4505615234375,0.3131103515625,-0.75054931640625,0.0,-0.1220703125,0.06103515625,0.44482421875,-0.799560546875,0.3985595703125,-294.0,154.0,-152.0,101701.0,-3.130000114440918,0,0
2.5232141000014963,0.3681640625,-0.4505615234375,0.313079833984375,-0.750579833984375,0.1220703125,-0.18310546875,-0.244140625,0.4449462890625,-0.8017578125,0.3983154296875,-294.0,154.0,-152.0,101701.0,-3.130000114440918,0,0
2.5232672999991337,0.3681640625,-0.4505615234375,0.313079833984375,-0.750579833984375,-0.1220703125,-0.18310546875,-0.06103515625,0.4456787109375,-0.801025390625,0.3995361328125,-294.0,154.0,-152.0,101701.0,-3.130000114440918,0,0
2.5233193000021856,0.3681640625,-0.4505615234375,0.313079833984375,-0.750579833984375,-0.18310546875,0.06103515625,-0.1220703125,0.4473876953125,-0.801513671875,0.39892578125,-294.0,154.0,-152.0,101701.0,-3.130000114440918,0,0
2.584591199993156,0.3681640625,-0.4505615234375,0.313079833984375,-0.750579833984375,-0.06103515625,-0.18310546875,-0.06103515625,0.4482421875,-0.800537109375,0.39892578125,-294.0,154.0,-152.0,101701.0,-3.130000114440918,0,0
2.5846542999934172,0.3681640625,-0.4505615234375,0.313079833984375,-0.750579833984375,0.18310546875,-0.244140625,-0.30517578125,0.4466552734375,-0.7998046875,0.400146484375,-294.0,154.0,-152.0,101701.0,-3.130000114440918,0,0
2.584708900001715,0.3681640625,-0.4505615234375,0.313079833984375,-0.750579833984375,0.18310546875,-0.244140625,-0.30517578125,0.4466552734375,-0.7998046875,0.400146484375,-294.0,154.0,-152.0,101701.0,-3.130000114440918,0,0
2.586564500001259,0.3681640625,-0.4505615234375,0.313079833984375,-0.750579833984375,0.1220703125,-0.18310546875,0.06103515625,0.4449462890625,-0.8023681640625,0.4007568359375,-294.0,154.0,-152.0,101701.0,-3.130000114440918,0,0
2.586650900004315,0.3681640625,-0.450531005859375,0.313079833984375,-0.750579833984375,0.06103515625,0.0,-0.06103515625,0.446533203125,-0.8046875,0.4002685546875,-294.0,154.0,-152.0,101701.0,-3.130000114440918,0,0
2.586707700000261,0.368194580078125,-0.450531005859375,0.313079833984375,-0.750579833984375,0.1220703125,-0.18310546875,0.18310546875,0.4439697265625,-0.8026123046875,0.3985595703125,-294.0,154.0,-152.0,101701.0,-3.130000114440918,0,0
2.586762399994768,0.368194580078125,-0.450531005859375,0.313079833984375,-0.750579833984375,-0.1220703125,-0.244140625,0.06103515625,0.44482421875,-0.8006591796875,0.399169921875,-293.0,155.0,-152.0,101701.0,-3.130000114440918,0,0
2.587000800005626,0.3682861328125,-0.4505615234375,0.313018798828125,-0.75054931640625,0.06103515625,-0.06103515625,-0.06103515625,0.44482421875,-0.8026123046875,0.400146484375,-293.0,155.0,-152.0,101701.0,-3.130000114440918,0,0
2.58705899999768,0.3682861328125,-0.4505615234375,0.313018798828125,-0.75054931640625,0.06103515625,-0.06103515625,-0.244140625,0.4468994140625,-0.802978515625,0.3983154296875,-293.0,155.0,-152.0,101701.0,-3.130000114440918,0,0
2.5871105999976862,0.3682861328125,-0.4505615234375,0.313018798828125,-0.75054931640625,0.42724609375,-0.18310546875,-0.30517578125,0.4437255859375,-0.802001953125,0.398681640625,-293.0,155.0,-152.0,101701.0,-3.130000114440918,0,0
2.5871633000060683,0.3682861328125,-0.4505615234375,0.313018798828125,-0.75054931640625,-0.1220703125,0.06103515625,-0.1220703125,0.446044921875,-0.8023681640625,0.4005126953125,-293.0,155.0,-152.0,101701.0,-3.130000114440918,0,0
2.587217699998291,0.3682861328125,-0.4505615234375,0.313018798828125,-0.75054931640625,-0.1220703125,0.06103515625,-0.18310546875,0.4461669921875,-0.8011474609375,0.399169921875,-293.0,155.0,-152.0,101701.0,-3.130000114440918,0,0
2.5872700000036275,0.3682861328125,-0.4505615234375,0.313018798828125,-0.75054931640625,-0.1220703125,0.06103515625,-0.18310546875,0.4461669921875,-0.8011474609375,0.399169921875,-293.0,155.0,-152.0,101701.0,-3.130000114440918,0,0
2.6541972999984864,0.3682861328125,-0.4505615234375,0.31298828125,-0.75054931640625,0.42724609375,-0.1220703125,-0.18310546875,0.445068359375,-0.8004150390625,0.3990478515625,-293.0,155.0,-152.0,101701.0,-3.130000114440918,0,0
2.654261100004078,0.3682861328125,-0.4505615234375,0.31298828125,-0.75054931640625,-0.06103515625,-0.18310546875,0.244140625,0.445068359375,-0.798583984375,0.4002685546875,-293.0,155.0,-152.0,101701.0,-3.133000135421753,0,0
2.654317299995455,0.3682861328125,-0.450531005859375,0.31298828125,-0.750579833984375,0.06103515625,-0.30517578125,0.06103515625,0.4459228515625,-0.79931640625,0.401611328125,-293.0,155.0,-152.0,101701.0,-3.133000135421753,0,0
2.6543958999973256,0.368316650390625,-0.450531005859375,0.31298828125,-0.750579833984375,0.244140625,-0.06103515625,-0.06103515625,0.44287109375,-0.801025390625,0.3990478515625,-293.0,155.0,-152.0,101701.0,-3.133000135421753,0,0
2.6546151999937138,0.368316650390625,-0.450531005859375,0.31298828125,-0.750579833984375,-0.1220703125,-0.3662109375,-0.06103515625,0.4459228515625,-0.8016357421875,0.3994140625,-293.0,155.0,-152.0,101701.0,-3.133000135421753,0,0
2.6546907000010833,0.368316650390625,-0.450531005859375,0.31298828125,-0.750579833984375,0.3662109375,0.06103515625,-0.1220703125,0.4447021484375,-0.80126953125,0.4007568359375,-293.0,155.0,-152.0,101701.0,-3.133000135421753,0,0
2.65481870000076,0.368316650390625,-0.450531005859375,0.31298828125,-0.750579833984375,0.3662109375,0.06103515625,-0.1220703125,0.4447021484375,-0.80126953125,0.4007568359375,-293.0,155.0,-152.0,101701.0,-3.133000135421753,0,0
2.6548795999988215,0.368316650390625,-0.45050048828125,0.312957763671875,-0.750579833984375,-0.18310546875,-0.18310546875,-0.06103515625,0.446533203125,-0.802734375,0.39892578125,-293.0,155.0,-152.0,101701.0,-3.133000135421753,0,0
2.6549819000065327,0.368316650390625,-0.45050048828125,0.312957763671875,-0.750579833984375,-0.06103515625,-0.1220703125,-0.06103515625,0.4442138671875,-0.802001953125,0.399658203125,-293.0,155.0,-152.0,101701.0,-3.133000135421753,0,0
2.655037899996387,0.368316650390625,-0.45050048828125,0.312957763671875,-0.750579833984375,0.0,0.06103515625,0.06103515625,0.4464111328125,-0.801025390625,0.3988037109375,-293.0,155.0,-152.0,101701.0,-3.133000135421753,0,0
2.6551049999980023,0.368316650390625,-0.45050048828125,0.312957763671875,-0.750579833984375,0.1220703125,-0.18310546875,-0.18310546875,0.4464111328125,-0.804443359375,0.3994140625,-293.0,155.0,-152.0,101701.0,-3.133000135421753,0,0
2.717638000001898,0.3685302734375,-0.450592041015625,0.312835693359375,-0.75048828125,0.1220703125,0.06103515625,0.06103515625,0.4476318359375,-0.80126953125,0.3984375,-294.0,155.0,-150.0,101701.0,-3.133000135421753,0,0
2.7177036000066437,0.3685302734375,-0.450592041015625,0.312835693359375,-0.75048828125,0.06103515625,-0.06103515625,0.06103515625,0.446044921875,-0.8016357421875,0.4000244140625,-294.0,155.0,-150.0,101701.0,-3.133000135421753,0,0
2.7177608000056352,0.3685302734375,-0.450592041015625,0.312835693359375,-0.75048828125,0.18310546875,0.06103515625,-0.06103515625,0.443115234375,-0.7998046875,0.3985595703125,-294.0,155.0,-150.0,101701.0,-3.133000135421753,0,0
2.7178152999986196,0.3685302734375,-0.450592041015625,0.312835693359375,-0.75048828125,0.18310546875,0.06103515625,-0.06103515625,0.443115234375,-0.7998046875,0.3985595703125,-294.0,155.0,-150.0,101701.0,-3.133000135421753,0,0
2.71787089999998,0.3685302734375,-0.4505615234375,0.312835693359375,-0.75048828125,-0.06103515625,0.06103515625,-0.06103515625,0.4456787109375,-0.803466796875,0.3985595703125,-294.0,155.0,-150.0,101701.0,-3.133000135421753,0,0
2.718714999995427,0.3685302734375,-0.4505615234375,0.312835693359375,-0.750518798828125,0.244140625,-0.06103515625,-0.18310546875,0.4461669921875,-0.800048828125,0.400634765625,-294.0,155.0,-150.0,101701.0,-3.133000135421753,0,0
2.718793399995775,0.3685302734375,-0.4505615234375,0.31280517578125,-0.750518798828125,-0.1220703125,-0.06103515625,-0.06103515625,0.4442138671875,-0.7994384765625,0.39990234375,-294.0,155.0,-150.0,101701.0,-3.133000135421753,0,0
2.7188517000031425,0.3685302734375,-0.4505615234375,0.31280517578125,-0.750518798828125,0.244140625,0.06103515625,-0.18310546875,0.4473876953125,-0.802001953125,0.3990478515625,-294.0,155.0,-150.0,101701.0,-3.133000135421753,0,0
2.7189102999982424,0.3685302734375,-0.4505615234375,0.31280517578125,-0.750518798828125,-0.1220703125,-0.1220703125,0.1220703125,0.447998046875,-0.799560546875,0.3995361328125,-294.0,155.0,-150.0,101701.0,-3.133000135421753,0,0
2.718969299996388,0.3685302734375,-0.4505615234375,0.31280517578125,-0.750518798828125,-0.1220703125,-0.1220703125,0.1220703125,0.447998046875,-0.799560546875,0.3995361328125,-294.0,155.0,-150.0,101701.0,-3.130000114440918,0,0
2.719022399993264,0.3685302734375,-0.4505615234375,0.31280517578125,-0.750518798828125,0.0,0.0,0.0,0.444580078125,-0.803466796875,0.400634765625,-294.0,155.0,-150.0,101701.0,-3.130000114440918,0,0
2.719076099994709,0.3685302734375,-0.4505615234375,0.31280517578125,-0.750518798828125,0.0,-0.1220703125,0.18310546875,0.44580078125,-0.802978515625,0.3997802734375,-294.0,155.0,-150.0,101701.0,-3.130000114440918,0,0
2.784599000005983,0.3685302734375,-0.4505615234375,0.31280517578125,-0.750518798828125,0.0,-0.1220703125,0.18310546875,0.44580078125,-0.802978515625,0.3997802734375,-294.0,155.0,-150.0,101701.0,-3.130000114440918,0,0
2.7846687999990536,0.3685302734375,-0.450531005859375,0.31280517578125,-0.750518798828125,0.30517578125,-0.1220703125,0.0,0.4449462890625,-0.802978515625,0.400634765625,-294.0,155.0,-150.0,101701.0,-3.130000114440918,0,0
2.784725999998045,0.3685302734375,-0.450531005859375,0.312774658203125,-0.750518798828125,-0.06103515625,-0.1220703125,-0.1220703125,0.4456787109375,-0.8021240234375,0.4013671875,-294.0,155.0,-150.0,101701.0,-3.130000114440918,0,0
2.7847813999978825,0.3685302734375,-0.450531005859375,0.312774658203125,-0.75054931640625,0.06103515625,-0.1220703125,0.1220703125,0.4478759765625,-0.800537109375,0.39892578125,-294.0,155.0,-150.0,101701.0,-3.130000114440918,0,0
2.784835500002373,0.3685302734375,-0.450531005859375,0.312774658203125,-0.75054931640625,0.18310546875,-0.06103515625,-0.30517578125,0.443603515625,-0.8004150390625,0.4014892578125,-294.0,155.0,-150.0,101701.0,-3.130000114440918,0,0
2.7848921999975573,0.3685302734375,-0.450531005859375,0.312774658203125,-0.75054931640625,-0.1220703125,-0.244140625,0.06103515625,0.445556640625,-0.80126953125,0.3984375,-294.0,155.0,-150.0,101701.0,-3.130000114440918,0,0
2.7849629999982426,0.3685302734375,-0.450531005859375,0.312774658203125,-0.75054931640625,0.0,-0.1220703125,-0.244140625,0.445068359375,-0.802001953125,0.3983154296875,-294.0,155.0,-150.0,101701.0,-3.130000114440918,0,0
2.785015999994357,0.3685302734375,-0.450531005859375,0.312774658203125,-0.75054931640625,-0.06103515625,0.0,0.0,0.4437255859375,-0.80126953125,0.400146484375,-293.0,153.0,-150.0,101701.0,-3.130000114440918,0,0
2.785068900004262,0.3685302734375,-0.450531005859375,0.312774658203125,-0.75054931640625,0.30517578125,0.18310546875,0.1220703125,0.4451904296875,-0.802734375,0.3994140625,-293.0,153.0,-150.0,101701.0,-3.130000114440918,0,0
2.785122400004184,0.3685302734375,-0.450531005859375,0.312774658203125,-0.75054931640625,0.1220703125,0.0,0.0,0.446044921875,-0.79833984375,0.40087890625,-293.0,153.0,-150.0,101701.0,-3.130000114440918,0,0
2.78517550000106,0.3685302734375,-0.450531005859375,0.312774658203125,-0.75054931640625,0.1220703125,0.0,0.0,0.446044921875,-0.79833984375,0.40087890625,-293.0,153.0,-150.0,101701.0,-3.130000114440918,0,0
2.785228599997936,0.368560791015625,-0.45050048828125,0.312774658203125,-0.75054931640625,0.06103515625,0.06103515625,-0.18310546875,0.444091796875,-0.80078125,0.39990234375,-293.0,153.0,-150.0,101701.0,-3.130000114440918,0,0
2.842578499999945,0.368560791015625,-0.45050048828125,0.312774658203125,-0.750579833984375,0.1220703125,-0.1220703125,-0.06103515625,0.4451904296875,-0.802490234375,0.3988037109375,-293.0,153.0,-150.0,101701.0,-3.130000114440918,0,0
2.8426401000033366,0.368560791015625,-0.45050048828125,0.312774658203125,-0.750579833984375,0.244140625,-0.244140625,-0.1220703125,0.44677734375,-0.801513671875,0.3994140625,-293.0,153.0,-150.0,101701.0,-3.130000114440918,0,0
2.842697100000805,0.368560791015625,-0.45050048828125,0.312744140625,-0.750579833984375,0.0,-0.244140625,0.06103515625,0.4473876953125,-0.80126953125,0.3988037109375,-293.0,153.0,-150.0,101701.0,-3.130000114440918,0,0
2.8427537999959895,0.368560791015625,-0.45050048828125,0.312744140625,-0.750579833984375,0.244140625,-0.1220703125,0.06103515625,0.4476318359375,-0.802978515625,0.399169921875,-293.0,153.0,-150.0,101701.0,-3.130000114440918,0,0
2.842811199996504,0.368560791015625,-0.45050048828125,0.312744140625,-0.750579833984375,0.30517578125,-0.06103515625,0.0,0.44775390625,-0.8026123046875,0.399169921875,-293.0,153.0,-150.0,101701.0,-3.130000114440918,0,0
2.8428807000018423,0.368560791015625,-0.45050048828125,0.312744140625,-0.750579833984375,0.30517578125,-0.06103515625,0.0,0.44775390625,-0.8026123046875,0.399169921875,-293.0,153.0,-150.0,101701.0,-3.130000114440918,0,0
2.842934800006333,0.368560791015625,-0.450469970703125,0.312744140625,-0.750579833984375,0.1220703125,0.06103515625,-0.06103515625,0.446044921875,-0.8006591796875,0.3997802734375,-293.0,153.0,-150.0,101701.0,-3.130000114440918,0,0
2.8429883000062546,0.368560791015625,-0.450469970703125,0.312744140625,-0.750579833984375,-0.1220703125,-0.06103515625,-0.1220703125,0.444580078125,-0.8006591796875,0.3994140625,-293.0,153.0,-150.0,101701.0,-3.130000114440918,0,0
2.8431210999988252,0.368560791015625,-0.450469970703125,0.312744140625,-0.750579833984375,0.06103515625,-0.1220703125,-0.30517578125,0.4456787109375,-0.801025390625,0.3994140625,-293.0,153.0,-150.0,101701.0,-3.130000114440918,0,0
2.843203900003573,0.368560791015625,-0.450469970703125,0.312744140625,-0.750579833984375,0.18310546875,-0.244140625,-0.1220703125,0.445068359375,-0.80126953125,0.3983154296875,-293.0,153.0,-150.0,101701.0,-3.130000114440918,0,0
2.843264700000873,0.368560791015625,-0.450469970703125,0.312744140625,-0.750579833984375,-0.1220703125,-0.06103515625,-0.06103515625,0.4425048828125,-0.8006591796875,0.3992919921875,-293.0,153.0,-150.0,101701.0,-3.130000114440918,0,0
2.909603899999638,0.368560791015625,-0.450469970703125,0.312744140625,-0.750579833984375,0.0,-0.06103515625,-0.1220703125,0.446533203125,-0.7999267578125,0.400634765625,-293.0,153.0,-150.0,101701.0,-3.13100004196167,0,0
2.909666199993808,0.368560791015625,-0.450469970703125,0.312744140625,-0.750579833984375,0.0,-0.18310546875,0.18310546875,0.4443359375,-0.7996826171875,0.3995361328125,-292.0,153.0,-150.0,101701.0,-3.13100004196167,0,0
2.9097212000051513,0.368560791015625,-0.450469970703125,0.312744140625,-0.750579833984375,0.0,-0.18310546875,0.18310546875,0.4443359375,-0.7996826171875,0.3995361328125,-292.0,153.0,-150.0,101701.0,-3.13100004196167,0,0
2.909775799998897,0.368560791015625,-0.450469970703125,0.312744140625,-0.750579833984375,0.0,-0.244140625,-0.1220703125,0.4462890625,-0.80419921875,0.400634765625,-292.0,153.0,-150.0,101701.0,-3.13100004196167,0,0
2.909830399992643,0.368560791015625,-0.450469970703125,0.312744140625,-0.7506103515625,0.0,0.0,0.0,0.4447021484375,-0.8001708984375,0.4000244140625,-292.0,153.0,-150.0,101701.0,-3.13100004196167,0,0
2.9099524000048405,0.368560791015625,-0.450439453125,0.312713623046875,-0.7506103515625,0.06103515625,-0.1220703125,-0.18310546875,0.4454345703125,-0.800048828125,0.3990478515625,-292.0,153.0,-150.0,101701.0,-3.13100004196167,0,0
2.9100137000059476,0.368560791015625,-0.450439453125,0.312713623046875,-0.7506103515625,0.06103515625,-0.1220703125,-0.18310546875,0.4454345703125,-0.800048828125,0.3990478515625,-292.0,153.0,-150.0,101701.0,-3.13100004196167,0,0
