Time stamp(sec),quaternion_0,quaternion_1,quaternion_2,quaternion_3,roll_angular_rate,pitch_angular_rate,yaw_angular_rate,acc_X,acc_Y,acc_Z,mag_X,mag_Y,mag_Z,pressure,altitude
176.505997,0.055023193359375,-0.622711181640625,0.779022216796875,0.04742431640625,0.6103515625,-0.67138671875,0.79345703125,-0.1429443359375,-0.0069580078125,-0.9755859375,-109.0,37.0,106.0,101240.0,0.703000009059906,0,0
176.512996,0.0550537109375,-0.622711181640625,0.779022216796875,0.04742431640625,-0.1220703125,-0.54931640625,0.0,-0.14404296875,0.0064697265625,-0.970947265625,-109.0,37.0,106.0,101240.0,0.703000009059906,0,0
176.519996,0.0550537109375,-0.622711181640625,0.779052734375,0.04736328125,1.3427734375,0.8544921875,0.42724609375,-0.1429443359375,0.0125732421875,-0.9598388671875,-109.0,37.0,106.0,101240.0,0.703000009059906,0,0
176.526028,0.0550537109375,-0.622711181640625,0.779052734375,0.04736328125,1.3427734375,0.8544921875,0.42724609375,-0.1429443359375,0.0125732421875,-0.9598388671875,-109.0,37.0,106.0,101240.0,0.703000009059906,0,0
176.532997,0.055084228515625,-0.622711181640625,0.779022216796875,0.047576904296875,0.06103515625,-0.8544921875,-0.06103515625,-0.1563720703125,0.0218505859375,-0.9705810546875,-109.0,37.0,106.0,101240.0,0.703000009059906,0,0
176.539996,0.0550537109375,-0.62274169921875,0.779022216796875,0.047576904296875,-2.74658203125,0.3662109375,-0.06103515625,-0.1414794921875,-0.0140380859375,-0.9652099609375,-109.0,37.0,106.0,101240.0,0.703000009059906,0,0
176.546996,0.055145263671875,-0.622711181640625,0.779052734375,0.0474853515625,-0.732421875,-0.06103515625,1.0986328125,-0.1373291015625,-0.02001953125,-0.980224609375,-109.0,37.0,106.0,101240.0,0.703000009059906,0,0
176.553995,0.05511474609375,-0.622711181640625,0.779052734375,0.047515869140625,0.0,-0.30517578125,-0.06103515625,-0.140625,0.011474609375,-0.9632568359375,-109.0,37.0,106.0,101240.0,0.703000009059906,0,0
176.560996,0.05517578125,-0.622711181640625,0.779052734375,0.0474853515625,-0.54931640625,-0.9765625,-0.1220703125,-0.143798828125,0.0023193359375,-0.97314453125,-109.0,37.0,106.0,101240.0,0.703000009059906,0,0
176.567995,0.05517578125,-0.6226806640625,0.779052734375,0.047454833984375,1.46484375,-0.06103515625,0.48828125,-0.1439208984375,0.0115966796875,-0.955078125,-109.0,37.0,106.0,101240.0,0.703000009059906,0,0
176.574994,0.0550537109375,-0.622711181640625,0.779022216796875,0.047637939453125,-6.4697265625,-0.18310546875,-0.18310546875,-0.143310546875,0.0037841796875,-0.97509765625,-109.0,37.0,106.0,101240.0,0.703000009059906,0,0
176.581998,0.05511474609375,-0.622711181640625,0.779022216796875,0.047607421875,2.0751953125,0.06103515625,-0.732421875,-0.1368408203125,0.0184326171875,-0.960205078125,-109.0,37.0,106.0,101240.0,0.703000009059906,0,0
176.588998,0.055206298828125,-0.62164306640625,0.779876708984375,0.04754638671875,0.9765625,-1.15966796875,0.54931640625,-0.1373291015625,-0.0072021484375,-0.9761962890625,-109.0,36.0,105.0,101240.0,0.703000009059906,0,0
176.609996,0.055145263671875,-0.62164306640625,0.77984619140625,0.0477294921875,-1.89208984375,-1.03759765625,-0.6103515625,-0.15087890625,0.0235595703125,-0.9754638671875,-109.0,36.0,105.0,101240.0,0.703000009059906,0,0
176.616028,0.055145263671875,-0.62164306640625,0.77984619140625,0.0477294921875,-1.89208984375,-1.03759765625,-0.6103515625,-0.15087890625,0.0235595703125,-0.9754638671875,-109.0,36.0,105.0,101240.0,0.703000009059906,0,0
176.622997,0.055145263671875,-0.621673583984375,0.77984619140625,0.047637939453125,-0.42724609375,-0.6103515625,-0.54931640625,-0.1414794921875,0.01318359375,-0.9677734375,-109.0,36.0,105.0,101240.0,0.703000009059906,0,0
176.629996,0.055206298828125,-0.62164306640625,0.779876708984375,0.04754638671875,3.0517578125,0.1220703125,0.48828125,-0.139404296875,0.0054931640625,-0.9659423828125,-109.0,36.0,105.0,101240.0,0.703000009059906,0,0
176.636996,0.055206298828125,-0.62164306640625,0.779876708984375,0.047515869140625,-1.52587890625,-0.30517578125,0.91552734375,-0.136962890625,-0.0181884765625,-0.98193359375,-109.0,36.0,105.0,101240.0,0.7070000171661377,0,0
176.643995,0.05517578125,-0.62164306640625,0.779876708984375,0.0474853515625,-0.732421875,-0.42724609375,0.3662109375,-0.139404296875,-0.0008544921875,-0.9766845703125,-109.0,36.0,105.0,101240.0,0.7070000171661377,0,0
176.650996,0.05517578125,-0.62164306640625,0.779876708984375,0.04742431640625,0.6103515625,-0.1220703125,0.42724609375,-0.1353759765625,-0.004638671875,-0.9688720703125,-109.0,36.0,105.0,101240.0,0.7070000171661377,0,0
176.657995,0.055145263671875,-0.62164306640625,0.779876708984375,0.0474853515625,-0.8544921875,0.18310546875,-0.67138671875,-0.14599609375,0.0263671875,-0.9599609375,-109.0,36.0,105.0,101240.0,0.7070000171661377,0,0
176.664994,0.055145263671875,-0.62164306640625,0.779876708984375,0.047454833984375,0.54931640625,0.6103515625,-0.3662109375,-0.1409912109375,0.0167236328125,-0.964599609375,-109.0,36.0,105.0,101240.0,0.7070000171661377,0,0
176.671998,0.05511474609375,-0.62164306640625,0.7799072265625,0.047454833984375,-0.244140625,-0.06103515625,0.06103515625,-0.1405029296875,0.01220703125,-0.96875,-109.0,36.0,105.0,101240.0,0.7070000171661377,0,0
176.692996,0.055145263671875,-0.620574951171875,0.780731201171875,0.047393798828125,-0.3662109375,-0.79345703125,0.18310546875,-0.144775390625,0.0054931640625,-0.96826171875,-108.0,37.0,104.0,101240.0,0.7070000171661377,0,0
176.699996,0.05517578125,-0.620574951171875,0.780731201171875,0.047393798828125,-0.732421875,-0.67138671875,-0.54931640625,-0.1484375,0.0167236328125,-0.9683837890625,-108.0,37.0,104.0,101240.0,0.7070000171661377,0,0
176.706995,0.055206298828125,-0.620574951171875,0.780731201171875,0.047393798828125,0.3662109375,-0.6103515625,0.42724609375,-0.147216796875,0.006103515625,-0.968017578125,-108.0,37.0,104.0,101240.0,0.7070000171661377,0,0
176.713028,0.055206298828125,-0.620574951171875,0.780731201171875,0.047393798828125,0.3662109375,-0.6103515625,0.42724609375,-0.147216796875,0.006103515625,-0.968017578125,-108.0,37.0,104.0,101240.0,0.7070000171661377,0,0
176.719996,0.05523681640625,-0.620574951171875,0.780731201171875,0.047454833984375,-0.06103515625,-0.1220703125,-0.244140625,-0.1494140625,0.0108642578125,-0.9681396484375,-108.0,37.0,104.0,101240.0,0.7070000171661377,0,0
176.726996,0.055267333984375,-0.620574951171875,0.780731201171875,0.047515869140625,-0.06103515625,0.06103515625,0.244140625,-0.1484375,0.0078125,-0.9678955078125,-108.0,37.0,104.0,101240.0,0.7070000171661377,0,0
176.733996,0.0552978515625,-0.620574951171875,0.780731201171875,0.047515869140625,-0.3662109375,-0.06103515625,0.18310546875,-0.148193359375,0.0101318359375,-0.96728515625,-108.0,37.0,104.0,101240.0,0.7050000429153442,0,0
176.741,0.0552978515625,-0.620574951171875,0.780731201171875,0.04754638671875,-0.06103515625,0.1220703125,-0.1220703125,-0.1502685546875,0.01171875,-0.9681396484375,-108.0,37.0,104.0,101240.0,0.7050000429153442,0,0
176.747999,0.0552978515625,-0.62054443359375,0.780731201171875,0.047607421875,0.06103515625,-0.1220703125,0.18310546875,-0.145751953125,0.0057373046875,-0.9696044921875,-108.0,37.0,104.0,101240.0,0.7050000429153442,0,0
176.754999,0.0552978515625,-0.62054443359375,0.780731201171875,0.047607421875,0.42724609375,-0.244140625,0.244140625,-0.1439208984375,0.011474609375,-0.9698486328125,-108.0,37.0,104.0,101240.0,0.7050000429153442,0,0
176.761998,0.0552978515625,-0.62054443359375,0.780731201171875,0.047637939453125,-0.18310546875,-0.3662109375,-0.30517578125,-0.1455078125,0.0123291015625,-0.96923828125,-108.0,37.0,104.0,101240.0,0.7050000429153442,0,0
176.768998,0.0552978515625,-0.62054443359375,0.780731201171875,0.04766845703125,-0.48828125,-0.30517578125,-0.8544921875,-0.1483154296875,0.024169921875,-0.967041015625,-108.0,37.0,104.0,101240.0,0.7050000429153442,0,0
176.775997,0.0552978515625,-0.62054443359375,0.780731201171875,0.047637939453125,-0.1220703125,0.54931640625,0.48828125,-0.1397705078125,-0.0089111328125,-0.9737548828125,-108.0,37.0,104.0,101240.0,0.7050000429153442,0,0
176.782996,0.0552978515625,-0.62054443359375,0.780731201171875,0.047637939453125,-0.67138671875,-0.48828125,-0.54931640625,-0.1435546875,0.01513671875,-0.9710693359375,-108.0,37.0,104.0,101240.0,0.7050000429153442,0,0
176.789996,0.0552978515625,-0.61962890625,0.781463623046875,0.04754638671875,-0.91552734375,-0.1220703125,-0.42724609375,-0.140625,0.016357421875,-0.9718017578125,-110.0,37.0,103.0,101240.0,0.7050000429153442,0,0
176.796996,0.055328369140625,-0.619659423828125,0.781463623046875,0.047454833984375,-0.48828125,-0.48828125,0.54931640625,-0.135009765625,-0.017822265625,-0.9749755859375,-110.0,37.0,103.0,101240.0,0.7050000429153442,0,0
176.803028,0.055328369140625,-0.619659423828125,0.781463623046875,0.047454833984375,-0.48828125,-0.48828125,0.54931640625,-0.135009765625,-0.017822265625,-0.9749755859375,-110.0,37.0,103.0,101240.0,0.7050000429153442,0,0
176.809996,0.05523681640625,-0.619659423828125,0.781463623046875,0.04736328125,0.0,0.67138671875,-0.18310546875,-0.1412353515625,0.0140380859375,-0.9742431640625,-110.0,37.0,103.0,101240.0,0.7050000429153442,0,0
176.816996,0.055206298828125,-0.619659423828125,0.78143310546875,0.04742431640625,-1.64794921875,-1.0986328125,-0.79345703125,-0.138427734375,0.0128173828125,-0.9786376953125,-110.0,37.0,103.0,101240.0,0.7050000429153442,0,0
176.823995,0.055206298828125,-0.61968994140625,0.78143310546875,0.04736328125,-0.732421875,-0.42724609375,-0.30517578125,-0.1427001953125,0.0096435546875,-0.964111328125,-110.0,37.0,103.0,101240.0,0.7050000429153442,0,0
176.830996,0.055206298828125,-0.61968994140625,0.781463623046875,0.04736328125,0.30517578125,-0.1220703125,-0.3662109375,-0.1402587890625,0.01220703125,-0.96142578125,-110.0,37.0,103.0,101240.0,0.7050000429153442,0,0
176.837995,0.05523681640625,-0.61968994140625,0.78143310546875,0.047332763671875,0.1220703125,-0.244140625,0.67138671875,-0.137939453125,-0.0106201171875,-0.976806640625,-110.0,37.0,103.0,101240.0,0.7070000171661377,0,0
176.844994,0.055267333984375,-0.61968994140625,0.78143310546875,0.047271728515625,0.06103515625,0.6103515625,0.67138671875,-0.1451416015625,0.007080078125,-0.966552734375,-110.0,37.0,103.0,101240.0,0.7070000171661377,0,0
176.851998,0.055206298828125,-0.61968994140625,0.781463623046875,0.047210693359375,0.6103515625,1.3427734375,0.1220703125,-0.1422119140625,0.008056640625,-0.966796875,-110.0,37.0,103.0,101240.0,0.7070000171661377,0,0
176.872996,0.05517578125,-0.619720458984375,0.78143310546875,0.04718017578125,-1.28173828125,-0.3662109375,0.244140625,-0.153076171875,0.00732421875,-0.96240234375,-110.0,37.0,103.0,101240.0,0.7070000171661377,0,0
176.879996,0.05511474609375,-0.619720458984375,0.78143310546875,0.047088623046875,-0.1220703125,1.77001953125,0.30517578125,-0.1409912109375,-0.001953125,-0.9781494140625,-110.0,37.0,103.0,101240.0,0.7070000171661377,0,0
176.886995,0.055145263671875,-0.61968994140625,0.781463623046875,0.047088623046875,0.8544921875,-0.91552734375,0.9765625,-0.14453125,-0.0101318359375,-0.9876708984375,-110.0,37.0,103.0,101240.0,0.7070000171661377,0,0
176.893996,0.055206298828125,-0.6187744140625,0.782196044921875,0.046844482421875,0.6103515625,0.8544921875,0.6103515625,-0.1383056640625,-0.01318359375,-0.972412109375,-110.0,36.0,101.0,101240.0,0.7070000171661377,0,0
176.900027,0.055206298828125,-0.6187744140625,0.782196044921875,0.046844482421875,0.6103515625,0.8544921875,0.6103515625,-0.1383056640625,-0.01318359375,-0.972412109375,-110.0,36.0,101.0,101240.0,0.7070000171661377,0,0
176.906996,0.05517578125,-0.618743896484375,0.7822265625,0.046875,0.0,0.18310546875,0.54931640625,-0.14208984375,0.0030517578125,-0.9735107421875,-110.0,36.0,101.0,101240.0,0.7070000171661377,0,0
176.913995,0.055145263671875,-0.6187744140625,0.782196044921875,0.046966552734375,-1.40380859375,-0.91552734375,-0.67138671875,-0.1416015625,0.021728515625,-0.9705810546875,-110.0,36.0,101.0,101240.0,0.7070000171661377,0,0
176.920996,0.05511474609375,-0.6187744140625,0.782196044921875,0.046966552734375,-0.244140625,0.9765625,-0.30517578125,-0.1492919921875,0.005615234375,-0.9774169921875,-110.0,36.0,101.0,101240.0,0.7070000171661377,0,0
176.927995,0.055145263671875,-0.6187744140625,0.782196044921875,0.047027587890625,-0.48828125,0.0,-0.42724609375,-0.143310546875,0.0125732421875,-0.972412109375,-110.0,36.0,101.0,101240.0,0.7070000171661377,0,0
176.934994,0.055145263671875,-0.6187744140625,0.782196044921875,0.04705810546875,-0.91552734375,-1.46484375,0.1220703125,-0.1444091796875,-0.00048828125,-0.969970703125,-110.0,36.0,101.0,101240.0,0.7050000429153442,0,0
176.955997,0.055145263671875,-0.6187744140625,0.782196044921875,0.0469970703125,-0.18310546875,-1.0986328125,0.67138671875,-0.14013671875,0.003173828125,-0.9654541015625,-110.0,36.0,101.0,101240.0,0.7050000429153442,0,0
176.962996,0.055084228515625,-0.618743896484375,0.7822265625,0.04681396484375,0.3662109375,0.8544921875,0.91552734375,-0.1363525390625,-0.00830078125,-0.974853515625,-110.0,36.0,101.0,101240.0,0.7050000429153442,0,0
176.969996,0.055084228515625,-0.618743896484375,0.7822265625,0.046844482421875,-0.18310546875,-0.3662109375,-0.30517578125,-0.14306640625,0.009521484375,-0.975341796875,-110.0,36.0,101.0,101240.0,0.7050000429153442,0,0
176.976995,0.0550537109375,-0.618743896484375,0.7822265625,0.046844482421875,-0.8544921875,-0.9765625,-0.79345703125,-0.1376953125,0.011962890625,-0.9736328125,-110.0,36.0,101.0,101240.0,0.7050000429153442,0,0
176.983996,0.055084228515625,-0.618743896484375,0.7822265625,0.04681396484375,-0.42724609375,-1.40380859375,0.06103515625,-0.135009765625,-0.0054931640625,-0.9674072265625,-110.0,36.0,101.0,101240.0,0.7050000429153442,0,0
176.990027,0.055084228515625,-0.618743896484375,0.7822265625,0.04681396484375,-0.42724609375,-1.40380859375,0.06103515625,-0.135009765625,-0.0054931640625,-0.9674072265625,-110.0,36.0,101.0,101240.0,0.7050000429153442,0,0
176.996996,0.05511474609375,-0.618011474609375,0.782806396484375,0.04681396484375,-0.42724609375,-0.30517578125,-0.3662109375,-0.141845703125,0.007568359375,-0.9676513671875,-110.0,36.0,99.0,101240.0,0.7050000429153442,0,0
177.003995,0.055145263671875,-0.618011474609375,0.782806396484375,0.0467529296875,0.3662109375,0.0,0.1220703125,-0.1376953125,-0.0111083984375,-0.9796142578125,-110.0,36.0,99.0,101240.0,0.7050000429153442,0,0
177.010996,0.05511474609375,-0.618011474609375,0.782806396484375,0.0467529296875,-0.18310546875,-0.30517578125,0.06103515625,-0.141357421875,0.00732421875,-0.973388671875,-110.0,36.0,99.0,101240.0,0.7050000429153442,0,0
177.017995,0.05511474609375,-0.618011474609375,0.782806396484375,0.04681396484375,-0.3662109375,-0.42724609375,-0.42724609375,-0.1431884765625,0.016845703125,-0.966796875,-110.0,36.0,99.0,101240.0,0.7050000429153442,0,0
177.024999,0.05511474609375,-0.618011474609375,0.782806396484375,0.046875,0.06103515625,-0.06103515625,-0.1220703125,-0.149658203125,0.007568359375,-0.968505859375,-110.0,36.0,99.0,101240.0,0.7050000429153442,0,0
177.031998,0.05511474609375,-0.618011474609375,0.782806396484375,0.046905517578125,0.1220703125,-0.1220703125,-0.30517578125,-0.1494140625,0.01123046875,-0.967041015625,-110.0,36.0,99.0,101240.0,0.7050000429153442,0,0
177.038998,0.055145263671875,-0.618011474609375,0.782806396484375,0.04693603515625,0.1220703125,-0.1220703125,0.1220703125,-0.1446533203125,0.0072021484375,-0.9686279296875,-110.0,36.0,99.0,101240.0,0.7050000429153442,0,0
177.045997,0.05517578125,-0.618011474609375,0.782806396484375,0.04693603515625,-0.06103515625,-0.06103515625,0.06103515625,-0.1475830078125,0.003662109375,-0.969482421875,-110.0,36.0,99.0,101240.0,0.7050000429153442,0,0
177.052996,0.055206298828125,-0.618011474609375,0.782806396484375,0.046966552734375,-0.244140625,-0.244140625,-0.18310546875,-0.14697265625,0.0035400390625,-0.9671630859375,-110.0,36.0,99.0,101240.0,0.7050000429153442,0,0
177.059996,0.055206298828125,-0.618011474609375,0.782806396484375,0.0469970703125,-0.06103515625,0.0,0.0,-0.146240234375,0.0069580078125,-0.9703369140625,-110.0,36.0,99.0,101240.0,0.7050000429153442,0,0
177.066996,0.055206298828125,-0.618011474609375,0.782806396484375,0.047027587890625,-0.30517578125,-0.18310546875,0.06103515625,-0.145751953125,0.013916015625,-0.9674072265625,-110.0,36.0,99.0,101240.0,0.7050000429153442,0,0
177.074,0.05523681640625,-0.618011474609375,0.782806396484375,0.04705810546875,-0.1220703125,0.18310546875,-0.1220703125,-0.146728515625,0.0103759765625,-0.9669189453125,-110.0,36.0,99.0,101240.0,0.7050000429153442,0,0
177.080999,0.055206298828125,-0.618011474609375,0.782806396484375,0.047088623046875,-0.54931640625,-0.54931640625,-0.54931640625,-0.147705078125,0.0223388671875,-0.9722900390625,-110.0,36.0,99.0,101240.0,0.7050000429153442,0,0
177.087032,0.055206298828125,-0.618011474609375,0.782806396484375,0.047088623046875,-0.54931640625,-0.54931640625,-0.54931640625,-0.147705078125,0.0223388671875,-0.9722900390625,-110.0,36.0,99.0,101240.0,0.7050000429153442,0,0
177.093996,0.05523681640625,-0.61724853515625,0.78338623046875,0.047027587890625,-0.42724609375,0.0,0.06103515625,-0.1380615234375,0.00439453125,-0.9671630859375,-112.0,37.0,99.0,101240.0,0.7050000429153442,0,0
177.101,0.055267333984375,-0.61724853515625,0.78338623046875,0.0469970703125,-1.15966796875,-0.67138671875,0.1220703125,-0.1441650390625,0.004150390625,-0.9761962890625,-112.0,37.0,99.0,101240.0,0.7050000429153442,0,0
177.107999,0.0552978515625,-0.61724853515625,0.78338623046875,0.046905517578125,1.3427734375,0.30517578125,0.3662109375,-0.1390380859375,-0.0087890625,-0.9691162109375,-112.0,37.0,99.0,101240.0,0.7050000429153442,0,0
177.128998,0.055267333984375,-0.61724853515625,0.78338623046875,0.046844482421875,0.91552734375,1.28173828125,-0.6103515625,-0.1431884765625,0.0181884765625,-0.9652099609375,-112.0,37.0,99.0,101240.0,0.7050000429153442,0,0
177.135997,0.05517578125,-0.617279052734375,0.783355712890625,0.046875,-0.54931640625,0.732421875,-0.18310546875,-0.144775390625,0.0184326171875,-0.962890625,-112.0,37.0,99.0,101240.0,0.7050000429153442,0,0
177.142996,0.05511474609375,-0.617279052734375,0.78338623046875,0.046844482421875,1.03759765625,1.46484375,-0.18310546875,-0.1402587890625,0.0167236328125,-0.9658203125,-112.0,37.0,99.0,101240.0,0.7050000429153442,0,0
177.149996,0.0550537109375,-0.6173095703125,0.783355712890625,0.04693603515625,-1.64794921875,-0.79345703125,-0.79345703125,-0.144287109375,0.0262451171875,-0.98095703125,-112.0,37.0,99.0,101240.0,0.7050000429153442,0,0
177.156995,0.0550537109375,-0.6173095703125,0.783355712890625,0.046905517578125,2.3193359375,0.30517578125,0.1220703125,-0.14501953125,0.020263671875,-0.960205078125,-112.0,37.0,99.0,101240.0,0.7050000429153442,0,0
177.163996,0.05511474609375,-0.6173095703125,0.783355712890625,0.046966552734375,0.0,-0.9765625,0.1220703125,-0.1402587890625,-0.006591796875,-0.95703125,-112.0,37.0,99.0,101240.0,0.7050000429153442,0,0
177.170995,0.055084228515625,-0.617340087890625,0.783355712890625,0.0467529296875,2.86865234375,2.62451171875,-0.9765625,-0.13671875,0.01416015625,-0.9542236328125,-112.0,37.0,99.0,101240.0,0.7050000429153442,0,0
177.177022,0.055084228515625,-0.617340087890625,0.783355712890625,0.0467529296875,2.86865234375,2.62451171875,-0.9765625,-0.13671875,0.01416015625,-0.9542236328125,-112.0,37.0,99.0,101240.0,0.7050000429153442,0,0
177.183995,0.055145263671875,-0.6173095703125,0.783355712890625,0.0467529296875,0.6103515625,-0.732421875,0.06103515625,-0.14697265625,0.0142822265625,-0.9674072265625,-112.0,37.0,99.0,101240.0,0.7050000429153442,0,0
177.190996,0.055145263671875,-0.6173095703125,0.783355712890625,0.046722412109375,0.3662109375,0.42724609375,0.8544921875,-0.1400146484375,-0.0091552734375,-0.975830078125,-113.0,39.0,98.0,101240.0,0.7050000429153442,0,0
177.197995,0.055267333984375,-0.616241455078125,0.784210205078125,0.046539306640625,-0.18310546875,0.3662109375,-0.79345703125,-0.1400146484375,0.009765625,-0.9764404296875,-113.0,39.0,98.0,101240.0,0.7050000429153442,0,0
177.218998,0.055206298828125,-0.61627197265625,0.784210205078125,0.046539306640625,-0.1220703125,-0.30517578125,0.732421875,-0.139404296875,-0.00048828125,-0.974365234375,-113.0,39.0,98.0,101240.0,0.7050000429153442,0,0
177.225997,0.055084228515625,-0.61627197265625,0.784210205078125,0.04638671875,0.06103515625,1.77001953125,-0.54931640625,-0.137451171875,-0.0040283203125,-0.9876708984375,-113.0,39.0,98.0,101240.0,0.7050000429153442,0,0
177.232996,0.05511474609375,-0.61627197265625,0.784210205078125,0.04638671875,1.0986328125,-1.03759765625,0.244140625,-0.140869140625,0.0113525390625,-0.9630126953125,-113.0,39.0,98.0,101240.0,0.7050000429153442,0,0
177.239996,0.05511474609375,-0.61627197265625,0.784210205078125,0.046356201171875,0.6103515625,0.91552734375,0.1220703125,-0.143798828125,0.008056640625,-0.9600830078125,-113.0,39.0,98.0,101240.0,0.7070000171661377,0,0
177.246995,0.055206298828125,-0.616241455078125,0.784210205078125,0.046417236328125,-0.244140625,-1.77001953125,0.91552734375,-0.142822265625,-0.009033203125,-0.98046875,-113.0,39.0,98.0,101240.0,0.7070000171661377,0,0
177.253996,0.05523681640625,-0.616241455078125,0.784210205078125,0.04644775390625,-1.5869140625,-1.8310546875,0.30517578125,-0.142822265625,-0.0130615234375,-0.98046875,-113.0,39.0,98.0,101240.0,0.7070000171661377,0,0
177.260995,0.055267333984375,-0.616241455078125,0.784210205078125,0.046478271484375,-0.18310546875,-1.64794921875,0.3662109375,-0.1446533203125,0.01123046875,-0.97900390625,-113.0,39.0,98.0,101240.0,0.7070000171661377,0,0
177.267022,0.055267333984375,-0.616241455078125,0.784210205078125,0.046478271484375,-0.18310546875,-1.64794921875,0.3662109375,-0.1446533203125,0.01123046875,-0.97900390625,-113.0,39.0,98.0,101240.0,0.7070000171661377,0,0
177.273995,0.055267333984375,-0.616241455078125,0.784210205078125,0.04644775390625,1.15966796875,0.79345703125,-0.54931640625,-0.14697265625,0.0238037109375,-0.9632568359375,-113.0,39.0,98.0,101240.0,0.7070000171661377,0,0
177.280996,0.05523681640625,-0.61627197265625,0.7841796875,0.0465087890625,0.48828125,0.6103515625,-1.15966796875,-0.145751953125,0.029052734375,-0.95654296875,-113.0,39.0,98.0,101240.0,0.7070000171661377,0,0
177.287995,0.055267333984375,-0.61627197265625,0.7841796875,0.0465087890625,0.54931640625,-0.18310546875,0.30517578125,-0.14111328125,-0.0113525390625,-0.9794921875,-114.0,38.0,97.0,101240.0,0.7070000171661377,0,0
177.294994,0.0552978515625,-0.615478515625,0.7847900390625,0.04644775390625,0.30517578125,-0.06103515625,0.1220703125,-0.14208984375,0.0042724609375,-0.9678955078125,-114.0,38.0,97.0,101240.0,0.7070000171661377,0,0
177.301998,0.0552978515625,-0.615509033203125,0.7847900390625,0.046478271484375,-0.48828125,-0.54931640625,-0.9765625,-0.1456298828125,0.028076171875,-0.970703125,-114.0,38.0,97.0,101240.0,0.7070000171661377,0,0
177.308998,0.055267333984375,-0.615509033203125,0.7847900390625,0.046539306640625,-1.03759765625,-0.91552734375,-0.6103515625,-0.148193359375,0.0216064453125,-0.966796875,-114.0,38.0,97.0,101240.0,0.7070000171661377,0,0
177.315997,0.055328369140625,-0.615509033203125,0.7847900390625,0.046478271484375,0.54931640625,-0.244140625,0.0,-0.1409912109375,-0.00048828125,-0.9693603515625,-114.0,38.0,97.0,101240.0,0.7070000171661377,0,0
177.322996,0.055328369140625,-0.615509033203125,0.7847900390625,0.04644775390625,0.91552734375,0.1220703125,0.48828125,-0.1417236328125,-0.003173828125,-0.96875,-114.0,38.0,97.0,101240.0,0.7070000171661377,0,0
177.329996,0.055328369140625,-0.615509033203125,0.7847900390625,0.046478271484375,-0.3662109375,0.0,-0.54931640625,-0.142578125,0.0128173828125,-0.971923828125,-114.0,38.0,97.0,101240.0,0.7070000171661377,0,0
177.336996,0.055328369140625,-0.615509033203125,0.7847900390625,0.046478271484375,0.244140625,0.0,0.42724609375,-0.1429443359375,-0.0032958984375,-0.9698486328125,-114.0,38.0,97.0,101240.0,0.7070000171661377,0,0
177.344,0.05535888671875,-0.615509033203125,0.7847900390625,0.046417236328125,-0.244140625,0.06103515625,0.3662109375,-0.1380615234375,-0.0020751953125,-0.9688720703125,-114.0,38.0,97.0,101240.0,0.7070000171661377,0,0
177.350999,0.055328369140625,-0.615509033203125,0.7847900390625,0.046417236328125,-0.06103515625,0.0,-0.06103515625,-0.1409912109375,0.010498046875,-0.974609375,-114.0,38.0,97.0,101240.0,0.7070000171661377,0,0
177.357999,0.055328369140625,-0.615509033203125,0.7847900390625,0.04644775390625,-0.18310546875,-0.18310546875,-0.1220703125,-0.1397705078125,0.0076904296875,-0.970703125,-114.0,38.0,97.0,101240.0,0.7070000171661377,0,0
177.364031,0.055328369140625,-0.615509033203125,0.7847900390625,0.04644775390625,-0.18310546875,-0.18310546875,-0.1220703125,-0.1397705078125,0.0076904296875,-0.970703125,-114.0,38.0,97.0,101240.0,0.7070000171661377,0,0
177.371,0.0552978515625,-0.615509033203125,0.7847900390625,0.04644775390625,0.0,-0.06103515625,-0.244140625,-0.140380859375,0.0078125,-0.9720458984375,-114.0,38.0,97.0,101240.0,0.7070000171661377,0,0
177.391998,0.05535888671875,-0.61444091796875,0.785614013671875,0.046417236328125,-0.06103515625,0.0,-0.06103515625,-0.1402587890625,0.0028076171875,-0.9677734375,-114.0,39.0,97.0,101240.0,0.7070000171661377,0,0
177.398998,0.05535888671875,-0.61444091796875,0.785614013671875,0.046478271484375,-1.03759765625,-0.79345703125,-0.732421875,-0.14990234375,0.0223388671875,-0.965576171875,-114.0,39.0,97.0,101240.0,0.7070000171661377,0,0
177.405997,0.055389404296875,-0.61444091796875,0.785614013671875,0.04644775390625,-0.79345703125,-0.732421875,-0.67138671875,-0.1474609375,0.01904296875,-0.973876953125,-114.0,39.0,97.0,101240.0,0.7070000171661377,0,0
177.412996,0.055389404296875,-0.61444091796875,0.785614013671875,0.0465087890625,-0.06103515625,-0.06103515625,0.06103515625,-0.150146484375,0.01220703125,-0.965087890625,-114.0,39.0,97.0,101240.0,0.7070000171661377,0,0
177.419996,0.055450439453125,-0.614410400390625,0.785614013671875,0.04644775390625,-0.06103515625,-0.3662109375,0.3662109375,-0.1424560546875,-0.0081787109375,-0.9727783203125,-114.0,39.0,97.0,101240.0,0.7070000171661377,0,0
177.426995,0.055419921875,-0.614410400390625,0.785614013671875,0.0465087890625,-0.18310546875,-0.8544921875,-0.8544921875,-0.1488037109375,0.02587890625,-0.9598388671875,-114.0,39.0,97.0,101240.0,0.7070000171661377,0,0
177.433996,0.055389404296875,-0.61444091796875,0.785614013671875,0.046478271484375,0.48828125,1.708984375,-0.79345703125,-0.1512451171875,0.0108642578125,-0.9576416015625,-114.0,39.0,97.0,101240.0,0.706000030040741,0,0
177.440995,0.05548095703125,-0.614410400390625,0.78564453125,0.04638671875,0.1220703125,0.18310546875,-0.3662109375,-0.1495361328125,0.008544921875,-0.96630859375,-114.0,39.0,97.0,101240.0,0.706000030040741,0,0
177.447994,0.05548095703125,-0.614410400390625,0.78564453125,0.046356201171875,-0.54931640625,-0.48828125,0.244140625,-0.13916015625,-0.0028076171875,-0.981201171875,-114.0,39.0,97.0,101240.0,0.706000030040741,0,0
177.454026,0.05548095703125,-0.614410400390625,0.78564453125,0.046356201171875,-0.54931640625,-0.48828125,0.244140625,-0.13916015625,-0.0028076171875,-0.981201171875,-114.0,39.0,97.0,101240.0,0.706000030040741,0,0
177.460996,0.055511474609375,-0.6143798828125,0.785675048828125,0.045989990234375,1.15966796875,1.220703125,0.30517578125,-0.1417236328125,-0.0087890625,-0.974365234375,-114.0,39.0,97.0,101240.0,0.706000030040741,0,0
177.481998,0.055419921875,-0.614410400390625,0.785675048828125,0.0458984375,0.1220703125,-0.8544921875,0.48828125,-0.1370849609375,-0.0147705078125,-0.9805908203125,-114.0,39.0,97.0,101240.0,0.706000030040741,0,0
177.488998,0.055419921875,-0.614410400390625,0.785675048828125,0.04583740234375,1.15966796875,0.91552734375,-0.06103515625,-0.141845703125,0.0054931640625,-0.9686279296875,-115.0,39.0,99.0,101240.0,0.706000030040741,0,0
177.495997,0.055419921875,-0.6138916015625,0.78607177734375,0.045867919921875,0.732421875,0.18310546875,0.06103515625,-0.1446533203125,0.025634765625,-0.95068359375,-115.0,39.0,99.0,101240.0,0.706000030040741,0,0
177.502996,0.05535888671875,-0.613922119140625,0.78607177734375,0.0458984375,-0.54931640625,-0.18310546875,-0.30517578125,-0.14306640625,0.005859375,-0.97216796875,-115.0,39.0,99.0,101240.0,0.706000030040741,0,0
177.509996,0.055389404296875,-0.613922119140625,0.78607177734375,0.0458984375,0.6103515625,-0.18310546875,0.0,-0.1474609375,0.0015869140625,-0.971435546875,-115.0,39.0,99.0,101240.0,0.706000030040741,0,0
177.516995,0.05535888671875,-0.613922119140625,0.78607177734375,0.0458984375,0.1220703125,-0.67138671875,-0.18310546875,-0.1343994140625,0.0089111328125,-0.9788818359375,-115.0,39.0,99.0,101240.0,0.706000030040741,0,0
177.523996,0.055389404296875,-0.613922119140625,0.78607177734375,0.04583740234375,-0.30517578125,0.244140625,0.732421875,-0.138427734375,-0.0054931640625,-0.9632568359375,-115.0,39.0,99.0,101240.0,0.706000030040741,0,0
177.530995,0.055389404296875,-0.613861083984375,0.786102294921875,0.045806884765625,0.732421875,-0.79345703125,-0.42724609375,-0.1444091796875,0.022216796875,-0.9638671875,-115.0,39.0,99.0,101240.0,0.706000030040741,0,0
177.537994,0.05535888671875,-0.6138916015625,0.786102294921875,0.045745849609375,0.91552734375,1.28173828125,-0.06103515625,-0.136962890625,0.0069580078125,-0.9757080078125,-115.0,39.0,99.0,101240.0,0.706000030040741,0,0
177.544998,0.05535888671875,-0.6138916015625,0.78607177734375,0.04583740234375,-0.79345703125,-2.685546875,-0.79345703125,-0.1536865234375,0.0284423828125,-0.973876953125,-115.0,39.0,99.0,101240.0,0.706000030040741,0,0
177.551026,0.05535888671875,-0.6138916015625,0.78607177734375,0.04583740234375,-0.79345703125,-2.685546875,-0.79345703125,-0.1536865234375,0.0284423828125,-0.973876953125,-115.0,39.0,99.0,101240.0,0.706000030040741,0,0
177.557995,0.05535888671875,-0.6138916015625,0.78607177734375,0.0458984375,-0.3662109375,-0.54931640625,0.30517578125,-0.1424560546875,0.0050048828125,-0.9739990234375,-115.0,39.0,99.0,101240.0,0.706000030040741,0,0
177.564994,0.055389404296875,-0.6138916015625,0.78607177734375,0.04583740234375,-0.244140625,0.42724609375,0.48828125,-0.134765625,-0.005859375,-0.970458984375,-115.0,39.0,99.0,101240.0,0.706000030040741,0,0
177.571998,0.055419921875,-0.6138916015625,0.786102294921875,0.045745849609375,-0.30517578125,0.67138671875,0.67138671875,-0.1387939453125,-0.01806640625,-0.9698486328125,-115.0,39.0,99.0,101240.0,0.706000030040741,0,0
177.578998,0.055419921875,-0.613861083984375,0.786102294921875,0.04571533203125,0.79345703125,-0.06103515625,0.42724609375,-0.138671875,0.0015869140625,-0.9820556640625,-115.0,39.0,99.0,101240.0,0.706000030040741,0,0
177.585997,0.055389404296875,-0.613861083984375,0.786102294921875,0.045745849609375,-0.67138671875,0.30517578125,-0.3662109375,-0.1409912109375,0.0032958984375,-0.9742431640625,-114.0,39.0,99.0,101240.0,0.706000030040741,0,0
177.592996,0.055450439453125,-0.6131591796875,0.786651611328125,0.04571533203125,-0.06103515625,-0.79345703125,0.48828125,-0.1380615234375,-0.010986328125,-0.9764404296875,-114.0,39.0,99.0,101240.0,0.706000030040741,0,0
177.599996,0.055450439453125,-0.6131591796875,0.786651611328125,0.04571533203125,0.06103515625,-0.30517578125,0.18310546875,-0.1434326171875,0.0035400390625,-0.969970703125,-114.0,39.0,99.0,101240.0,0.706000030040741,0,0
177.606995,0.05548095703125,-0.6131591796875,0.786651611328125,0.045745849609375,-0.1220703125,0.30517578125,-0.42724609375,-0.1485595703125,0.0174560546875,-0.9659423828125,-114.0,39.0,99.0,101240.0,0.706000030040741,0,0
177.613996,0.055450439453125,-0.6131591796875,0.786651611328125,0.0457763671875,0.67138671875,-0.30517578125,-0.18310546875,-0.142822265625,0.0074462890625,-0.9722900390625,-114.0,39.0,99.0,101240.0,0.706000030040741,0,0
177.620999,0.05548095703125,-0.6131591796875,0.786651611328125,0.045806884765625,-0.732421875,0.06103515625,-0.54931640625,-0.1466064453125,0.0167236328125,-0.9644775390625,-114.0,39.0,99.0,101240.0,0.706000030040741,0,0
177.627999,0.05548095703125,-0.6131591796875,0.786651611328125,0.04583740234375,-0.06103515625,-0.1220703125,-0.06103515625,-0.1439208984375,0.0101318359375,-0.965087890625,-114.0,39.0,99.0,101240.0,0.706000030040741,0,0
177.634998,0.05548095703125,-0.6131591796875,0.786651611328125,0.04583740234375,-0.1220703125,0.0,-0.06103515625,-0.1444091796875,0.00537109375,-0.969482421875,-114.0,39.0,99.0,101240.0,0.706000030040741,0,0
177.654999,0.055511474609375,-0.613128662109375,0.786651611328125,0.0458984375,-0.244140625,0.0,-0.30517578125,-0.1444091796875,0.009521484375,-0.9678955078125,-114.0,39.0,99.0,101240.0,0.706000030040741,0,0
177.661998,0.055511474609375,-0.613128662109375,0.786651611328125,0.0458984375,0.0,-0.18310546875,0.0,-0.1414794921875,0.005126953125,-0.968994140625,-114.0,39.0,99.0,101240.0,0.706000030040741,0,0
177.668998,0.055511474609375,-0.613128662109375,0.786651611328125,0.045928955078125,-0.1220703125,-0.1220703125,-0.30517578125,-0.1431884765625,0.00830078125,-0.9688720703125,-114.0,39.0,99.0,101240.0,0.706000030040741,0,0
177.675997,0.055511474609375,-0.613128662109375,0.786651611328125,0.045928955078125,0.244140625,-0.18310546875,0.1220703125,-0.14208984375,0.00830078125,-0.9698486328125,-114.0,39.0,99.0,101240.0,0.706000030040741,0,0
177.682996,0.055511474609375,-0.613128662109375,0.786651611328125,0.045928955078125,-0.06103515625,-0.06103515625,0.244140625,-0.1407470703125,0.0018310546875,-0.972900390625,-114.0,39.0,99.0,101240.0,0.706000030040741,0,0
177.689996,0.055511474609375,-0.613128662109375,0.786651611328125,0.045928955078125,-0.1220703125,-0.18310546875,0.18310546875,-0.1412353515625,0.003662109375,-0.9718017578125,-115.0,39.0,100.0,101240.0,0.706000030040741,0,0
177.696996,0.0555419921875,-0.612548828125,0.787109375,0.0458984375,0.0,-0.06103515625,-0.1220703125,-0.1402587890625,0.0047607421875,-0.9703369140625,-115.0,39.0,100.0,101240.0,0.706000030040741,0,0
177.704,0.055511474609375,-0.612548828125,0.787109375,0.045928955078125,-0.244140625,0.1220703125,-0.54931640625,-0.142822265625,0.01220703125,-0.9697265625,-115.0,39.0,100.0,101240.0,0.706000030040741,0,0
177.710999,0.0555419921875,-0.612548828125,0.787109375,0.0458984375,-0.30517578125,-0.06103515625,0.1220703125,-0.1396484375,-0.00390625,-0.9697265625,-115.0,39.0,100.0,101240.0,0.706000030040741,0,0
177.717995,0.055511474609375,-0.612579345703125,0.787078857421875,0.045989990234375,-0.6103515625,-0.3662109375,-0.9765625,-0.149658203125,0.0252685546875,-0.9678955078125,-115.0,39.0,100.0,101240.0,0.706000030040741,0,0
177.724998,0.055511474609375,-0.612579345703125,0.787109375,0.0460205078125,0.244140625,0.244140625,-0.3662109375,-0.1461181640625,0.022705078125,-0.9676513671875,-115.0,39.0,100.0,101240.0,0.706000030040741,0,0
177.744994,0.055511474609375,-0.612579345703125,0.787078857421875,0.045989990234375,-0.732421875,-0.54931640625,0.30517578125,-0.1444091796875,-0.0052490234375,-0.973876953125,-115.0,39.0,100.0,101240.0,0.706000030040741,0,0
177.751998,0.0555419921875,-0.612579345703125,0.787078857421875,0.04595947265625,-0.9765625,-0.244140625,0.30517578125,-0.1444091796875,-0.007568359375,-0.9736328125,-115.0,39.0,100.0,101240.0,0.706000030040741,0,0
177.758998,0.055572509765625,-0.612579345703125,0.787078857421875,0.0458984375,-0.79345703125,-0.8544921875,0.42724609375,-0.1387939453125,-0.0185546875,-0.977783203125,-115.0,39.0,100.0,101240.0,0.706000030040741,0,0
177.765997,0.05560302734375,-0.612579345703125,0.787078857421875,0.04583740234375,-0.79345703125,-0.79345703125,-0.42724609375,-0.1484375,0.0218505859375,-0.9693603515625,-115.0,39.0,100.0,101240.0,0.706000030040741,0,0
177.772996,0.05560302734375,-0.612579345703125,0.787078857421875,0.0458984375,0.48828125,0.42724609375,-0.06103515625,-0.1474609375,0.0228271484375,-0.9674072265625,-115.0,39.0,100.0,101240.0,0.706000030040741,0,0
177.779996,0.05560302734375,-0.612579345703125,0.787078857421875,0.0458984375,-0.244140625,-0.8544921875,0.30517578125,-0.1439208984375,0.0025634765625,-0.9681396484375,-115.0,39.0,100.0,101240.0,0.706000030040741,0,0
177.786995,0.0556640625,-0.612548828125,0.787109375,0.045745849609375,0.1220703125,0.06103515625,1.3427734375,-0.137451171875,-0.0240478515625,-0.988037109375,-115.0,40.0,101.0,101240.0,0.7070000171661377,0,0
177.793996,0.05560302734375,-0.611663818359375,0.787811279296875,0.045654296875,1.52587890625,1.220703125,-1.0986328125,-0.1416015625,0.0216064453125,-0.9609375,-115.0,40.0,101.0,101240.0,0.7070000171661377,0,0
177.800995,0.0556640625,-0.61163330078125,0.787841796875,0.045654296875,0.732421875,-1.0986328125,1.5869140625,-0.1436767578125,0.008056640625,-0.975341796875,-115.0,40.0,101.0,101240.0,0.7070000171661377,0,0
177.807994,0.0556640625,-0.611663818359375,0.787811279296875,0.045684814453125,0.732421875,-0.1220703125,0.30517578125,-0.1414794921875,-0.0059814453125,-0.9676513671875,-115.0,40.0,101.0,101240.0,0.7070000171661377,0,0
177.814998,0.05572509765625,-0.61163330078125,0.787811279296875,0.04571533203125,-0.42724609375,-1.5869140625,0.732421875,-0.146728515625,0.002685546875,-0.971923828125,-115.0,40.0,101.0,101240.0,0.7070000171661377,0,0
177.821998,0.055572509765625,-0.61163330078125,0.787841796875,0.045684814453125,-2.86865234375,0.9765625,0.6103515625,-0.1357421875,-0.0196533203125,-0.9691162109375,-115.0,40.0,101.0,101240.0,0.7070000171661377,0,0
177.82803,0.055572509765625,-0.61163330078125,0.787841796875,0.045684814453125,-2.86865234375,0.9765625,0.6103515625,-0.1357421875,-0.0196533203125,-0.9691162109375,-115.0,40.0,101.0,101240.0,0.7070000171661377,0,0
177.834994,0.0556640625,-0.61163330078125,0.787841796875,0.045623779296875,0.67138671875,-1.52587890625,0.48828125,-0.1463623046875,0.0064697265625,-0.975830078125,-115.0,40.0,101.0,101240.0,0.7070000171661377,0,0
177.841998,0.0555419921875,-0.611663818359375,0.787811279296875,0.04559326171875,-0.48828125,1.64794921875,-0.48828125,-0.1396484375,0.0030517578125,-0.972900390625,-115.0,40.0,101.0,101240.0,0.7070000171661377,0,0
177.848998,0.055511474609375,-0.611663818359375,0.787811279296875,0.045501708984375,0.54931640625,1.3427734375,0.244140625,-0.13623046875,-0.0030517578125,-0.96826171875,-115.0,40.0,101.0,101240.0,0.7070000171661377,0,0
177.855997,0.055450439453125,-0.6116943359375,0.787811279296875,0.045562744140625,0.3662109375,0.3662109375,-0.1220703125,-0.1392822265625,0.0108642578125,-0.980712890625,-115.0,40.0,101.0,101240.0,0.7070000171661377,0,0
177.862996,0.05548095703125,-0.6116943359375,0.787811279296875,0.0455322265625,1.15966796875,-0.1220703125,-0.1220703125,-0.142822265625,0.0230712890625,-0.9658203125,-115.0,40.0,101.0,101240.0,0.7070000171661377,0,0
177.869996,0.055450439453125,-0.611724853515625,0.78778076171875,0.045623779296875,-2.3193359375,-0.91552734375,-0.67138671875,-0.14453125,0.0152587890625,-0.9619140625,-115.0,40.0,101.0,101240.0,0.7070000171661377,0,0
177.876995,0.055419921875,-0.611724853515625,0.78778076171875,0.045623779296875,-0.244140625,-0.06103515625,-0.91552734375,-0.14208984375,0.0164794921875,-0.9595947265625,-115.0,40.0,101.0,101240.0,0.7070000171661377,0,0
177.883996,0.055450439453125,-0.6116943359375,0.787811279296875,0.0455322265625,1.40380859375,-0.244140625,0.732421875,-0.1439208984375,0.01171875,-0.9708251953125,-115.0,40.0,101.0,101240.0,0.7070000171661377,0,0
177.890995,0.055389404296875,-0.611724853515625,0.78778076171875,0.045623779296875,-3.5400390625,-1.28173828125,-0.30517578125,-0.1380615234375,-0.0032958984375,-0.97998046875,-115.0,41.0,101.0,101240.0,0.706000030040741,0,0
177.897994,0.055450439453125,-0.610687255859375,0.78857421875,0.045654296875,1.5869140625,0.1220703125,-0.8544921875,-0.1470947265625,0.01416015625,-0.9625244140625,-115.0,41.0,101.0,101240.0,0.706000030040741,0,0
177.918997,0.055572509765625,-0.610687255859375,0.78857421875,0.045654296875,0.42724609375,-0.42724609375,0.06103515625,-0.1456298828125,0.0029296875,-0.9697265625,-115.0,41.0,101.0,101240.0,0.706000030040741,0,0
177.925029,0.055572509765625,-0.610687255859375,0.78857421875,0.045654296875,0.42724609375,-0.42724609375,0.06103515625,-0.1456298828125,0.0029296875,-0.9697265625,-115.0,41.0,101.0,101240.0,0.706000030040741,0,0
177.931998,0.0555419921875,-0.610687255859375,0.78857421875,0.045654296875,0.42724609375,0.244140625,0.54931640625,-0.1387939453125,-0.013916015625,-0.9722900390625,-115.0,41.0,101.0,101240.0,0.706000030040741,0,0
177.938998,0.055572509765625,-0.610687255859375,0.78857421875,0.045654296875,0.1220703125,-0.30517578125,0.3662109375,-0.14306640625,0.00244140625,-0.9722900390625,-115.0,41.0,101.0,101240.0,0.706000030040741,0,0
177.945997,0.055572509765625,-0.610687255859375,0.78857421875,0.045654296875,-0.48828125,-0.244140625,-0.30517578125,-0.146240234375,0.0108642578125,-0.9708251953125,-115.0,41.0,101.0,101240.0,0.706000030040741,0,0
177.952996,0.05560302734375,-0.610687255859375,0.78857421875,0.045654296875,0.1220703125,0.1220703125,0.3662109375,-0.14306640625,0.00244140625,-0.97119140625,-115.0,41.0,101.0,101240.0,0.706000030040741,0,0
177.959996,0.055572509765625,-0.610687255859375,0.78857421875,0.04571533203125,-0.6103515625,-0.30517578125,-0.54931640625,-0.146484375,0.0162353515625,-0.969970703125,-115.0,41.0,101.0,101240.0,0.706000030040741,0,0
177.966996,0.05560302734375,-0.610687255859375,0.78857421875,0.04571533203125,-0.244140625,-0.30517578125,-0.18310546875,-0.1439208984375,0.0118408203125,-0.9705810546875,-115.0,41.0,101.0,101240.0,0.706000030040741,0,0
177.974,0.05560302734375,-0.610687255859375,0.78857421875,0.04571533203125,-0.06103515625,-0.06103515625,0.06103515625,-0.142333984375,0.005126953125,-0.9703369140625,-115.0,41.0,101.0,101240.0,0.706000030040741,0,0
177.980999,0.05560302734375,-0.610687255859375,0.78857421875,0.045745849609375,-0.06103515625,-0.06103515625,-0.244140625,-0.141845703125,0.0078125,-0.97021484375,-115.0,41.0,101.0,101240.0,0.706000030040741,0,0
178.001998,0.055633544921875,-0.609893798828125,0.7891845703125,0.045745849609375,-0.244140625,0.1220703125,0.0,-0.14306640625,0.0057373046875,-0.9703369140625,-114.0,40.0,101.0,101240.0,0.706000030040741,0,0
178.008997,0.055633544921875,-0.609893798828125,0.7891845703125,0.0457763671875,-0.42724609375,-0.06103515625,-0.18310546875,-0.1424560546875,0.010009765625,-0.9683837890625,-114.0,40.0,101.0,101240.0,0.706000030040741,0,0
178.015025,0.055633544921875,-0.609893798828125,0.7891845703125,0.0457763671875,-0.42724609375,-0.06103515625,-0.18310546875,-0.1424560546875,0.010009765625,-0.9683837890625,-114.0,40.0,101.0,101240.0,0.706000030040741,0,0
178.021998,0.055633544921875,-0.60986328125,0.7891845703125,0.0457763671875,0.18310546875,0.1220703125,0.3662109375,-0.1424560546875,-0.002197265625,-0.97216796875,-114.0,40.0,101.0,101240.0,0.706000030040741,0,0
178.028998,0.055633544921875,-0.60986328125,0.7891845703125,0.04583740234375,-0.06103515625,-0.732421875,-0.91552734375,-0.1468505859375,0.02197265625,-0.9683837890625,-114.0,40.0,101.0,101240.0,0.706000030040741,0,0
178.035997,0.0556640625,-0.60986328125,0.7891845703125,0.0457763671875,0.244140625,0.18310546875,0.54931640625,-0.1376953125,-0.01318359375,-0.97119140625,-114.0,40.0,101.0,101240.0,0.706000030040741,0,0
178.042996,0.055633544921875,-0.60986328125,0.7891845703125,0.04583740234375,0.06103515625,0.0,0.0,-0.140380859375,0.0037841796875,-0.9693603515625,-114.0,40.0,101.0,101240.0,0.706000030040741,0,0
178.049996,0.05560302734375,-0.60986328125,0.7891845703125,0.0458984375,-0.67138671875,-0.6103515625,-0.6103515625,-0.145751953125,0.0238037109375,-0.9613037109375,-114.0,40.0,101.0,101240.0,0.706000030040741,0,0
178.056995,0.055633544921875,-0.609832763671875,0.789215087890625,0.045867919921875,-0.9765625,0.54931640625,-0.54931640625,-0.140380859375,0.0010986328125,-0.971923828125,-114.0,40.0,101.0,101240.0,0.706000030040741,0,0
178.063996,0.055694580078125,-0.60980224609375,0.78924560546875,0.045654296875,0.79345703125,0.48828125,0.79345703125,-0.13720703125,-0.01416015625,-0.973388671875,-114.0,40.0,101.0,101240.0,0.706000030040741,0,0
178.070995,0.055694580078125,-0.60980224609375,0.78924560546875,0.045654296875,-0.18310546875,0.3662109375,0.67138671875,-0.140869140625,-0.0040283203125,-0.9766845703125,-114.0,40.0,101.0,101240.0,0.706000030040741,0,0
178.077994,0.055694580078125,-0.60980224609375,0.78924560546875,0.045684814453125,0.06103515625,0.244140625,-0.06103515625,-0.144775390625,0.014404296875,-0.97265625,-114.0,40.0,101.0,101240.0,0.706000030040741,0,0
178.084998,0.0556640625,-0.60980224609375,0.78924560546875,0.045745849609375,-0.42724609375,-0.67138671875,-0.91552734375,-0.15087890625,0.02783203125,-0.9683837890625,-114.0,40.0,101.0,101240.0,0.706000030040741,0,0
178.091998,0.0556640625,-0.609130859375,0.789764404296875,0.0457763671875,-1.28173828125,-0.18310546875,-0.54931640625,-0.1480712890625,0.0191650390625,-0.96923828125,-113.0,40.0,101.0,101240.0,0.706000030040741,0,0
178.098997,0.055633544921875,-0.609161376953125,0.78973388671875,0.045745849609375,0.30517578125,1.03759765625,-0.8544921875,-0.1416015625,0.013671875,-0.9766845703125,-113.0,40.0,101.0,101240.0,0.706000030040741,0,0
178.105996,0.055572509765625,-0.609161376953125,0.78973388671875,0.045623779296875,0.54931640625,1.64794921875,-1.220703125,-0.133544921875,0.009521484375,-0.966552734375,-113.0,40.0,101.0,101240.0,0.706000030040741,0,0
178.112029,0.055572509765625,-0.609161376953125,0.78973388671875,0.045623779296875,0.54931640625,1.64794921875,-1.220703125,-0.133544921875,0.009521484375,-0.966552734375,-113.0,40.0,101.0,101240.0,0.706000030040741,0,0
178.118998,0.055633544921875,-0.60919189453125,0.78973388671875,0.04559326171875,-0.42724609375,0.0,0.6103515625,-0.142822265625,-0.0076904296875,-0.981201171875,-113.0,40.0,101.0,101240.0,0.706000030040741,0,0
178.125997,0.055633544921875,-0.60919189453125,0.78973388671875,0.0455322265625,0.244140625,0.3662109375,0.244140625,-0.146484375,0.0084228515625,-0.96484375,-113.0,40.0,101.0,101240.0,0.706000030040741,0,0
178.132996,0.0556640625,-0.60919189453125,0.789703369140625,0.045684814453125,0.244140625,0.3662109375,0.244140625,-0.146484375,0.0084228515625,-0.96484375,-113.0,40.0,101.0,101240.0,0.706000030040741,0,0
178.139996,0.055633544921875,-0.60919189453125,0.789703369140625,0.045745849609375,-0.67138671875,-0.244140625,-0.6103515625,-0.143310546875,0.021240234375,-0.9603271484375,-113.0,40.0,101.0,101240.0,0.706000030040741,0,0
178.146995,0.0556640625,-0.60919189453125,0.789703369140625,0.045654296875,0.67138671875,-0.30517578125,0.48828125,-0.13916015625,-0.011474609375,-0.9803466796875,-113.0,40.0,101.0,101240.0,0.706000030040741,0,0
178.153996,0.055633544921875,-0.60919189453125,0.789703369140625,0.045745849609375,0.0,-0.67138671875,-0.79345703125,-0.1478271484375,0.0296630859375,-0.95947265625,-113.0,40.0,101.0,101240.0,0.706000030040741,0,0
178.160995,0.055633544921875,-0.60919189453125,0.789703369140625,0.0457763671875,-0.732421875,-0.6103515625,0.06103515625,-0.149658203125,0.013916015625,-0.9615478515625,-113.0,40.0,101.0,101240.0,0.706000030040741,0,0
178.181998,0.05548095703125,-0.6092529296875,0.789703369140625,0.045654296875,0.06103515625,-0.8544921875,-0.3662109375,-0.1473388671875,0.0042724609375,-0.9700927734375,-113.0,40.0,101.0,101240.0,0.706000030040741,0,0
178.188997,0.055511474609375,-0.609283447265625,0.789642333984375,0.04583740234375,-0.42724609375,-1.8310546875,-0.48828125,-0.1424560546875,0.0103759765625,-0.9627685546875,-113.0,39.0,101.0,101240.0,0.7050000429153442,0,0
178.195996,0.055572509765625,-0.6085205078125,0.79022216796875,0.045745849609375,-0.244140625,-0.8544921875,-0.244140625,-0.1390380859375,0.005859375,-0.973876953125,-113.0,39.0,101.0,101240.0,0.7050000429153442,0,0
178.202029,0.055572509765625,-0.6085205078125,0.79022216796875,0.045745849609375,-0.244140625,-0.8544921875,-0.244140625,-0.1390380859375,0.005859375,-0.973876953125,-113.0,39.0,101.0,101240.0,0.7050000429153442,0,0
178.208998,0.0555419921875,-0.6085205078125,0.790252685546875,0.0457763671875,0.244140625,0.6103515625,0.42724609375,-0.14501953125,0.0123291015625,-0.9732666015625,-113.0,39.0,101.0,101240.0,0.7050000429153442,0,0
178.215997,0.055572509765625,-0.6085205078125,0.790252685546875,0.04571533203125,0.1220703125,-0.8544921875,0.1220703125,-0.135498046875,-0.0150146484375,-0.9708251953125,-113.0,39.0,101.0,101240.0,0.7050000429153442,0,0
178.222996,0.0555419921875,-0.6085205078125,0.790252685546875,0.0457763671875,0.54931640625,0.18310546875,0.67138671875,-0.1370849609375,0.0006103515625,-0.9654541015625,-113.0,39.0,101.0,101240.0,0.7050000429153442,0,0
178.229996,0.0555419921875,-0.6085205078125,0.790252685546875,0.045745849609375,0.67138671875,0.3662109375,0.244140625,-0.1400146484375,0.0,-0.97216796875,-113.0,39.0,101.0,101240.0,0.7050000429153442,0,0
178.236996,0.0555419921875,-0.6085205078125,0.790252685546875,0.0457763671875,0.30517578125,-0.48828125,-0.1220703125,-0.1422119140625,0.010498046875,-0.97900390625,-113.0,39.0,101.0,101240.0,0.7050000429153442,0,0
178.244,0.0555419921875,-0.6085205078125,0.790252685546875,0.045806884765625,-0.8544921875,-0.54931640625,-0.30517578125,-0.1436767578125,0.010986328125,-0.9666748046875,-113.0,39.0,101.0,101240.0,0.7050000429153442,0,0
178.264998,0.0555419921875,-0.608489990234375,0.790252685546875,0.0458984375,-0.30517578125,-0.42724609375,-0.3662109375,-0.14599609375,0.013427734375,-0.973876953125,-113.0,39.0,101.0,101240.0,0.7050000429153442,0,0
178.271998,0.0555419921875,-0.6085205078125,0.790252685546875,0.0458984375,-0.06103515625,-0.3662109375,0.1220703125,-0.140869140625,-0.0023193359375,-0.9697265625,-113.0,39.0,101.0,101240.0,0.7050000429153442,0,0
178.278997,0.0555419921875,-0.608489990234375,0.790252685546875,0.045928955078125,-0.06103515625,-0.48828125,-0.1220703125,-0.1441650390625,0.0147705078125,-0.970703125,-113.0,39.0,101.0,101240.0,0.7050000429153442,0,0
178.285996,0.0555419921875,-0.608489990234375,0.790252685546875,0.045928955078125,-0.244140625,-0.18310546875,-0.18310546875,-0.1424560546875,0.007568359375,-0.9732666015625,-113.0,39.0,101.0,101240.0,0.7070000171661377,0,0
178.292996,0.05560302734375,-0.60791015625,0.790679931640625,0.0458984375,0.3662109375,-0.18310546875,0.0,-0.1441650390625,0.0047607421875,-0.968994140625,-112.0,39.0,101.0,101240.0,0.7070000171661377,0,0
178.299028,0.05560302734375,-0.60791015625,0.790679931640625,0.0458984375,0.3662109375,-0.18310546875,0.0,-0.1441650390625,0.0047607421875,-0.968994140625,-112.0,39.0,101.0,101240.0,0.7070000171661377,0,0
178.305997,0.055633544921875,-0.60791015625,0.790679931640625,0.0458984375,-0.1220703125,-0.30517578125,-0.06103515625,-0.143310546875,0.003173828125,-0.9732666015625,-112.0,39.0,101.0,101240.0,0.7070000171661377,0,0
178.312996,0.055633544921875,-0.60791015625,0.790679931640625,0.0458984375,0.06103515625,-0.3662109375,0.06103515625,-0.142333984375,0.00244140625,-0.9730224609375,-112.0,39.0,101.0,101240.0,0.7070000171661377,0,0
178.319996,0.055633544921875,-0.60791015625,0.790679931640625,0.0458984375,-0.3662109375,-0.1220703125,0.18310546875,-0.14208984375,0.0018310546875,-0.9708251953125,-112.0,39.0,101.0,101240.0,0.7070000171661377,0,0
178.326995,0.055633544921875,-0.60791015625,0.790679931640625,0.0458984375,-0.244140625,-0.06103515625,0.1220703125,-0.1409912109375,-0.000732421875,-0.969970703125,-112.0,39.0,101.0,101240.0,0.7070000171661377,0,0
178.333996,0.055633544921875,-0.60791015625,0.790679931640625,0.0458984375,-0.06103515625,-0.244140625,0.244140625,-0.1387939453125,0.00390625,-0.9720458984375,-112.0,39.0,101.0,101240.0,0.7070000171661377,0,0
178.340995,0.055633544921875,-0.60791015625,0.790679931640625,0.0458984375,-0.06103515625,0.3662109375,0.18310546875,-0.143310546875,0.010009765625,-0.968017578125,-112.0,39.0,101.0,101240.0,0.7070000171661377,0,0
178.347994,0.055633544921875,-0.60791015625,0.790679931640625,0.04595947265625,0.3662109375,-0.06103515625,-0.244140625,-0.140380859375,0.0076904296875,-0.9666748046875,-112.0,39.0,101.0,101240.0,0.7070000171661377,0,0
178.354998,0.05560302734375,-0.607940673828125,0.790679931640625,0.045928955078125,0.06103515625,-0.18310546875,0.30517578125,-0.13671875,-0.009765625,-0.9779052734375,-112.0,39.0,101.0,101240.0,0.7070000171661377,0,0
178.361998,0.055633544921875,-0.60791015625,0.790679931640625,0.045867919921875,1.15966796875,-0.244140625,0.3662109375,-0.1402587890625,-0.00244140625,-0.974609375,-112.0,39.0,101.0,101240.0,0.7070000171661377,0,0
178.368997,0.0556640625,-0.60791015625,0.790679931640625,0.0457763671875,1.52587890625,0.42724609375,0.06103515625,-0.13671875,-0.0013427734375,-0.96875,-112.0,39.0,101.0,101240.0,0.7070000171661377,0,0
178.375996,0.055694580078125,-0.60791015625,0.79071044921875,0.045745849609375,1.220703125,0.18310546875,0.79345703125,-0.1417236328125,0.0013427734375,-0.96826171875,-112.0,39.0,101.0,101240.0,0.7070000171661377,0,0
178.382996,0.055694580078125,-0.60791015625,0.79071044921875,0.04571533203125,-0.244140625,-0.30517578125,0.42724609375,-0.1435546875,0.0009765625,-0.9727783203125,-112.0,39.0,101.0,101240.0,0.706000030040741,0,0
178.389028,0.055694580078125,-0.60791015625,0.79071044921875,0.04571533203125,-0.244140625,-0.30517578125,0.42724609375,-0.1435546875,0.0009765625,-0.9727783203125,-112.0,39.0,101.0,101240.0,0.706000030040741,0,0
178.395997,0.05560302734375,-0.607818603515625,0.790771484375,0.045745849609375,-0.67138671875,-0.30517578125,-1.03759765625,-0.1446533203125,0.014892578125,-0.970703125,-111.0,36.0,100.0,101240.0,0.706000030040741,0,0
178.402996,0.05560302734375,-0.607818603515625,0.790771484375,0.04571533203125,-0.54931640625,0.67138671875,-0.30517578125,-0.1414794921875,-0.0006103515625,-0.979248046875,-111.0,36.0,100.0,101240.0,0.706000030040741,0,0
178.409996,0.055572509765625,-0.607818603515625,0.790771484375,0.0457763671875,1.3427734375,-0.244140625,0.79345703125,-0.1458740234375,0.013427734375,-0.9586181640625,-111.0,36.0,100.0,101240.0,0.706000030040741,0,0
178.416995,0.055572509765625,-0.607818603515625,0.790771484375,0.045806884765625,-0.9765625,-1.0986328125,0.18310546875,-0.1441650390625,0.0103759765625,-0.974853515625,-111.0,36.0,100.0,101240.0,0.706000030040741,0,0
178.437994,0.055633544921875,-0.60784912109375,0.790740966796875,0.04583740234375,-1.03759765625,0.18310546875,0.6103515625,-0.140625,-0.0054931640625,-0.9791259765625,-111.0,36.0,100.0,101240.0,0.706000030040741,0,0
178.444998,0.055572509765625,-0.60784912109375,0.790771484375,0.04583740234375,-1.5869140625,0.91552734375,0.79345703125,-0.1356201171875,-0.0208740234375,-0.9864501953125,-111.0,36.0,100.0,101240.0,0.706000030040741,0,0
178.451998,0.05560302734375,-0.60784912109375,0.790771484375,0.04571533203125,2.74658203125,0.732421875,-0.244140625,-0.1422119140625,0.007568359375,-0.9697265625,-111.0,36.0,100.0,101240.0,0.706000030040741,0,0
178.458997,0.0555419921875,-0.607879638671875,0.79071044921875,0.0458984375,-0.79345703125,-0.67138671875,-0.79345703125,-0.14794921875,0.0374755859375,-0.9718017578125,-111.0,36.0,100.0,101240.0,0.706000030040741,0,0
178.465996,0.0555419921875,-0.607879638671875,0.790740966796875,0.045867919921875,-2.5634765625,0.0,0.732421875,-0.148193359375,-0.015380859375,-0.982177734375,-111.0,36.0,100.0,101240.0,0.706000030040741,0,0
178.472996,0.055572509765625,-0.607879638671875,0.79071044921875,0.045867919921875,0.9765625,-0.42724609375,-0.54931640625,-0.14501953125,0.0135498046875,-0.9656982421875,-111.0,36.0,100.0,101240.0,0.706000030040741,0,0
178.479995,0.05548095703125,-0.607879638671875,0.790740966796875,0.04583740234375,0.244140625,-0.8544921875,-0.79345703125,-0.1429443359375,0.01904296875,-0.9893798828125,-111.0,36.0,100.0,101240.0,0.706000030040741,0,0
178.486028,0.05548095703125,-0.607879638671875,0.790740966796875,0.04583740234375,0.244140625,-0.8544921875,-0.79345703125,-0.1429443359375,0.01904296875,-0.9893798828125,-111.0,36.0,100.0,101240.0,0.706000030040741,0,0
178.492996,0.0555419921875,-0.6077880859375,0.790802001953125,0.0457763671875,0.48828125,1.64794921875,-0.30517578125,-0.1458740234375,0.023193359375,-0.959228515625,-110.0,35.0,100.0,101239.0,0.7080000042915344,0,0
178.499996,0.0555419921875,-0.607757568359375,0.79083251953125,0.045745849609375,2.685546875,2.44140625,-0.3662109375,-0.142822265625,0.0118408203125,-0.951171875,-110.0,35.0,100.0,101239.0,0.7080000042915344,0,0
178.506995,0.05548095703125,-0.6077880859375,0.790802001953125,0.04571533203125,-0.8544921875,-0.79345703125,-0.244140625,-0.1473388671875,0.0186767578125,-0.9700927734375,-110.0,35.0,100.0,101239.0,0.7080000042915344,0,0
178.527999,0.055511474609375,-0.607818603515625,0.790771484375,0.045745849609375,-0.67138671875,-0.732421875,0.54931640625,-0.1407470703125,-0.0185546875,-0.9744873046875,-110.0,35.0,100.0,101239.0,0.7080000042915344,0,0
178.534998,0.055450439453125,-0.607818603515625,0.790802001953125,0.04571533203125,1.40380859375,0.18310546875,0.42724609375,-0.14013671875,0.01318359375,-0.9693603515625,-110.0,35.0,100.0,101239.0,0.7080000042915344,0,0
178.541998,0.055419921875,-0.607818603515625,0.790802001953125,0.0457763671875,-0.06103515625,-0.06103515625,-0.91552734375,-0.1466064453125,0.0235595703125,-0.965087890625,-110.0,35.0,100.0,101239.0,0.7080000042915344,0,0
178.548997,0.055450439453125,-0.607818603515625,0.790802001953125,0.04571533203125,0.0,-0.6103515625,-0.732421875,-0.1468505859375,0.01708984375,-0.97216796875,-110.0,35.0,100.0,101239.0,0.7080000042915344,0,0
178.555996,0.055450439453125,-0.607818603515625,0.790802001953125,0.04571533203125,0.0,-0.18310546875,0.30517578125,-0.141357421875,0.004638671875,-0.9720458984375,-110.0,35.0,100.0,101239.0,0.7080000042915344,0,0
178.562996,0.055450439453125,-0.607818603515625,0.790802001953125,0.0457763671875,-0.732421875,-0.18310546875,-0.54931640625,-0.14892578125,0.02392578125,-0.9644775390625,-110.0,35.0,100.0,101239.0,0.7080000042915344,0,0
178.569996,0.055450439453125,-0.607818603515625,0.790802001953125,0.045745849609375,0.3662109375,-0.3662109375,0.48828125,-0.1412353515625,-0.00390625,-0.9705810546875,-110.0,35.0,100.0,101239.0,0.7080000042915344,0,0
178.576028,0.055450439453125,-0.607818603515625,0.790802001953125,0.045745849609375,0.3662109375,-0.3662109375,0.48828125,-0.1412353515625,-0.00390625,-0.9705810546875,-110.0,35.0,100.0,101239.0,0.7080000042915344,0,0
178.582996,0.055450439453125,-0.607818603515625,0.790802001953125,0.045745849609375,-0.30517578125,0.0,0.42724609375,-0.1422119140625,0.001708984375,-0.97021484375,-110.0,35.0,100.0,101240.0,0.706000030040741,0,0
178.589996,0.055450439453125,-0.607818603515625,0.790802001953125,0.045745849609375,-0.244140625,-0.3662109375,0.30517578125,-0.1396484375,-0.00390625,-0.968994140625,-111.0,35.0,99.0,101240.0,0.706000030040741,0,0
178.596996,0.05548095703125,-0.607757568359375,0.79083251953125,0.0457763671875,-0.244140625,-0.1220703125,-0.54931640625,-0.147705078125,0.0103759765625,-0.969482421875,-111.0,35.0,99.0,101240.0,0.706000030040741,0,0
178.604,0.05548095703125,-0.607757568359375,0.79083251953125,0.045806884765625,-0.30517578125,-0.1220703125,-0.06103515625,-0.1424560546875,0.0101318359375,-0.9720458984375,-111.0,35.0,99.0,101240.0,0.706000030040741,0,0
178.610999,0.05548095703125,-0.607757568359375,0.790802001953125,0.045806884765625,0.0,-0.06103515625,-0.1220703125,-0.1441650390625,0.0064697265625,-0.970703125,-111.0,35.0,99.0,101240.0,0.706000030040741,0,0
178.617994,0.05548095703125,-0.607757568359375,0.790802001953125,0.045806884765625,0.06103515625,-0.1220703125,-0.1220703125,-0.142333984375,0.0047607421875,-0.9716796875,-111.0,35.0,99.0,101240.0,0.706000030040741,0,0
178.624998,0.055511474609375,-0.607757568359375,0.790802001953125,0.04583740234375,-0.18310546875,0.1220703125,0.06103515625,-0.1435546875,0.004150390625,-0.9688720703125,-111.0,35.0,99.0,101240.0,0.706000030040741,0,0
178.631998,0.055511474609375,-0.607757568359375,0.790802001953125,0.04583740234375,-0.18310546875,-0.244140625,0.244140625,-0.14111328125,0.00244140625,-0.970458984375,-111.0,35.0,99.0,101240.0,0.706000030040741,0,0
178.638997,0.055511474609375,-0.607757568359375,0.790802001953125,0.045867919921875,-0.8544921875,-0.244140625,-0.244140625,-0.14697265625,0.012451171875,-0.9696044921875,-111.0,35.0,99.0,101240.0,0.706000030040741,0,0
178.645996,0.0555419921875,-0.607757568359375,0.790802001953125,0.045867919921875,-0.48828125,-0.244140625,-0.18310546875,-0.146484375,0.017822265625,-0.963623046875,-111.0,35.0,99.0,101240.0,0.706000030040741,0,0
178.652996,0.0555419921875,-0.607757568359375,0.790802001953125,0.045928955078125,-0.42724609375,-0.18310546875,-0.42724609375,-0.14892578125,0.0234375,-0.968017578125,-111.0,35.0,99.0,101240.0,0.706000030040741,0,0
178.659995,0.055572509765625,-0.607757568359375,0.790802001953125,0.045867919921875,0.244140625,0.18310546875,0.48828125,-0.1416015625,-0.008056640625,-0.96875,-111.0,35.0,99.0,101240.0,0.706000030040741,0,0
178.666996,0.055572509765625,-0.607757568359375,0.790802001953125,0.045928955078125,-1.220703125,-0.1220703125,-0.3662109375,-0.1478271484375,0.01806640625,-0.9620361328125,-111.0,35.0,99.0,101240.0,0.706000030040741,0,0
178.673027,0.055572509765625,-0.607757568359375,0.790802001953125,0.045928955078125,-1.220703125,-0.1220703125,-0.3662109375,-0.1478271484375,0.01806640625,-0.9620361328125,-111.0,35.0,99.0,101240.0,0.706000030040741,0,0
178.679996,0.0555419921875,-0.607818603515625,0.790771484375,0.045806884765625,-0.48828125,0.79345703125,-0.244140625,-0.1427001953125,0.001708984375,-0.9659423828125,-111.0,35.0,99.0,101240.0,0.706000030040741,0,0
178.700995,0.055572509765625,-0.607757568359375,0.790802001953125,0.0458984375,-0.8544921875,-1.03759765625,-0.48828125,-0.1463623046875,0.0186767578125,-0.9659423828125,-111.0,35.0,100.0,101240.0,0.7070000171661377,0,0
178.707994,0.055572509765625,-0.607757568359375,0.790802001953125,0.045928955078125,0.30517578125,0.54931640625,-0.732421875,-0.14306640625,0.0118408203125,-0.959716796875,-111.0,35.0,100.0,101240.0,0.7070000171661377,0,0
178.714998,0.05560302734375,-0.607757568359375,0.790802001953125,0.045867919921875,-1.5869140625,-1.0986328125,-0.18310546875,-0.1380615234375,-0.0079345703125,-0.968994140625,-111.0,35.0,100.0,101240.0,0.7070000171661377,0,0
178.721998,0.0556640625,-0.607757568359375,0.790802001953125,0.0458984375,-0.79345703125,0.42724609375,0.18310546875,-0.1463623046875,-0.0035400390625,-0.9761962890625,-111.0,35.0,100.0,101240.0,0.7070000171661377,0,0
178.728997,0.055633544921875,-0.6077880859375,0.790802001953125,0.0458984375,0.42724609375,0.54931640625,-1.220703125,-0.14404296875,0.0164794921875,-0.9683837890625,-111.0,35.0,100.0,101240.0,0.7070000171661377,0,0
178.735996,0.05560302734375,-0.6077880859375,0.790802001953125,0.045928955078125,-0.48828125,-1.708984375,1.28173828125,-0.1466064453125,0.0047607421875,-0.9718017578125,-111.0,35.0,100.0,101240.0,0.7070000171661377,0,0
178.742996,0.0555419921875,-0.607818603515625,0.790771484375,0.04595947265625,-1.46484375,-1.77001953125,0.30517578125,-0.140869140625,0.0001220703125,-0.965576171875,-111.0,35.0,100.0,101240.0,0.7070000171661377,0,0
178.749995,0.0555419921875,-0.607818603515625,0.790771484375,0.0460205078125,-0.67138671875,-0.91552734375,-0.30517578125,-0.1435546875,0.009521484375,-0.9735107421875,-111.0,35.0,100.0,101240.0,0.7070000171661377,0,0
178.756996,0.05560302734375,-0.6077880859375,0.790771484375,0.045928955078125,1.8310546875,-0.3662109375,0.6103515625,-0.1417236328125,-0.0023193359375,-0.9742431640625,-111.0,35.0,100.0,101240.0,0.7070000171661377,0,0
178.763027,0.05560302734375,-0.6077880859375,0.790771484375,0.045928955078125,1.8310546875,-0.3662109375,0.6103515625,-0.1417236328125,-0.0023193359375,-0.9742431640625,-111.0,35.0,100.0,101240.0,0.7070000171661377,0,0
178.769996,0.0555419921875,-0.607818603515625,0.790771484375,0.04595947265625,1.5869140625,1.3427734375,0.18310546875,-0.1407470703125,0.010498046875,-0.95458984375,-111.0,35.0,100.0,101240.0,0.7070000171661377,0,0
178.790995,0.055511474609375,-0.607818603515625,0.790740966796875,0.046173095703125,-1.15966796875,-2.13623046875,-0.3662109375,-0.1453857421875,0.0201416015625,-0.967529296875,-109.0,35.0,99.0,101240.0,0.7040000557899475,0,0
178.797994,0.055572509765625,-0.60772705078125,0.790802001953125,0.046173095703125,1.64794921875,-0.6103515625,-0.06103515625,-0.1414794921875,-0.000732421875,-0.969970703125,-109.0,35.0,99.0,101240.0,0.7040000557899475,0,0
178.804998,0.055633544921875,-0.60772705078125,0.79083251953125,0.0460205078125,1.28173828125,0.79345703125,0.79345703125,-0.1402587890625,-0.010986328125,-0.973876953125,-109.0,35.0,99.0,101240.0,0.7040000557899475,0,0
178.811998,0.055572509765625,-0.607696533203125,0.790863037109375,0.045928955078125,1.15966796875,1.15966796875,0.1220703125,-0.14501953125,0.0147705078125,-0.966552734375,-109.0,35.0,99.0,101240.0,0.7040000557899475,0,0
178.818997,0.055572509765625,-0.607696533203125,0.790863037109375,0.0458984375,1.220703125,0.8544921875,-0.67138671875,-0.1485595703125,0.0177001953125,-0.969482421875,-109.0,35.0,99.0,101240.0,0.7040000557899475,0,0
178.825996,0.05560302734375,-0.60772705078125,0.79083251953125,0.0458984375,-0.67138671875,-1.46484375,-0.9765625,-0.1468505859375,0.0238037109375,-0.971435546875,-109.0,35.0,99.0,101240.0,0.7040000557899475,0,0
178.832996,0.05560302734375,-0.60772705078125,0.79083251953125,0.045867919921875,1.0986328125,0.54931640625,0.18310546875,-0.146484375,0.0115966796875,-0.9654541015625,-109.0,35.0,99.0,101240.0,0.7040000557899475,0,0
178.839996,0.05560302734375,-0.60772705078125,0.79083251953125,0.045867919921875,0.48828125,0.67138671875,0.06103515625,-0.150634765625,0.01953125,-0.9530029296875,-109.0,35.0,99.0,101240.0,0.7040000557899475,0,0
178.847,0.055572509765625,-0.607696533203125,0.79083251953125,0.045989990234375,0.0,-0.06103515625,0.30517578125,-0.1405029296875,-0.0101318359375,-0.981689453125,-109.0,35.0,99.0,101240.0,0.7040000557899475,0,0
178.853999,0.055572509765625,-0.607696533203125,0.79083251953125,0.045989990234375,-0.06103515625,-0.732421875,0.1220703125,-0.1456298828125,0.0013427734375,-0.975341796875,-109.0,35.0,99.0,101240.0,0.7040000557899475,0,0
178.860032,0.055572509765625,-0.607696533203125,0.79083251953125,0.045989990234375,-0.06103515625,-0.732421875,0.1220703125,-0.1456298828125,0.0013427734375,-0.975341796875,-109.0,35.0,99.0,101240.0,0.7040000557899475,0,0
178.866996,0.05560302734375,-0.607696533203125,0.79083251953125,0.0460205078125,0.18310546875,-0.06103515625,0.244140625,-0.139892578125,-0.0015869140625,-0.967041015625,-109.0,35.0,99.0,101240.0,0.7040000557899475,0,0
178.874,0.05560302734375,-0.607696533203125,0.79083251953125,0.0460205078125,0.1220703125,0.0,-0.18310546875,-0.1424560546875,0.0086669921875,-0.969482421875,-109.0,35.0,99.0,101240.0,0.7040000557899475,0,0
178.880999,0.05560302734375,-0.607696533203125,0.79083251953125,0.0460205078125,0.244140625,0.06103515625,0.06103515625,-0.144775390625,0.008056640625,-0.968505859375,-109.0,35.0,99.0,101240.0,0.7040000557899475,0,0
178.887999,0.05560302734375,-0.607696533203125,0.79083251953125,0.046051025390625,-0.06103515625,-0.244140625,0.30517578125,-0.1395263671875,-0.0006103515625,-0.9739990234375,-109.0,35.0,98.0,101240.0,0.7040000557899475,0,0
178.894998,0.05560302734375,-0.607757568359375,0.790802001953125,0.046051025390625,-0.30517578125,-0.18310546875,0.3662109375,-0.14013671875,-0.0020751953125,-0.969482421875,-109.0,35.0,98.0,101240.0,0.7040000557899475,0,0
178.901998,0.05560302734375,-0.607757568359375,0.790802001953125,0.046051025390625,0.06103515625,0.0,0.0,-0.1436767578125,0.0064697265625,-0.9677734375,-109.0,35.0,98.0,101240.0,0.7040000557899475,0,0
178.908997,0.05560302734375,-0.607757568359375,0.790802001953125,0.046051025390625,-0.1220703125,-0.18310546875,0.1220703125,-0.141357421875,0.0047607421875,-0.96875,-109.0,35.0,98.0,101240.0,0.7040000557899475,0,0
178.915996,0.05560302734375,-0.607757568359375,0.790802001953125,0.04608154296875,0.06103515625,-0.1220703125,-0.1220703125,-0.141357421875,0.0093994140625,-0.9691162109375,-109.0,35.0,98.0,101240.0,0.7040000557899475,0,0
178.922996,0.055633544921875,-0.607757568359375,0.790802001953125,0.04608154296875,0.1220703125,0.0,-0.06103515625,-0.143798828125,0.00439453125,-0.9693603515625,-109.0,35.0,98.0,101240.0,0.7040000557899475,0,0
178.929995,0.055633544921875,-0.607757568359375,0.790802001953125,0.04608154296875,-0.244140625,-0.30517578125,0.0,-0.1441650390625,0.0062255859375,-0.97021484375,-109.0,35.0,98.0,101240.0,0.7040000557899475,0,0
178.936996,0.055633544921875,-0.607757568359375,0.790802001953125,0.046112060546875,-0.06103515625,0.0,-0.18310546875,-0.146728515625,0.0096435546875,-0.966796875,-109.0,35.0,98.0,101240.0,0.7070000171661377,0,0
178.943995,0.0556640625,-0.607757568359375,0.790802001953125,0.046112060546875,0.42724609375,0.0,0.244140625,-0.140869140625,-0.001220703125,-0.966552734375,-109.0,35.0,98.0,101240.0,0.7070000171661377,0,0
178.963996,0.055633544921875,-0.607757568359375,0.790771484375,0.04620361328125,-0.42724609375,-0.6103515625,-0.91552734375,-0.1495361328125,0.02490234375,-0.96435546875,-109.0,35.0,98.0,101240.0,0.7070000171661377,0,0
178.970995,0.055633544921875,-0.607757568359375,0.790771484375,0.046234130859375,0.48828125,0.06103515625,0.244140625,-0.1396484375,-0.0003662109375,-0.96484375,-109.0,35.0,98.0,101240.0,0.7070000171661377,0,0
178.977994,0.055633544921875,-0.607757568359375,0.790771484375,0.04620361328125,0.30517578125,0.18310546875,0.30517578125,-0.1412353515625,0.00146484375,-0.9683837890625,-109.0,35.0,98.0,101240.0,0.7070000171661377,0,0
178.984998,0.055633544921875,-0.607757568359375,0.790771484375,0.046234130859375,-0.1220703125,-0.18310546875,0.06103515625,-0.1422119140625,0.004150390625,-0.968994140625,-109.0,35.0,98.0,101240.0,0.7070000171661377,0,0
178.991998,0.055633544921875,-0.607574462890625,0.790924072265625,0.046234130859375,-0.30517578125,-0.18310546875,0.54931640625,-0.1422119140625,0.003662109375,-0.9697265625,-109.0,35.0,97.0,101240.0,0.7070000171661377,0,0
178.998997,0.0556640625,-0.607574462890625,0.790924072265625,0.0462646484375,-0.6103515625,0.06103515625,-0.244140625,-0.1488037109375,0.0086669921875,-0.9664306640625,-109.0,35.0,97.0,101240.0,0.7070000171661377,0,0
179.005996,0.055633544921875,-0.60760498046875,0.790924072265625,0.046295166015625,-2.74658203125,0.1220703125,-0.1220703125,-0.1483154296875,-0.0098876953125,-0.9766845703125,-109.0,35.0,97.0,101240.0,0.7070000171661377,0,0
179.012996,0.05560302734375,-0.60760498046875,0.790924072265625,0.046356201171875,-2.38037109375,-1.64794921875,0.0,-0.1346435546875,0.0047607421875,-0.979736328125,-109.0,35.0,97.0,101240.0,0.7070000171661377,0,0
179.019995,0.055633544921875,-0.60760498046875,0.7908935546875,0.046356201171875,0.8544921875,-0.18310546875,-0.1220703125,-0.14794921875,0.0081787109375,-0.974365234375,-109.0,35.0,97.0,101240.0,0.7070000171661377,0,0
179.026996,0.055694580078125,-0.60760498046875,0.790924072265625,0.046142578125,-0.3662109375,-0.9765625,0.54931640625,-0.140869140625,-0.010498046875,-0.97216796875,-109.0,35.0,97.0,101240.0,0.7070000171661377,0,0
179.033995,0.055694580078125,-0.60760498046875,0.790924072265625,0.046173095703125,-2.74658203125,-0.732421875,0.42724609375,-0.1456298828125,-0.014892578125,-0.9735107421875,-109.0,35.0,97.0,101240.0,0.7070000171661377,0,0
179.053996,0.055633544921875,-0.607635498046875,0.7908935546875,0.046112060546875,0.9765625,0.06103515625,-0.91552734375,-0.134033203125,0.011474609375,-0.9864501953125,-109.0,35.0,97.0,101240.0,0.7050000429153442,0,0
179.060995,0.055694580078125,-0.607666015625,0.790863037109375,0.04608154296875,0.48828125,-2.197265625,-0.18310546875,-0.13818359375,0.0074462890625,-0.9794921875,-109.0,35.0,97.0,101240.0,0.7050000429153442,0,0
179.067994,0.055694580078125,-0.607666015625,0.790863037109375,0.04608154296875,-0.48828125,0.06103515625,-0.54931640625,-0.1453857421875,0.0186767578125,-0.9595947265625,-109.0,35.0,97.0,101240.0,0.7050000429153442,0,0
179.074998,0.055694580078125,-0.607666015625,0.790863037109375,0.046112060546875,-0.42724609375,-0.06103515625,-0.18310546875,-0.1429443359375,0.0069580078125,-0.9622802734375,-109.0,35.0,97.0,101240.0,0.7050000429153442,0,0
179.081998,0.05572509765625,-0.607666015625,0.790863037109375,0.046051025390625,0.244140625,-0.48828125,0.06103515625,-0.1405029296875,-0.0108642578125,-0.980712890625,-109.0,35.0,97.0,101240.0,0.7050000429153442,0,0
179.088997,0.055755615234375,-0.607421875,0.791046142578125,0.046142578125,-2.25830078125,-2.01416015625,0.3662109375,-0.1483154296875,0.010498046875,-0.9774169921875,-108.0,35.0,95.0,101240.0,0.7050000429153442,0,0
179.095996,0.05572509765625,-0.60748291015625,0.791015625,0.04608154296875,0.91552734375,1.03759765625,-1.708984375,-0.1368408203125,0.01318359375,-0.96142578125,-108.0,35.0,95.0,101240.0,0.7050000429153442,0,0
179.102996,0.0557861328125,-0.607452392578125,0.791015625,0.046142578125,1.40380859375,-3.11279296875,0.732421875,-0.1395263671875,0.0135498046875,-0.97412109375,-108.0,35.0,95.0,101240.0,0.7050000429153442,0,0
179.109995,0.055755615234375,-0.607452392578125,0.791015625,0.046173095703125,-0.6103515625,-0.18310546875,-0.91552734375,-0.1407470703125,0.0203857421875,-0.9691162109375,-108.0,35.0,95.0,101240.0,0.7050000429153442,0,0
179.117,0.055755615234375,-0.607452392578125,0.791015625,0.046112060546875,1.220703125,0.91552734375,0.0,-0.1400146484375,0.0087890625,-0.96142578125,-108.0,35.0,95.0,101240.0,0.7050000429153442,0,0
179.123999,0.05572509765625,-0.60748291015625,0.790985107421875,0.046142578125,1.52587890625,0.18310546875,0.0,-0.144287109375,0.0218505859375,-0.95654296875,-108.0,35.0,95.0,101240.0,0.7050000429153442,0,0
179.130999,0.05572509765625,-0.60748291015625,0.790985107421875,0.04620361328125,-1.46484375,-1.28173828125,0.18310546875,-0.1439208984375,0.00732421875,-0.974365234375,-108.0,35.0,95.0,101240.0,0.7050000429153442,0,0
179.137031,0.05572509765625,-0.60748291015625,0.790985107421875,0.04620361328125,-1.46484375,-1.28173828125,0.18310546875,-0.1439208984375,0.00732421875,-0.974365234375,-108.0,35.0,95.0,101240.0,0.7050000429153442,0,0
179.144,0.05572509765625,-0.607513427734375,0.790985107421875,0.046234130859375,-1.52587890625,-0.9765625,0.244140625,-0.1395263671875,-0.0064697265625,-0.9739990234375,-108.0,35.0,95.0,101240.0,0.7070000171661377,0,0
179.150999,0.055755615234375,-0.607513427734375,0.790985107421875,0.04620361328125,-1.220703125,-1.3427734375,0.42724609375,-0.141845703125,-0.005859375,-0.973388671875,-108.0,35.0,95.0,101240.0,0.7070000171661377,0,0
179.157999,0.0557861328125,-0.607513427734375,0.790985107421875,0.046173095703125,-0.3662109375,-0.9765625,0.06103515625,-0.1427001953125,-0.0042724609375,-0.9739990234375,-108.0,35.0,95.0,101240.0,0.7070000171661377,0,0
179.164998,0.055816650390625,-0.607513427734375,0.790985107421875,0.046173095703125,-0.42724609375,-0.244140625,0.3662109375,-0.141845703125,-0.0059814453125,-0.9661865234375,-108.0,35.0,95.0,101240.0,0.7070000171661377,0,0
179.171998,0.0557861328125,-0.607513427734375,0.790985107421875,0.046234130859375,0.48828125,-0.06103515625,0.3662109375,-0.1409912109375,0.0052490234375,-0.9678955078125,-108.0,35.0,95.0,101240.0,0.7070000171661377,0,0
179.178997,0.055816650390625,-0.607513427734375,0.790985107421875,0.046173095703125,0.06103515625,0.42724609375,0.3662109375,-0.138671875,-0.0150146484375,-0.9674072265625,-108.0,35.0,95.0,101240.0,0.7070000171661377,0,0
179.185996,0.05584716796875,-0.607513427734375,0.790985107421875,0.046173095703125,-0.06103515625,-0.732421875,0.42724609375,-0.1412353515625,-0.01220703125,-0.9736328125,-108.0,35.0,95.0,101240.0,0.7070000171661377,0,0
179.192996,0.055877685546875,-0.607421875,0.791046142578125,0.046112060546875,0.06103515625,-0.18310546875,0.9765625,-0.1424560546875,-0.0118408203125,-0.9744873046875,-108.0,34.0,95.0,101240.0,0.7070000171661377,0,0
179.199996,0.055877685546875,-0.607421875,0.791046142578125,0.046173095703125,0.6103515625,0.6103515625,0.54931640625,-0.14208984375,-0.0057373046875,-0.96630859375,-108.0,34.0,95.0,101240.0,0.7070000171661377,0,0
179.207,0.055877685546875,-0.607421875,0.791046142578125,0.04620361328125,0.42724609375,0.1220703125,0.48828125,-0.14208984375,0.0001220703125,-0.9691162109375,-108.0,34.0,95.0,101240.0,0.7070000171661377,0,0
179.227026,0.055877685546875,-0.607421875,0.791046142578125,0.04620361328125,-0.18310546875,-0.1220703125,0.244140625,-0.1409912109375,0.0032958984375,-0.9683837890625,-108.0,34.0,95.0,101240.0,0.7070000171661377,0,0
179.233996,0.055877685546875,-0.607421875,0.791046142578125,0.046234130859375,0.0,0.0,-0.1220703125,-0.14453125,0.00927734375,-0.96630859375,-108.0,34.0,95.0,101240.0,0.7050000429153442,0,0
179.240995,0.055877685546875,-0.607421875,0.791046142578125,0.0462646484375,-0.30517578125,0.06103515625,-0.06103515625,-0.1439208984375,0.0093994140625,-0.9686279296875,-108.0,34.0,95.0,101240.0,0.7050000429153442,0,0
179.247994,0.055877685546875,-0.607421875,0.791046142578125,0.0462646484375,0.0,-0.30517578125,-0.244140625,-0.1436767578125,0.007080078125,-0.9683837890625,-108.0,34.0,95.0,101240.0,0.7050000429153442,0,0
179.254998,0.055877685546875,-0.607421875,0.791046142578125,0.0462646484375,0.0,0.0,-0.06103515625,-0.1412353515625,0.0059814453125,-0.969482421875,-108.0,34.0,95.0,101240.0,0.7050000429153442,0,0
179.261998,0.055877685546875,-0.607421875,0.791046142578125,0.0462646484375,-0.3662109375,0.0,-0.30517578125,-0.1417236328125,0.0081787109375,-0.970703125,-108.0,34.0,95.0,101240.0,0.7050000429153442,0,0
179.268997,0.05584716796875,-0.607421875,0.791046142578125,0.046295166015625,-0.30517578125,-0.18310546875,0.244140625,-0.1407470703125,0.005615234375,-0.96923828125,-108.0,34.0,95.0,101240.0,0.7050000429153442,0,0
179.275996,0.05584716796875,-0.607421875,0.791046142578125,0.046234130859375,0.91552734375,0.67138671875,0.1220703125,-0.139892578125,0.0023193359375,-0.967041015625,-108.0,34.0,95.0,101240.0,0.7050000429153442,0,0
179.282996,0.05584716796875,-0.607421875,0.791046142578125,0.046234130859375,-0.91552734375,-0.3662109375,-0.06103515625,-0.1456298828125,0.0125732421875,-0.9678955078125,-108.0,34.0,95.0,101240.0,0.7050000429153442,0,0
179.289995,0.055877685546875,-0.607269287109375,0.791168212890625,0.046234130859375,-0.244140625,-0.1220703125,-0.244140625,-0.14208984375,0.006591796875,-0.965087890625,-108.0,35.0,94.0,101240.0,0.7050000429153442,0,0
179.296996,0.055877685546875,-0.607269287109375,0.791168212890625,0.0462646484375,-0.8544921875,-0.91552734375,-0.54931640625,-0.1480712890625,0.016845703125,-0.9697265625,-108.0,35.0,94.0,101240.0,0.7050000429153442,0,0
179.317998,0.055908203125,-0.607269287109375,0.791168212890625,0.046142578125,0.6103515625,0.42724609375,0.18310546875,-0.143310546875,0.0025634765625,-0.9781494140625,-108.0,35.0,94.0,101240.0,0.7050000429153442,0,0
179.324026,0.055908203125,-0.607269287109375,0.791168212890625,0.046142578125,0.6103515625,0.42724609375,0.18310546875,-0.143310546875,0.0025634765625,-0.9781494140625,-108.0,35.0,94.0,101240.0,0.7050000429153442,0,0
179.330995,0.055877685546875,-0.6072998046875,0.7911376953125,0.046295166015625,-0.30517578125,-0.6103515625,-1.0986328125,-0.1478271484375,0.02880859375,-0.9525146484375,-108.0,35.0,94.0,101240.0,0.7050000429153442,0,0
179.337994,0.05584716796875,-0.6072998046875,0.7911376953125,0.0462646484375,-0.42724609375,1.52587890625,-0.244140625,-0.1431884765625,0.003173828125,-0.9613037109375,-108.0,35.0,94.0,101240.0,0.706000030040741,0,0
179.344998,0.05584716796875,-0.6072998046875,0.7911376953125,0.046234130859375,-1.77001953125,-0.8544921875,-0.18310546875,-0.146484375,0.0030517578125,-0.980712890625,-108.0,35.0,94.0,101240.0,0.706000030040741,0,0
179.351998,0.05584716796875,-0.6072998046875,0.7911376953125,0.046234130859375,-0.06103515625,-0.30517578125,-0.1220703125,-0.1436767578125,0.0067138671875,-0.969970703125,-108.0,35.0,94.0,101240.0,0.706000030040741,0,0
179.358997,0.055908203125,-0.6072998046875,0.7911376953125,0.046142578125,0.54931640625,-0.67138671875,0.67138671875,-0.13720703125,-0.016845703125,-0.97509765625,-108.0,35.0,94.0,101240.0,0.706000030040741,0,0
179.365996,0.055877685546875,-0.607269287109375,0.7911376953125,0.046112060546875,-1.953125,-0.67138671875,0.9765625,-0.1453857421875,0.0028076171875,-0.972900390625,-108.0,35.0,94.0,101240.0,0.706000030040741,0,0
179.372996,0.055816650390625,-0.6072998046875,0.7911376953125,0.046051025390625,0.9765625,1.64794921875,-0.244140625,-0.1416015625,0.0159912109375,-0.9735107421875,-108.0,35.0,94.0,101240.0,0.706000030040741,0,0
179.379995,0.05584716796875,-0.607269287109375,0.791168212890625,0.045928955078125,1.52587890625,0.54931640625,1.03759765625,-0.13623046875,-0.009521484375,-0.9698486328125,-108.0,35.0,94.0,101240.0,0.706000030040741,0,0
179.386996,0.055816650390625,-0.6072998046875,0.7911376953125,0.046173095703125,-0.3662109375,-0.3662109375,-0.79345703125,-0.14208984375,0.0103759765625,-0.9503173828125,-108.0,35.0,94.0,101240.0,0.706000030040741,0,0
179.393995,0.055877685546875,-0.60711669921875,0.791290283203125,0.046142578125,0.732421875,-1.52587890625,0.06103515625,-0.1531982421875,0.0179443359375,-0.955810546875,-109.0,36.0,95.0,101240.0,0.706000030040741,0,0
179.400994,0.055816650390625,-0.60711669921875,0.791259765625,0.046234130859375,-3.60107421875,-0.732421875,0.06103515625,-0.1387939453125,0.0003662109375,-0.9759521484375,-109.0,36.0,95.0,101240.0,0.706000030040741,0,0
179.407998,0.055816650390625,-0.60711669921875,0.791259765625,0.046295166015625,-0.244140625,-1.52587890625,0.244140625,-0.1416015625,0.0137939453125,-0.981201171875,-109.0,36.0,95.0,101240.0,0.706000030040741,0,0
179.414026,0.055816650390625,-0.60711669921875,0.791259765625,0.046295166015625,-0.244140625,-1.52587890625,0.244140625,-0.1416015625,0.0137939453125,-0.981201171875,-109.0,36.0,95.0,101240.0,0.706000030040741,0,0
179.420999,0.055877685546875,-0.60711669921875,0.791259765625,0.04632568359375,-1.03759765625,-1.89208984375,-0.1220703125,-0.1392822265625,-0.0106201171875,-0.9708251953125,-109.0,36.0,95.0,101240.0,0.706000030040741,0,0
179.427999,0.05596923828125,-0.607086181640625,0.791290283203125,0.046112060546875,-0.48828125,0.1220703125,1.03759765625,-0.135986328125,-0.017822265625,-0.96875,-109.0,36.0,95.0,101240.0,0.706000030040741,0,0
179.434998,0.055938720703125,-0.607086181640625,0.791290283203125,0.04608154296875,-0.18310546875,0.6103515625,0.8544921875,-0.1353759765625,-0.016357421875,-0.9666748046875,-109.0,36.0,95.0,101240.0,0.706000030040741,0,0
179.441998,0.055908203125,-0.60711669921875,0.791259765625,0.046142578125,0.42724609375,0.0,-1.220703125,-0.1527099609375,0.03466796875,-0.9727783203125,-109.0,36.0,95.0,101240.0,0.706000030040741,0,0
179.448997,0.05596923828125,-0.60711669921875,0.791259765625,0.04608154296875,0.06103515625,-1.0986328125,0.48828125,-0.1358642578125,-0.0135498046875,-0.9813232421875,-109.0,36.0,95.0,101240.0,0.706000030040741,0,0
179.455996,0.055938720703125,-0.60711669921875,0.791290283203125,0.045989990234375,-0.48828125,1.52587890625,0.8544921875,-0.1373291015625,-0.009765625,-0.9573974609375,-109.0,36.0,95.0,101240.0,0.706000030040741,0,0
179.462996,0.055908203125,-0.607086181640625,0.79132080078125,0.0458984375,1.5869140625,1.03759765625,0.3662109375,-0.14306640625,0.0113525390625,-0.9635009765625,-109.0,36.0,95.0,101240.0,0.706000030040741,0,0
179.469996,0.055938720703125,-0.607086181640625,0.79132080078125,0.0458984375,1.03759765625,-0.732421875,0.54931640625,-0.142578125,0.0084228515625,-0.9779052734375,-109.0,36.0,95.0,101240.0,0.706000030040741,0,0
179.490999,0.055908203125,-0.606658935546875,0.7916259765625,0.0458984375,0.244140625,0.54931640625,-0.1220703125,-0.1453857421875,0.0111083984375,-0.9609375,-109.0,37.0,94.0,101240.0,0.706000030040741,0,0
179.497998,0.055908203125,-0.606658935546875,0.7916259765625,0.045928955078125,0.1220703125,0.244140625,-0.42724609375,-0.1470947265625,0.0128173828125,-0.9708251953125,-109.0,37.0,94.0,101240.0,0.706000030040741,0,0
179.504998,0.055908203125,-0.606658935546875,0.7916259765625,0.045928955078125,-0.1220703125,-0.1220703125,0.30517578125,-0.1412353515625,0.0023193359375,-0.9736328125,-109.0,37.0,94.0,101240.0,0.706000030040741,0,0
179.51103,0.055908203125,-0.606658935546875,0.7916259765625,0.045928955078125,-0.1220703125,-0.1220703125,0.30517578125,-0.1412353515625,0.0023193359375,-0.9736328125,-109.0,37.0,94.0,101240.0,0.706000030040741,0,0
179.517994,0.055938720703125,-0.606658935546875,0.7916259765625,0.045928955078125,-0.06103515625,-0.67138671875,-0.18310546875,-0.14208984375,0.0126953125,-0.9727783203125,-109.0,37.0,94.0,101240.0,0.706000030040741,0,0
179.524998,0.055938720703125,-0.606658935546875,0.7916259765625,0.04595947265625,-0.30517578125,-0.06103515625,-0.1220703125,-0.1439208984375,0.0107421875,-0.968505859375,-109.0,37.0,94.0,101240.0,0.706000030040741,0,0
179.531998,0.055938720703125,-0.606658935546875,0.7916259765625,0.04595947265625,-0.1220703125,0.244140625,-0.18310546875,-0.139892578125,0.0035400390625,-0.9678955078125,-109.0,37.0,94.0,101240.0,0.7070000171661377,0,0
179.538997,0.055938720703125,-0.606658935546875,0.7916259765625,0.045928955078125,-0.18310546875,0.0,-0.1220703125,-0.14208984375,0.0048828125,-0.9737548828125,-109.0,37.0,94.0,101240.0,0.7070000171661377,0,0
179.545996,0.055938720703125,-0.606658935546875,0.7916259765625,0.04595947265625,0.0,-0.30517578125,0.18310546875,-0.1424560546875,0.0054931640625,-0.970947265625,-109.0,37.0,94.0,101240.0,0.7070000171661377,0,0
179.552996,0.055938720703125,-0.606658935546875,0.7916259765625,0.04595947265625,0.244140625,0.18310546875,0.06103515625,-0.1434326171875,0.005615234375,-0.966796875,-109.0,37.0,94.0,101240.0,0.7070000171661377,0,0
