Time stamp(sec),quaternion_0,quaternion_1,quaternion_2,quaternion_3,roll_angular_rate,pitch_angular_rate,yaw_angular_rate,acc_X,acc_Y,acc_Z,mag_X,mag_Y,mag_Z,pressure,altitude
0.031103999994229525,-0.01837158203125,-0.27825927734375,0.443084716796875,-0.851959228515625,0.30517578125,-0.18310546875,0.06103515625,0.49072265625,-0.74462890625,0.454345703125,-190.0,112.0,-287.0,102747.0,-11.772000312805176,0,0
0.03137699997751042,-0.01837158203125,-0.27825927734375,0.443084716796875,-0.851959228515625,-0.48828125,0.0,0.0,0.4918212890625,-0.745361328125,0.4539794921875,-190.0,112.0,-287.0,102747.0,-11.773000717163086,0,0
0.03150159999495372,-0.01837158203125,-0.27825927734375,0.443084716796875,-0.851959228515625,0.06103515625,-0.06103515625,0.06103515625,0.4901123046875,-0.7481689453125,0.4547119140625,-190.0,112.0,-287.0,102747.0,-11.773000717163086,0,0
0.03160960000241175,-0.01837158203125,-0.27825927734375,0.443084716796875,-0.851959228515625,0.06103515625,-0.06103515625,0.06103515625,0.4901123046875,-0.7481689453125,0.4547119140625,-190.0,112.0,-287.0,102747.0,-11.773000717163086,0,0
0.031715899996925145,-0.01837158203125,-0.27825927734375,0.443115234375,-0.851959228515625,0.06103515625,-0.18310546875,-0.06103515625,0.4937744140625,-0.7462158203125,0.452880859375,-190.0,112.0,-287.0,102747.0,-11.773000717163086,0,0
0.03182010000455193,-0.01837158203125,-0.27825927734375,0.443084716796875,-0.851959228515625,0.244140625,0.18310546875,0.0,0.4935302734375,-0.746337890625,0.455322265625,-190.0,112.0,-287.0,102747.0,-11.773000717163086,0,0
0.03191969997715205,-0.01837158203125,-0.27825927734375,0.443084716796875,-0.851959228515625,-0.1220703125,-0.06103515625,0.18310546875,0.494384765625,-0.7481689453125,0.4544677734375,-190.0,112.0,-287.0,102747.0,-11.773000717163086,0,0
0.0322141999786254,-0.01837158203125,-0.27825927734375,0.443115234375,-0.851959228515625,-0.3662109375,0.1220703125,0.0,0.494140625,-0.7501220703125,0.45361328125,-190.0,112.0,-287.0,102747.0,-11.773000717163086,0,0
0.032326299988199025,-0.01837158203125,-0.27825927734375,0.443115234375,-0.851959228515625,0.06103515625,0.1220703125,-0.06103515625,0.4935302734375,-0.7481689453125,0.4530029296875,-190.0,112.0,-287.0,102747.0,-11.773000717163086,0,0
0.03242609999142587,-0.01837158203125,-0.27825927734375,0.443115234375,-0.851959228515625,0.06103515625,-0.244140625,-0.06103515625,0.4918212890625,-0.7474365234375,0.4530029296875,-190.0,112.0,-287.0,102747.0,-11.773000717163086,0,0
0.03252239999710582,-0.01837158203125,-0.27825927734375,0.443115234375,-0.851959228515625,0.244140625,-0.1220703125,0.1220703125,0.491455078125,-0.744873046875,0.4525146484375,-190.0,112.0,-287.0,102747.0,-11.773000717163086,0,0
0.0326080999802798,-0.01837158203125,-0.27825927734375,0.443084716796875,-0.851959228515625,0.244140625,-0.06103515625,0.18310546875,0.49072265625,-0.741943359375,0.452392578125,-190.0,112.0,-287.0,102747.0,-11.773000717163086,0,0
0.032695400004740804,-0.01837158203125,-0.27825927734375,0.443115234375,-0.851959228515625,0.0,0.0,0.18310546875,0.4881591796875,-0.745361328125,0.45166015625,-191.0,112.0,-287.0,102747.0,-11.773000717163086,0,0
0.09853829999337904,-0.018463134765625,-0.2781982421875,0.443145751953125,-0.851959228515625,0.0,-0.30517578125,0.06103515625,0.4898681640625,-0.747314453125,0.4537353515625,-191.0,112.0,-287.0,102747.0,-11.773000717163086,0,0
0.09862089998205192,-0.018463134765625,-0.2781982421875,0.443145751953125,-0.851959228515625,0.42724609375,-0.1220703125,-0.30517578125,0.492919921875,-0.7476806640625,0.4527587890625,-191.0,112.0,-287.0,102747.0,-11.773000717163086,0,0
0.0987011999823153,-0.018463134765625,-0.2781982421875,0.443145751953125,-0.851959228515625,0.06103515625,-0.1220703125,-0.42724609375,0.4912109375,-0.745849609375,0.4530029296875,-191.0,112.0,-287.0,102747.0,-11.773000717163086,0,0
0.09877379998215474,-0.018463134765625,-0.2781982421875,0.443145751953125,-0.851959228515625,0.18310546875,0.0,-0.1220703125,0.4913330078125,-0.7449951171875,0.4541015625,-191.0,112.0,-287.0,102747.0,-11.773000717163086,0,0
0.09884629998123273,-0.018463134765625,-0.2781982421875,0.443145751953125,-0.851959228515625,-0.06103515625,-0.06103515625,0.0,0.4888916015625,-0.7442626953125,0.4521484375,-191.0,112.0,-287.0,102747.0,-11.773000717163086,0,0
0.09974899998633191,-0.018463134765625,-0.2781982421875,0.443145751953125,-0.851959228515625,-0.18310546875,-0.18310546875,-0.244140625,0.4898681640625,-0.74267578125,0.451171875,-191.0,112.0,-287.0,102747.0,-11.773000717163086,0,0
0.0998210999823641,-0.018463134765625,-0.2781982421875,0.443145751953125,-0.851959228515625,0.0,-0.1220703125,0.06103515625,0.489501953125,-0.7445068359375,0.453125,-191.0,112.0,-287.0,102747.0,-11.773000717163086,0,0
0.09988979998161085,-0.018463134765625,-0.2781982421875,0.443145751953125,-0.851959228515625,0.0,-0.1220703125,0.06103515625,0.489501953125,-0.7445068359375,0.453125,-191.0,112.0,-287.0,102747.0,-11.773000717163086,0,0
0.09995799997705035,-0.018463134765625,-0.278167724609375,0.443145751953125,-0.851959228515625,-0.1220703125,0.0,0.30517578125,0.4898681640625,-0.7459716796875,0.454345703125,-191.0,112.0,-287.0,102746.0,-11.771000862121582,0,0
0.10002389998408034,-0.018463134765625,-0.278167724609375,0.443145751953125,-0.85198974609375,-0.244140625,0.0,0.06103515625,0.4893798828125,-0.7459716796875,0.453857421875,-191.0,112.0,-287.0,102746.0,-11.771000862121582,0,0
0.10009049999644049,-0.018463134765625,-0.278167724609375,0.443145751953125,-0.85198974609375,-0.1220703125,0.0,0.06103515625,0.4903564453125,-0.7462158203125,0.4530029296875,-191.0,112.0,-287.0,102746.0,-11.771000862121582,0,0
0.16483490000246093,-0.018463134765625,-0.278167724609375,0.443145751953125,-0.85198974609375,-0.1220703125,0.06103515625,0.244140625,0.4903564453125,-0.745361328125,0.4537353515625,-191.0,112.0,-287.0,102746.0,-11.771000862121582,0,0
0.16491249998216517,-0.018463134765625,-0.278167724609375,0.443145751953125,-0.85198974609375,-0.30517578125,-0.06103515625,-0.06103515625,0.4901123046875,-0.7447509765625,0.45263671875,-191.0,112.0,-287.0,102746.0,-11.771000862121582,0,0
0.1649840000027325,-0.018463134765625,-0.278167724609375,0.443145751953125,-0.851959228515625,-0.3662109375,-0.18310546875,0.1220703125,0.490966796875,-0.745849609375,0.45166015625,-191.0,112.0,-287.0,102746.0,-11.771000862121582,0,0
0.16504959997837432,-0.018463134765625,-0.278167724609375,0.443145751953125,-0.851959228515625,-0.18310546875,-0.30517578125,0.0,0.489990234375,-0.7470703125,0.452880859375,-191.0,112.0,-287.0,102746.0,-11.771000862121582,0,0
0.1651166999945417,-0.018463134765625,-0.278167724609375,0.443145751953125,-0.851959228515625,-0.18310546875,-0.30517578125,0.0,0.489990234375,-0.7470703125,0.452880859375,-191.0,112.0,-287.0,102746.0,-11.771000862121582,0,0
0.1678280999767594,-0.018463134765625,-0.278167724609375,0.443145751953125,-0.85198974609375,0.30517578125,-0.1220703125,-0.06103515625,0.4910888671875,-0.746337890625,0.45458984375,-190.0,112.0,-288.0,102746.0,-11.771000862121582,0,0
0.16791069999453612,-0.018463134765625,-0.278167724609375,0.443145751953125,-0.85198974609375,0.0,-0.18310546875,0.244140625,0.4912109375,-0.7457275390625,0.4554443359375,-190.0,112.0,-288.0,102746.0,-11.771000862121582,0,0
0.16802799998549744,-0.018463134765625,-0.278167724609375,0.443145751953125,-0.85198974609375,0.0,-0.1220703125,0.0,0.4908447265625,-0.7454833984375,0.4521484375,-190.0,112.0,-288.0,102746.0,-11.771000862121582,0,0
0.1680960999801755,-0.018463134765625,-0.278167724609375,0.443145751953125,-0.85198974609375,-0.18310546875,0.1220703125,-0.06103515625,0.4918212890625,-0.745361328125,0.4522705078125,-190.0,112.0,-288.0,102746.0,-11.771000862121582,0,0
0.16816109998035245,-0.018463134765625,-0.278167724609375,0.443145751953125,-0.851959228515625,-0.18310546875,-0.18310546875,0.244140625,0.49365234375,-0.7462158203125,0.45361328125,-190.0,112.0,-288.0,102746.0,-11.771000862121582,0,0
0.16822520000278018,-0.018463134765625,-0.278167724609375,0.443145751953125,-0.851959228515625,-0.244140625,-0.30517578125,0.244140625,0.4923095703125,-0.7474365234375,0.4522705078125,-190.0,112.0,-288.0,102746.0,-11.771000862121582,0,0
0.2379120999830775,-0.018463134765625,-0.278167724609375,0.443145751953125,-0.85198974609375,0.1220703125,0.0,-0.06103515625,0.4912109375,-0.74658203125,0.4527587890625,-190.0,112.0,-288.0,102746.0,-11.771000862121582,0,0
0.23799589998088777,-0.018463134765625,-0.278167724609375,0.443145751953125,-0.851959228515625,0.0,-0.244140625,-0.18310546875,0.491455078125,-0.7474365234375,0.4559326171875,-190.0,112.0,-288.0,102746.0,-11.771000862121582,0,0
0.23806529998546466,-0.018463134765625,-0.278167724609375,0.443145751953125,-0.851959228515625,0.0,-0.244140625,-0.18310546875,0.491455078125,-0.7474365234375,0.4559326171875,-190.0,112.0,-288.0,102746.0,-11.771000862121582,0,0
0.2381323000008706,-0.018463134765625,-0.278167724609375,0.443145751953125,-0.851959228515625,-0.06103515625,-0.244140625,0.1220703125,0.493896484375,-0.7469482421875,0.4547119140625,-190.0,112.0,-288.0,102747.0,-11.773000717163086,0,0
0.23820890000206418,-0.018463134765625,-0.278167724609375,0.443145751953125,-0.851959228515625,0.1220703125,-0.1220703125,-0.244140625,0.4931640625,-0.7491455078125,0.4534912109375,-190.0,112.0,-288.0,102747.0,-11.773000717163086,0,0
0.23827499998151325,-0.018463134765625,-0.278167724609375,0.443145751953125,-0.851959228515625,0.06103515625,-0.1220703125,-0.1220703125,0.4913330078125,-0.7469482421875,0.4527587890625,-190.0,112.0,-288.0,102747.0,-11.773000717163086,0,0
0.2383413999923505,-0.018463134765625,-0.278167724609375,0.443145751953125,-0.851959228515625,0.06103515625,0.06103515625,-0.1220703125,0.4925537109375,-0.7467041015625,0.45068359375,-190.0,112.0,-288.0,102747.0,-11.773000717163086,0,0
0.23851979998289607,-0.018463134765625,-0.278167724609375,0.443145751953125,-0.851959228515625,0.3662109375,-0.30517578125,0.0,0.4910888671875,-0.74609375,0.4522705078125,-190.0,112.0,-288.0,102747.0,-11.773000717163086,0,0
0.23858489998383448,-0.018463134765625,-0.2781982421875,0.443145751953125,-0.851959228515625,-0.06103515625,0.18310546875,0.0,0.4921875,-0.746337890625,0.4530029296875,-190.0,112.0,-288.0,102747.0,-11.773000717163086,0,0
0.23873949999688193,-0.018463134765625,-0.2781982421875,0.443145751953125,-0.851959228515625,0.3662109375,0.1220703125,0.244140625,0.491943359375,-0.7437744140625,0.4521484375,-190.0,112.0,-288.0,102747.0,-11.773000717163086,0,0
0.23881280000205152,-0.018463134765625,-0.278167724609375,0.443145751953125,-0.851959228515625,0.06103515625,0.0,0.0,0.4912109375,-0.7449951171875,0.4520263671875,-190.0,112.0,-288.0,102747.0,-11.773000717163086,0,0
0.23888249997980893,-0.018463134765625,-0.278167724609375,0.443145751953125,-0.851959228515625,0.1220703125,-0.06103515625,-0.06103515625,0.489990234375,-0.7452392578125,0.4539794921875,-190.0,112.0,-288.0,102747.0,-11.773000717163086,0,0
0.23894969999673776,-0.018463134765625,-0.278167724609375,0.443145751953125,-0.851959228515625,0.1220703125,-0.06103515625,-0.06103515625,0.489990234375,-0.7452392578125,0.4539794921875,-190.0,112.0,-288.0,102747.0,-11.773000717163086,0,0
0.29223609998007305,-0.0185546875,-0.278106689453125,0.44317626953125,-0.851959228515625,0.0,-0.30517578125,0.1220703125,0.49072265625,-0.745361328125,0.4525146484375,-190.0,113.0,-289.0,102747.0,-11.773000717163086,0,0
0.29231459999573417,-0.018585205078125,-0.278106689453125,0.44317626953125,-0.851959228515625,-0.1220703125,0.06103515625,-0.1220703125,0.4921875,-0.74609375,0.4542236328125,-190.0,113.0,-289.0,102747.0,-11.773000717163086,0,0
0.29238379999878816,-0.018585205078125,-0.278106689453125,0.44317626953125,-0.851959228515625,0.1220703125,-0.06103515625,-0.30517578125,0.4901123046875,-0.7447509765625,0.4517822265625,-190.0,113.0,-289.0,102747.0,-11.773000717163086,0,0
0.2924520999949891,-0.018585205078125,-0.278106689453125,0.44317626953125,-0.851959228515625,-0.18310546875,-0.244140625,0.06103515625,0.48974609375,-0.7451171875,0.453369140625,-190.0,113.0,-289.0,102747.0,-11.773000717163086,0,0
0.29251959998509847,-0.018585205078125,-0.278106689453125,0.44317626953125,-0.851959228515625,0.18310546875,0.18310546875,-0.1220703125,0.4906005859375,-0.7452392578125,0.4542236328125,-190.0,113.0,-289.0,102747.0,-11.773000717163086,0,0
0.2950399999972433,-0.018585205078125,-0.278106689453125,0.44317626953125,-0.85198974609375,0.1220703125,-0.1220703125,0.1220703125,0.4896240234375,-0.741943359375,0.4552001953125,-190.0,113.0,-289.0,102747.0,-11.773000717163086,0,0
0.29513260000385344,-0.018585205078125,-0.278106689453125,0.44317626953125,-0.85198974609375,0.1220703125,-0.1220703125,0.1220703125,0.4896240234375,-0.741943359375,0.4552001953125,-190.0,113.0,-289.0,102747.0,-11.773000717163086,0,0
0.29520759999286383,-0.0185546875,-0.278106689453125,0.44317626953125,-0.85198974609375,0.18310546875,-0.06103515625,0.06103515625,0.4884033203125,-0.7470703125,0.454345703125,-190.0,113.0,-289.0,102747.0,-11.773000717163086,0,0
0.29527790000429377,-0.0185546875,-0.278106689453125,0.44317626953125,-0.85198974609375,-0.06103515625,0.0,-0.1220703125,0.489990234375,-0.7451171875,0.4544677734375,-190.0,113.0,-289.0,102747.0,-11.773000717163086,0,0
0.2953496999980416,-0.0185546875,-0.278106689453125,0.44317626953125,-0.85198974609375,-0.06103515625,-0.1220703125,-0.1220703125,0.490478515625,-0.7459716796875,0.45361328125,-190.0,113.0,-289.0,102747.0,-11.772000312805176,0,0
0.29542229999788105,-0.0185546875,-0.278106689453125,0.44317626953125,-0.85198974609375,-0.244140625,-0.244140625,-0.18310546875,0.4901123046875,-0.7469482421875,0.452392578125,-190.0,113.0,-289.0,102747.0,-11.772000312805176,0,0
0.3568102999997791,-0.0185546875,-0.278106689453125,0.44317626953125,-0.85198974609375,-0.1220703125,-0.06103515625,0.1220703125,0.4920654296875,-0.7457275390625,0.45263671875,-190.0,113.0,-289.0,102747.0,-11.772000312805176,0,0
0.3569584999931976,-0.018585205078125,-0.278106689453125,0.44317626953125,-0.85198974609375,0.06103515625,-0.18310546875,-0.18310546875,0.49267578125,-0.744873046875,0.453369140625,-190.0,113.0,-289.0,102747.0,-11.772000312805176,0,0
0.3570328999776393,-0.018585205078125,-0.278106689453125,0.443145751953125,-0.85198974609375,-0.06103515625,-0.244140625,0.30517578125,0.4932861328125,-0.742431640625,0.4527587890625,-190.0,113.0,-289.0,102747.0,-11.772000312805176,0,0
0.3571012000029441,-0.018585205078125,-0.278106689453125,0.443145751953125,-0.85198974609375,-0.06103515625,-0.244140625,0.30517578125,0.4932861328125,-0.742431640625,0.4527587890625,-190.0,113.0,-289.0,102747.0,-11.772000312805176,0,0
0.357171899988316,-0.018585205078125,-0.27813720703125,0.443145751953125,-0.85198974609375,-0.42724609375,0.0,-0.1220703125,0.491943359375,-0.7447509765625,0.451416015625,-190.0,113.0,-289.0,102747.0,-11.772000312805176,0,0
0.35726699998485856,-0.018585205078125,-0.27813720703125,0.443145751953125,-0.85198974609375,0.06103515625,-0.1220703125,0.1220703125,0.490478515625,-0.74658203125,0.452392578125,-190.0,113.0,-289.0,102747.0,-11.772000312805176,0,0
0.35733869997784495,-0.018585205078125,-0.27813720703125,0.443145751953125,-0.85198974609375,0.06103515625,-0.1220703125,0.1220703125,0.490478515625,-0.74658203125,0.452392578125,-191.0,112.0,-290.0,102747.0,-11.772000312805176,0,0
0.35747089999495074,-0.0186767578125,-0.278045654296875,0.443206787109375,-0.85198974609375,0.0,0.0,-0.18310546875,0.489501953125,-0.7481689453125,0.454833984375,-191.0,112.0,-290.0,102747.0,-11.772000312805176,0,0
0.3575367000012193,-0.0186767578125,-0.278045654296875,0.443206787109375,-0.85198974609375,0.1220703125,-0.42724609375,0.244140625,0.4892578125,-0.7474365234375,0.4541015625,-191.0,112.0,-290.0,102747.0,-11.772000312805176,0,0
0.35760279998066835,-0.0186767578125,-0.278045654296875,0.44317626953125,-0.85198974609375,-0.1220703125,-0.18310546875,-0.1220703125,0.49169921875,-0.7470703125,0.454345703125,-191.0,112.0,-290.0,102747.0,-11.772000312805176,0,0
0.3576654999924358,-0.0186767578125,-0.278045654296875,0.44317626953125,-0.85198974609375,-0.06103515625,-0.1220703125,0.18310546875,0.4915771484375,-0.7454833984375,0.4539794921875,-191.0,112.0,-290.0,102747.0,-11.772000312805176,0,0
0.3577338999893982,-0.0186767578125,-0.278045654296875,0.44317626953125,-0.85198974609375,-0.1220703125,-0.18310546875,0.244140625,0.4920654296875,-0.7469482421875,0.453125,-191.0,112.0,-290.0,102747.0,-11.772000312805176,0,0
0.41759779999847524,-0.0186767578125,-0.278045654296875,0.44317626953125,-0.85198974609375,-0.1220703125,-0.18310546875,0.244140625,0.4920654296875,-0.7469482421875,0.453125,-191.0,112.0,-290.0,102747.0,-11.772000312805176,0,0
0.41767450000043027,-0.018707275390625,-0.278076171875,0.44317626953125,-0.85198974609375,0.06103515625,0.244140625,-0.06103515625,0.494873046875,-0.747314453125,0.45458984375,-191.0,112.0,-290.0,102747.0,-11.772000312805176,0,0
0.4177438000042457,-0.018707275390625,-0.278076171875,0.44317626953125,-0.85198974609375,0.0,-0.244140625,-0.06103515625,0.4940185546875,-0.7474365234375,0.4547119140625,-191.0,112.0,-290.0,102747.0,-11.772000312805176,0,0
0.417812799976673,-0.0186767578125,-0.278076171875,0.44317626953125,-0.85198974609375,-0.1220703125,-0.1220703125,-0.06103515625,0.4931640625,-0.7481689453125,0.4517822265625,-191.0,112.0,-290.0,102747.0,-11.772000312805176,0,0
0.4178824999835342,-0.0186767578125,-0.278076171875,0.44317626953125,-0.85198974609375,-0.06103515625,-0.1220703125,-0.06103515625,0.49072265625,-0.7464599609375,0.452392578125,-191.0,112.0,-290.0,102747.0,-11.772000312805176,0,0
0.41794970000046305,-0.018707275390625,-0.278076171875,0.44317626953125,-0.85198974609375,0.18310546875,-0.06103515625,0.06103515625,0.489990234375,-0.7454833984375,0.4532470703125,-191.0,112.0,-290.0,102747.0,-11.772000312805176,0,0
0.41900510000414215,-0.0186767578125,-0.278076171875,0.44317626953125,-0.85198974609375,0.0,0.06103515625,-0.06103515625,0.4918212890625,-0.7454833984375,0.4530029296875,-191.0,112.0,-290.0,102747.0,-11.772000312805176,0,0
0.4190738000033889,-0.0186767578125,-0.278045654296875,0.44317626953125,-0.85198974609375,0.1220703125,0.0,0.0,0.48974609375,-0.745849609375,0.453369140625,-191.0,112.0,-290.0,102747.0,-11.772000312805176,0,0
0.41914319997886196,-0.0186767578125,-0.278076171875,0.44317626953125,-0.85198974609375,0.3662109375,-0.06103515625,-0.18310546875,0.4893798828125,-0.7440185546875,0.454345703125,-191.0,112.0,-290.0,102747.0,-11.772000312805176,0,0
0.41921279998496175,-0.018707275390625,-0.278076171875,0.44317626953125,-0.85198974609375,0.18310546875,0.1220703125,0.0,0.4913330078125,-0.7442626953125,0.453857421875,-191.0,112.0,-290.0,102747.0,-11.772000312805176,0,0
0.4192804000049364,-0.018707275390625,-0.278076171875,0.44317626953125,-0.85198974609375,0.18310546875,0.1220703125,0.0,0.4913330078125,-0.7442626953125,0.453857421875,-191.0,112.0,-290.0,102747.0,-11.772000312805176,0,0
0.41935039998497814,-0.018707275390625,-0.278076171875,0.44317626953125,-0.85198974609375,0.0,-0.06103515625,0.244140625,0.4923095703125,-0.746337890625,0.4534912109375,-191.0,112.0,-290.0,102747.0,-11.772000312805176,0,0
0.4800766999833286,-0.018707275390625,-0.278076171875,0.44317626953125,-0.85198974609375,0.06103515625,0.0,0.244140625,0.4915771484375,-0.7442626953125,0.453857421875,-191.0,112.0,-290.0,102747.0,-11.772000312805176,0,0
0.4801549999974668,-0.018707275390625,-0.278076171875,0.44317626953125,-0.85198974609375,-0.06103515625,0.244140625,-0.18310546875,0.4906005859375,-0.7449951171875,0.4530029296875,-190.0,111.0,-289.0,102747.0,-11.772000312805176,0,0
0.48022129997843876,-0.018798828125,-0.27801513671875,0.443206787109375,-0.85198974609375,-0.30517578125,-0.244140625,0.06103515625,0.4893798828125,-0.7435302734375,0.4512939453125,-190.0,111.0,-289.0,102747.0,-11.772000312805176,0,0
0.48028509999858215,-0.018798828125,-0.27801513671875,0.443206787109375,-0.85198974609375,0.18310546875,0.06103515625,-0.244140625,0.48974609375,-0.7437744140625,0.4520263671875,-190.0,111.0,-289.0,102747.0,-11.772000312805176,0,0
0.4803496999957133,-0.018798828125,-0.27801513671875,0.443206787109375,-0.85198974609375,0.30517578125,-0.06103515625,-0.06103515625,0.4915771484375,-0.74365234375,0.4542236328125,-190.0,111.0,-289.0,102747.0,-11.772000312805176,0,0
0.4804310000035912,-0.018798828125,-0.27801513671875,0.443206787109375,-0.85198974609375,0.30517578125,-0.06103515625,-0.06103515625,0.4915771484375,-0.74365234375,0.4542236328125,-190.0,111.0,-289.0,102747.0,-11.772000312805176,0,0
0.48049519999767654,-0.018798828125,-0.27801513671875,0.443206787109375,-0.85198974609375,-0.6103515625,-0.18310546875,-0.18310546875,0.4901123046875,-0.74365234375,0.455078125,-190.0,111.0,-289.0,102747.0,-11.772000312805176,0,0
0.4806020999967586,-0.018798828125,-0.27801513671875,0.443206787109375,-0.85198974609375,-0.06103515625,-0.30517578125,0.0,0.49169921875,-0.7459716796875,0.455322265625,-190.0,111.0,-289.0,102747.0,-11.772000312805176,0,0
0.4806669999961741,-0.018798828125,-0.27801513671875,0.443206787109375,-0.85198974609375,0.1220703125,0.244140625,0.0,0.4925537109375,-0.7464599609375,0.453125,-190.0,111.0,-289.0,102747.0,-11.772000312805176,0,0
0.4807297999795992,-0.018798828125,-0.277984619140625,0.443206787109375,-0.85198974609375,-0.91552734375,0.06103515625,-0.06103515625,0.4898681640625,-0.7464599609375,0.454345703125,-190.0,111.0,-289.0,102747.0,-11.772000312805176,0,0
0.48080140000092797,-0.018798828125,-0.277984619140625,0.443206787109375,-0.85198974609375,-0.06103515625,-0.244140625,0.1220703125,0.48828125,-0.745361328125,0.4541015625,-190.0,111.0,-289.0,102747.0,-11.772000312805176,0,0
0.5537910999846645,-0.018798828125,-0.277984619140625,0.44317626953125,-0.85198974609375,0.06103515625,-0.1220703125,0.18310546875,0.49072265625,-0.7464599609375,0.452880859375,-190.0,111.0,-289.0,102747.0,-11.772000312805176,0,0
0.5538812000013422,-0.018798828125,-0.277984619140625,0.443206787109375,-0.85198974609375,-0.30517578125,-0.1220703125,0.18310546875,0.4913330078125,-0.74658203125,0.45263671875,-190.0,111.0,-289.0,102747.0,-11.772000312805176,0,0
0.5539545999781694,-0.018798828125,-0.277984619140625,0.443206787109375,-0.85198974609375,-0.30517578125,-0.1220703125,0.18310546875,0.4913330078125,-0.74658203125,0.45263671875,-190.0,111.0,-289.0,102747.0,-11.772000312805176,0,0
0.5540277999825776,-0.018798828125,-0.277984619140625,0.44317626953125,-0.85198974609375,0.1220703125,-0.06103515625,0.0,0.492431640625,-0.7459716796875,0.4547119140625,-190.0,111.0,-289.0,102747.0,-11.772000312805176,0,0
0.5540990000008605,-0.018798828125,-0.277984619140625,0.44317626953125,-0.85198974609375,-0.06103515625,-0.06103515625,0.06103515625,0.4920654296875,-0.747802734375,0.45458984375,-190.0,111.0,-289.0,102747.0,-11.772000312805176,0,0
0.5542629999981727,-0.018798828125,-0.277984619140625,0.44317626953125,-0.85198974609375,-0.06103515625,0.1220703125,0.18310546875,0.4921875,-0.7457275390625,0.453369140625,-190.0,111.0,-289.0,102747.0,-11.772000312805176,0,0
0.5543391999963205,-0.018798828125,-0.277984619140625,0.44317626953125,-0.85198974609375,-0.30517578125,-0.06103515625,-0.06103515625,0.488525390625,-0.74853515625,0.4539794921875,-190.0,111.0,-289.0,102747.0,-11.772000312805176,0,0
0.5544074999925215,-0.018798828125,-0.277984619140625,0.443206787109375,-0.85198974609375,-0.1220703125,-0.3662109375,0.0,0.4910888671875,-0.7481689453125,0.4525146484375,-190.0,111.0,-289.0,102747.0,-11.772000312805176,0,0
0.5544784999801777,-0.018798828125,-0.277984619140625,0.443206787109375,-0.85198974609375,-0.1220703125,-0.3662109375,0.0,0.4910888671875,-0.7481689453125,0.4525146484375,-189.0,111.0,-287.0,102747.0,-11.772000312805176,0,0
0.5545476999832317,-0.018798828125,-0.277984619140625,0.443206787109375,-0.85198974609375,0.30517578125,-0.244140625,0.0,0.4921875,-0.7481689453125,0.4537353515625,-189.0,111.0,-287.0,102747.0,-11.772000312805176,0,0
0.5546130999864545,-0.018798828125,-0.277984619140625,0.443206787109375,-0.85198974609375,0.06103515625,-0.3662109375,-0.06103515625,0.4954833984375,-0.7452392578125,0.4532470703125,-189.0,111.0,-287.0,102747.0,-11.772000312805176,0,0
0.5546796999988146,-0.018798828125,-0.277984619140625,0.443206787109375,-0.85198974609375,0.06103515625,-0.3662109375,-0.06103515625,0.4954833984375,-0.7452392578125,0.4532470703125,-189.0,111.0,-287.0,102747.0,-11.772000312805176,0,0
0.6101332999824081,-0.018798828125,-0.27801513671875,0.443206787109375,-0.85198974609375,0.0,-0.06103515625,-0.06103515625,0.494384765625,-0.7509765625,0.4537353515625,-189.0,111.0,-287.0,102747.0,-11.772000312805176,0,0
0.6102173999825027,-0.018798828125,-0.27801513671875,0.443206787109375,-0.85198974609375,0.1220703125,-0.18310546875,0.06103515625,0.490966796875,-0.7471923828125,0.452392578125,-189.0,111.0,-287.0,102747.0,-11.772000312805176,0,0
0.610291299992241,-0.018798828125,-0.27801513671875,0.443206787109375,-0.85198974609375,0.18310546875,0.06103515625,-0.1220703125,0.490234375,-0.74560546875,0.45263671875,-189.0,111.0,-287.0,102747.0,-11.772000312805176,0,0
0.6103601999930106,-0.018798828125,-0.27801513671875,0.443206787109375,-0.85198974609375,0.1220703125,0.30517578125,-0.06103515625,0.490966796875,-0.743896484375,0.453125,-189.0,111.0,-287.0,102747.0,-11.772000312805176,0,0
0.6104277999838814,-0.018798828125,-0.27801513671875,0.443206787109375,-0.85198974609375,-0.18310546875,-0.18310546875,0.30517578125,0.4912109375,-0.744873046875,0.4539794921875,-189.0,111.0,-287.0,102747.0,-11.772000312805176,0,0
0.610495799977798,-0.018798828125,-0.27801513671875,0.443206787109375,-0.85198974609375,0.18310546875,-0.1220703125,0.0,0.4892578125,-0.746337890625,0.4522705078125,-189.0,111.0,-287.0,102747.0,-11.772000312805176,0,0
0.6135114999779034,-0.018798828125,-0.277984619140625,0.443206787109375,-0.85198974609375,0.18310546875,-0.1220703125,0.0,0.4892578125,-0.746337890625,0.4522705078125,-189.0,111.0,-287.0,102747.0,-11.772000312805176,0,0
0.6135863999952562,-0.018798828125,-0.277984619140625,0.443206787109375,-0.85198974609375,0.1220703125,-0.06103515625,0.1220703125,0.49169921875,-0.747802734375,0.4554443359375,-189.0,111.0,-287.0,102747.0,-11.772000312805176,0,0
0.6136561000021175,-0.018798828125,-0.277984619140625,0.443206787109375,-0.85198974609375,0.1220703125,-0.1220703125,0.0,0.4896240234375,-0.74755859375,0.455810546875,-189.0,111.0,-287.0,102747.0,-11.772000312805176,0,0
0.6137310999911278,-0.018798828125,-0.277984619140625,0.443206787109375,-0.85198974609375,0.1220703125,-0.1220703125,0.0,0.4896240234375,-0.74755859375,0.455810546875,-189.0,111.0,-287.0,102747.0,-11.772000312805176,0,0
0.6137999999918975,-0.018798828125,-0.277984619140625,0.443206787109375,-0.85198974609375,0.06103515625,-0.1220703125,-0.18310546875,0.4874267578125,-0.7464599609375,0.4534912109375,-189.0,111.0,-287.0,102747.0,-11.772000312805176,0,0
0.6138669999781996,-0.018798828125,-0.277984619140625,0.443206787109375,-0.85198974609375,0.0,0.0,-0.1220703125,0.491943359375,-0.7451171875,0.4537353515625,-189.0,111.0,-287.0,102747.0,-11.772000312805176,0,0
0.6718553999962751,-0.018798828125,-0.277984619140625,0.44317626953125,-0.852020263671875,0.3662109375,-0.18310546875,-0.18310546875,0.490234375,-0.74560546875,0.45458984375,-189.0,111.0,-287.0,102747.0,-11.772000312805176,0,0
0.6719324000005145,-0.018798828125,-0.277984619140625,0.44317626953125,-0.852020263671875,-0.18310546875,-0.42724609375,-0.1220703125,0.489990234375,-0.7452392578125,0.4556884765625,-189.0,111.0,-287.0,102747.0,-11.772000312805176,0,0
0.672001899976749,-0.018798828125,-0.277984619140625,0.44317626953125,-0.852020263671875,-0.06103515625,0.06103515625,0.244140625,0.4906005859375,-0.7451171875,0.4530029296875,-190.0,109.0,-287.0,102747.0,-11.772000312805176,0,0
0.6720724999904633,-0.018798828125,-0.277984619140625,0.44317626953125,-0.852020263671875,0.0,0.0,0.18310546875,0.4903564453125,-0.7457275390625,0.4532470703125,-190.0,109.0,-287.0,102747.0,-11.772000312805176,0,0
0.6721442999842111,-0.018798828125,-0.277984619140625,0.44317626953125,-0.852020263671875,0.0,0.0,0.18310546875,0.4903564453125,-0.7457275390625,0.4532470703125,-190.0,109.0,-287.0,102747.0,-11.772000312805176,0,0
0.6722394999815151,-0.018585205078125,-0.278076171875,0.443115234375,-0.852020263671875,0.18310546875,-0.30517578125,0.0,0.4891357421875,-0.7464599609375,0.4517822265625,-190.0,109.0,-287.0,102747.0,-11.772000312805176,0,0
0.6723114999767859,-0.0185546875,-0.278076171875,0.443115234375,-0.852020263671875,-0.1220703125,-0.30517578125,-0.1220703125,0.490234375,-0.74560546875,0.454833984375,-190.0,109.0,-287.0,102747.0,-11.772000312805176,0,0
0.6723821999912616,-0.0185546875,-0.278076171875,0.443115234375,-0.852020263671875,-0.1220703125,-0.18310546875,-0.18310546875,0.490966796875,-0.7459716796875,0.453125,-190.0,109.0,-287.0,102747.0,-11.772000312805176,0,0
0.6724506999889854,-0.018585205078125,-0.278076171875,0.443115234375,-0.852020263671875,0.0,-0.18310546875,0.18310546875,0.4918212890625,-0.7431640625,0.4517822265625,-190.0,109.0,-287.0,102747.0,-11.772000312805176,0,0
0.6725218999781646,-0.018585205078125,-0.278076171875,0.443115234375,-0.852020263671875,-0.30517578125,0.0,-0.06103515625,0.4923095703125,-0.7447509765625,0.4527587890625,-190.0,109.0,-287.0,102747.0,-11.772000312805176,0,0
0.6725909999804571,-0.018585205078125,-0.278076171875,0.443115234375,-0.852020263671875,0.1220703125,-0.244140625,-0.18310546875,0.49267578125,-0.7471923828125,0.4521484375,-190.0,109.0,-287.0,102747.0,-11.772000312805176,0,0
0.6726595999789424,-0.018585205078125,-0.278106689453125,0.443115234375,-0.85198974609375,0.244140625,0.1220703125,0.06103515625,0.494140625,-0.7476806640625,0.45263671875,-190.0,109.0,-287.0,102747.0,-11.772000312805176,0,0
0.7325190999836195,-0.018585205078125,-0.278106689453125,0.443115234375,-0.85198974609375,0.1220703125,0.0,-0.06103515625,0.492919921875,-0.7474365234375,0.45263671875,-190.0,109.0,-287.0,102747.0,-11.772000312805176,0,0
0.732602499978384,-0.018585205078125,-0.278106689453125,0.443145751953125,-0.85198974609375,-0.1220703125,-0.18310546875,-0.1220703125,0.4881591796875,-0.7467041015625,0.4517822265625,-190.0,109.0,-287.0,102747.0,-11.772000312805176,0,0
0.7326735999959055,-0.018585205078125,-0.278106689453125,0.443145751953125,-0.85198974609375,-0.1220703125,-0.18310546875,-0.18310546875,0.4893798828125,-0.744384765625,0.45263671875,-190.0,109.0,-287.0,102747.0,-11.772000312805176,0,0
0.7327447999850847,-0.0185546875,-0.278106689453125,0.443145751953125,-0.85198974609375,0.06103515625,-0.1220703125,0.0,0.4898681640625,-0.7467041015625,0.4522705078125,-190.0,109.0,-287.0,102747.0,-11.772000312805176,0,0
0.7328357999795116,-0.0185546875,-0.278076171875,0.443145751953125,-0.85198974609375,-0.18310546875,-0.244140625,0.18310546875,0.4921875,-0.747802734375,0.4525146484375,-190.0,109.0,-287.0,102747.0,-11.772000312805176,0,0
0.7329068999970332,-0.0185546875,-0.278076171875,0.443145751953125,-0.85198974609375,0.06103515625,-0.06103515625,-0.06103515625,0.491943359375,-0.7486572265625,0.45263671875,-190.0,109.0,-287.0,102747.0,-11.772000312805176,0,0
0.7329795999976341,-0.0185546875,-0.278076171875,0.443145751953125,-0.85198974609375,-0.1220703125,-0.1220703125,0.244140625,0.4925537109375,-0.747802734375,0.454345703125,-190.0,109.0,-287.0,102747.0,-11.772000312805176,0,0
0.7330494999769144,-0.0185546875,-0.278106689453125,0.443145751953125,-0.85198974609375,0.06103515625,-0.30517578125,0.244140625,0.493408203125,-0.7469482421875,0.4552001953125,-190.0,109.0,-287.0,102747.0,-11.772000312805176,0,0
0.7331195999868214,-0.0185546875,-0.278076171875,0.443145751953125,-0.85198974609375,0.30517578125,-0.1220703125,0.0,0.490478515625,-0.746337890625,0.4541015625,-190.0,109.0,-287.0,102747.0,-11.772000312805176,0,0
0.7331906000035815,-0.0185546875,-0.278076171875,0.443145751953125,-0.85198974609375,0.30517578125,-0.1220703125,0.0,0.490478515625,-0.746337890625,0.4541015625,-190.0,109.0,-287.0,102747.0,-11.772000312805176,0,0
0.7332608999859076,-0.0185546875,-0.278076171875,0.443145751953125,-0.85198974609375,-0.18310546875,-0.18310546875,-0.06103515625,0.4913330078125,-0.74951171875,0.4532470703125,-190.0,108.0,-288.0,102747.0,-11.772000312805176,0,0
0.8005996999854688,-0.0185546875,-0.278076171875,0.443145751953125,-0.85198974609375,0.30517578125,-0.06103515625,0.18310546875,0.491455078125,-0.7469482421875,0.4534912109375,-190.0,108.0,-288.0,102747.0,-11.772000312805176,0,0
0.800682200002484,-0.0185546875,-0.278076171875,0.443145751953125,-0.85198974609375,0.18310546875,0.06103515625,0.0,0.4906005859375,-0.746826171875,0.4542236328125,-190.0,108.0,-288.0,102747.0,-11.772000312805176,0,0
0.8007595999806654,-0.0185546875,-0.278076171875,0.443145751953125,-0.85198974609375,-0.244140625,0.0,0.18310546875,0.4898681640625,-0.749267578125,0.4520263671875,-190.0,108.0,-288.0,102747.0,-11.772000312805176,0,0
0.8008345999987796,-0.0185546875,-0.278076171875,0.44317626953125,-0.85198974609375,0.244140625,-0.1220703125,-0.06103515625,0.4918212890625,-0.7469482421875,0.4522705078125,-190.0,108.0,-288.0,102747.0,-11.772000312805176,0,0
0.8009086999809369,-0.0185546875,-0.278076171875,0.443145751953125,-0.85198974609375,0.0,0.0,-0.1220703125,0.4923095703125,-0.7445068359375,0.4532470703125,-190.0,108.0,-288.0,102747.0,-11.772000312805176,0,0
0.8009803000022657,-0.0185546875,-0.278076171875,0.44317626953125,-0.85198974609375,0.06103515625,0.06103515625,0.1220703125,0.491943359375,-0.7476806640625,0.453369140625,-190.0,108.0,-288.0,102747.0,-11.772000312805176,0,0
0.8012084999936633,-0.0185546875,-0.278076171875,0.44317626953125,-0.85198974609375,-0.3662109375,0.0,-0.18310546875,0.4891357421875,-0.7476806640625,0.4525146484375,-190.0,108.0,-288.0,102747.0,-11.772000312805176,0,0
0.8013418999908026,-0.0185546875,-0.278076171875,0.44317626953125,-0.85198974609375,-0.3662109375,0.0,-0.18310546875,0.4891357421875,-0.7476806640625,0.4525146484375,-190.0,108.0,-288.0,102747.0,-11.772000312805176,0,0
0.8014164000051096,-0.0185546875,-0.278076171875,0.44317626953125,-0.85198974609375,-0.06103515625,0.18310546875,0.06103515625,0.4892578125,-0.74609375,0.4510498046875,-190.0,108.0,-288.0,102747.0,-11.772000312805176,0,0
0.8014875999942888,-0.0185546875,-0.278106689453125,0.44317626953125,-0.85198974609375,0.42724609375,0.06103515625,-0.1220703125,0.4925537109375,-0.7425537109375,0.450927734375,-190.0,108.0,-288.0,102747.0,-11.772000312805176,0,0
0.8015586999827065,-0.0185546875,-0.278106689453125,0.44317626953125,-0.85198974609375,-0.3662109375,0.0,-0.06103515625,0.490478515625,-0.74462890625,0.451171875,-190.0,108.0,-288.0,102747.0,-11.772000312805176,0,0
0.8016284999903291,-0.0185546875,-0.278106689453125,0.44317626953125,-0.85198974609375,0.06103515625,0.0,0.1220703125,0.489990234375,-0.7452392578125,0.450927734375,-190.0,108.0,-288.0,102747.0,-11.772000312805176,0,0
0.8016966999857686,-0.0185546875,-0.278106689453125,0.44317626953125,-0.851959228515625,0.06103515625,-0.1220703125,0.0,0.490966796875,-0.7431640625,0.45166015625,-190.0,108.0,-288.0,102747.0,-11.772000312805176,0,0
0.8677120999782346,-0.0185546875,-0.278076171875,0.44317626953125,-0.85198974609375,0.0,-0.18310546875,0.0,0.4886474609375,-0.7474365234375,0.4534912109375,-190.0,108.0,-288.0,102747.0,-11.772000312805176,0,0
0.8677884999779053,-0.0185546875,-0.278076171875,0.44317626953125,-0.85198974609375,0.18310546875,-0.18310546875,-0.06103515625,0.4901123046875,-0.744384765625,0.455322265625,-190.0,108.0,-288.0,102747.0,-11.772000312805176,0,0
0.8678597999969497,-0.0185546875,-0.278076171875,0.44317626953125,-0.85198974609375,0.18310546875,-0.18310546875,-0.06103515625,0.4901123046875,-0.744384765625,0.455322265625,-190.0,108.0,-288.0,102747.0,-11.772000312805176,0,0
0.8679282999946736,-0.0185546875,-0.278076171875,0.44317626953125,-0.85198974609375,-0.18310546875,-0.1220703125,0.0,0.4903564453125,-0.7469482421875,0.453857421875,-190.0,107.0,-288.0,102747.0,-11.772000312805176,0,0
0.8681142999848817,-0.0185546875,-0.278076171875,0.44317626953125,-0.85198974609375,-0.30517578125,-0.1220703125,-0.06103515625,0.4923095703125,-0.742919921875,0.4534912109375,-190.0,107.0,-288.0,102747.0,-11.772000312805176,0,0
0.8681901999807451,-0.0185546875,-0.278076171875,0.44317626953125,-0.85198974609375,0.244140625,-0.06103515625,0.18310546875,0.4915771484375,-0.745849609375,0.45166015625,-190.0,107.0,-288.0,102747.0,-11.772000312805176,0,0
0.8682617000013124,-0.0185546875,-0.278076171875,0.44317626953125,-0.85198974609375,0.06103515625,-0.3662109375,0.244140625,0.489990234375,-0.748291015625,0.45068359375,-190.0,107.0,-288.0,102747.0,-11.772000312805176,0,0
0.8683301999990363,-0.0185546875,-0.278076171875,0.44317626953125,-0.85198974609375,-0.18310546875,-0.06103515625,0.0,0.4927978515625,-0.748779296875,0.455078125,-190.0,107.0,-288.0,102747.0,-11.772000312805176,0,0
0.8683996000036132,-0.0185546875,-0.278076171875,0.44317626953125,-0.85198974609375,-0.42724609375,-0.06103515625,0.06103515625,0.4935302734375,-0.74609375,0.453125,-190.0,107.0,-288.0,102747.0,-11.772000312805176,0,0
0.8684826999960933,-0.0185546875,-0.278106689453125,0.44317626953125,-0.851959228515625,0.1220703125,-0.06103515625,0.1220703125,0.4930419921875,-0.7476806640625,0.45263671875,-190.0,107.0,-288.0,102747.0,-11.772000312805176,0,0
0.8685517999983858,-0.0185546875,-0.278106689453125,0.44317626953125,-0.85198974609375,-0.06103515625,-0.18310546875,0.06103515625,0.490478515625,-0.74560546875,0.4541015625,-190.0,107.0,-288.0,102747.0,-11.772000312805176,0,0
0.9340336000022944,-0.0185546875,-0.278106689453125,0.44317626953125,-0.851959228515625,-0.18310546875,-0.244140625,-0.06103515625,0.49072265625,-0.743896484375,0.45263671875,-190.0,107.0,-288.0,102747.0,-11.772000312805176,0,0
0.934118099976331,-0.0185546875,-0.278106689453125,0.44317626953125,-0.851959228515625,0.1220703125,-0.18310546875,-0.06103515625,0.4918212890625,-0.7447509765625,0.45361328125,-190.0,107.0,-288.0,102747.0,-11.772000312805176,0,0
0.9341905000037514,-0.0185546875,-0.278106689453125,0.44317626953125,-0.851959228515625,-0.18310546875,-0.06103515625,0.244140625,0.492919921875,-0.7464599609375,0.4534912109375,-190.0,107.0,-288.0,102747.0,-11.772000312805176,0,0
0.9439037999836728,-0.0185546875,-0.278106689453125,0.44317626953125,-0.851959228515625,-0.1220703125,-0.244140625,-0.06103515625,0.4918212890625,-0.7464599609375,0.4525146484375,-190.0,107.0,-288.0,102747.0,-11.772000312805176,0,0
0.9440224999852944,-0.0185546875,-0.278106689453125,0.44317626953125,-0.851959228515625,0.30517578125,-0.18310546875,0.1220703125,0.4923095703125,-0.74560546875,0.4521484375,-190.0,107.0,-288.0,102747.0,-11.772000312805176,0,0
0.9441239000007045,-0.0185546875,-0.278106689453125,0.44317626953125,-0.851959228515625,0.06103515625,-0.1220703125,0.0,0.4913330078125,-0.74658203125,0.4522705078125,-190.0,107.0,-288.0,102747.0,-11.772000312805176,0,0
0.944208200002322,-0.0185546875,-0.278106689453125,0.44317626953125,-0.851959228515625,0.06103515625,0.06103515625,0.1220703125,0.4935302734375,-0.74609375,0.452880859375,-190.0,107.0,-288.0,102747.0,-11.772000312805176,0,0
0.9442773000046145,-0.0185546875,-0.27813720703125,0.44317626953125,-0.851959228515625,-0.244140625,0.06103515625,0.1220703125,0.4930419921875,-0.7445068359375,0.4517822265625,-190.0,107.0,-288.0,102747.0,-11.772000312805176,0,0
0.9443474999861792,-0.0185546875,-0.27813720703125,0.44317626953125,-0.851959228515625,-0.244140625,0.06103515625,0.1220703125,0.4930419921875,-0.7445068359375,0.4517822265625,-190.0,107.0,-288.0,102747.0,-11.772000312805176,0,0
0.9444175999960862,-0.018585205078125,-0.27813720703125,0.44317626953125,-0.851959228515625,0.18310546875,-0.06103515625,-0.1220703125,0.4932861328125,-0.748046875,0.454345703125,-190.0,107.0,-288.0,102747.0,-11.772000312805176,0,0
0.944489399989834,-0.018585205078125,-0.27813720703125,0.443206787109375,-0.851959228515625,-0.30517578125,-0.1220703125,-0.06103515625,0.4925537109375,-0.746826171875,0.4520263671875,-190.0,107.0,-288.0,102747.0,-11.772000312805176,0,0
1.001010399981169,-0.018585205078125,-0.27813720703125,0.443206787109375,-0.851959228515625,-0.30517578125,-0.1220703125,-0.06103515625,0.4925537109375,-0.746826171875,0.4520263671875,-190.0,106.0,-288.0,102747.0,-11.772000312805176,0,0
1.0018781999824569,-0.018585205078125,-0.27813720703125,0.443206787109375,-0.851959228515625,0.244140625,-0.30517578125,0.0,0.49267578125,-0.74755859375,0.4537353515625,-190.0,106.0,-288.0,102747.0,-11.772000312805176,0,0
1.0019657999800984,-0.018585205078125,-0.27813720703125,0.443206787109375,-0.851959228515625,0.244140625,-0.06103515625,-0.06103515625,0.49072265625,-0.747802734375,0.453369140625,-190.0,106.0,-288.0,102747.0,-11.772000312805176,0,0
1.0020374000014272,-0.0185546875,-0.27813720703125,0.443206787109375,-0.851959228515625,-0.06103515625,-0.18310546875,-0.18310546875,0.4881591796875,-0.744873046875,0.45166015625,-190.0,106.0,-288.0,102747.0,-11.772000312805176,0,0
1.0021092999959365,-0.0185546875,-0.27813720703125,0.443206787109375,-0.851959228515625,-0.1220703125,0.1220703125,-0.18310546875,0.4896240234375,-0.745849609375,0.4527587890625,-190.0,106.0,-288.0,102747.0,-11.772000312805176,0,0
1.002177299989853,-0.0185546875,-0.27813720703125,0.443206787109375,-0.851959228515625,0.0,-0.18310546875,-0.18310546875,0.4921875,-0.742919921875,0.453369140625,-190.0,106.0,-288.0,102747.0,-11.772000312805176,0,0
1.0023321000044234,-0.0185546875,-0.27813720703125,0.443206787109375,-0.851959228515625,0.0,-0.18310546875,-0.18310546875,0.4921875,-0.742919921875,0.453369140625,-190.0,106.0,-288.0,102747.0,-11.772000312805176,0,0
1.0024020999844652,-0.018585205078125,-0.27813720703125,0.443206787109375,-0.851959228515625,0.30517578125,-0.06103515625,0.0,0.4912109375,-0.7451171875,0.4495849609375,-190.0,106.0,-288.0,102747.0,-11.772000312805176,0,0
1.0024743999820203,-0.018585205078125,-0.27813720703125,0.443206787109375,-0.8519287109375,0.244140625,-0.06103515625,0.1220703125,0.4912109375,-0.7457275390625,0.4505615234375,-190.0,106.0,-288.0,102747.0,-11.772000312805176,0,0
1.002656600001501,-0.018585205078125,-0.27813720703125,0.443206787109375,-0.8519287109375,0.18310546875,-0.06103515625,0.18310546875,0.491455078125,-0.7454833984375,0.4505615234375,-190.0,106.0,-288.0,102747.0,-11.772000312805176,0,0
1.0027416999801062,-0.018585205078125,-0.27813720703125,0.443206787109375,-0.8519287109375,0.18310546875,-0.06103515625,0.18310546875,0.491455078125,-0.7454833984375,0.4505615234375,-190.0,106.0,-288.0,102747.0,-11.772000312805176,0,0
1.0028120999922976,-0.018585205078125,-0.27813720703125,0.443206787109375,-0.8519287109375,-0.244140625,-0.1220703125,-0.18310546875,0.4903564453125,-0.7442626953125,0.4505615234375,-190.0,106.0,-288.0,102747.0,-11.772000312805176,0,0
1.0028765999886673,-0.0185546875,-0.27813720703125,0.443206787109375,-0.8519287109375,-0.244140625,0.1220703125,0.06103515625,0.4893798828125,-0.7451171875,0.45263671875,-190.0,106.0,-288.0,102747.0,-11.772000312805176,0,0
1.0538942999846768,-0.0185546875,-0.27813720703125,0.443206787109375,-0.8519287109375,-0.30517578125,-0.1220703125,0.06103515625,0.48974609375,-0.746337890625,0.4521484375,-190.0,106.0,-288.0,102747.0,-11.772000312805176,0,0
1.0539720999950077,-0.0185546875,-0.27813720703125,0.443206787109375,-0.8519287109375,-0.30517578125,-0.1220703125,0.06103515625,0.48974609375,-0.746337890625,0.4521484375,-190.0,106.0,-288.0,102747.0,-11.772000312805176,0,0
1.0540459000039846,-0.018585205078125,-0.27813720703125,0.443206787109375,-0.8519287109375,0.06103515625,0.06103515625,-0.244140625,0.4927978515625,-0.74462890625,0.4532470703125,-190.0,106.0,-288.0,102747.0,-11.772000312805176,0,0
1.054118500003824,-0.018585205078125,-0.27813720703125,0.443206787109375,-0.851959228515625,0.1220703125,-0.18310546875,0.0,0.489990234375,-0.7449951171875,0.452880859375,-190.0,106.0,-288.0,102747.0,-11.772000312805176,0,0
1.0541862999962177,-0.018585205078125,-0.27813720703125,0.443206787109375,-0.851959228515625,0.06103515625,0.06103515625,0.1220703125,0.4918212890625,-0.74560546875,0.455322265625,-190.0,106.0,-288.0,102747.0,-11.772000312805176,0,0
1.054299399984302,-0.018585205078125,-0.27813720703125,0.443206787109375,-0.851959228515625,0.0,-0.18310546875,-0.06103515625,0.493408203125,-0.74560546875,0.45361328125,-189.0,106.0,-288.0,102747.0,-11.772000312805176,0,0
1.0543684999865945,-0.018585205078125,-0.27813720703125,0.443206787109375,-0.8519287109375,0.30517578125,-0.30517578125,-0.18310546875,0.48974609375,-0.7454833984375,0.452392578125,-189.0,106.0,-288.0,102747.0,-11.772000312805176,0,0
1.054433599987533,-0.018585205078125,-0.27813720703125,0.443206787109375,-0.8519287109375,0.30517578125,0.06103515625,0.06103515625,0.4918212890625,-0.7442626953125,0.451171875,-189.0,106.0,-288.0,102747.0,-11.772000312805176,0,0
1.0544989999907557,-0.018585205078125,-0.278167724609375,0.443206787109375,-0.8519287109375,0.30517578125,-0.1220703125,-0.1220703125,0.491455078125,-0.7452392578125,0.4517822265625,-189.0,106.0,-288.0,102747.0,-11.772000312805176,0,0
1.0545650999993086,-0.018585205078125,-0.278167724609375,0.443206787109375,-0.8519287109375,-0.1220703125,-0.1220703125,0.06103515625,0.490966796875,-0.7437744140625,0.4508056640625,-189.0,106.0,-288.0,102747.0,-11.772000312805176,0,0
1.0546308999764733,-0.018585205078125,-0.278167724609375,0.443206787109375,-0.8519287109375,-0.1220703125,-0.1220703125,0.06103515625,0.490966796875,-0.7437744140625,0.4508056640625,-189.0,106.0,-288.0,102747.0,-11.772000312805176,0,0
1.1207635999890044,-0.018585205078125,-0.278167724609375,0.4432373046875,-0.8519287109375,-0.1220703125,-0.18310546875,0.18310546875,0.4918212890625,-0.748046875,0.4537353515625,-189.0,106.0,-288.0,102747.0,-11.772000312805176,0,0
1.120837800001027,-0.018585205078125,-0.278167724609375,0.4432373046875,-0.8519287109375,-0.06103515625,0.0,0.1220703125,0.490966796875,-0.747802734375,0.4527587890625,-189.0,106.0,-288.0,102747.0,-11.772000312805176,0,0
1.120907399978023,-0.018585205078125,-0.278167724609375,0.4432373046875,-0.8519287109375,-0.3662109375,-0.1220703125,-0.06103515625,0.4918212890625,-0.74658203125,0.4532470703125,-189.0,106.0,-288.0,102747.0,-11.772000312805176,0,0
1.1209723999782,-0.0185546875,-0.278167724609375,0.4432373046875,-0.8519287109375,-0.1220703125,-0.06103515625,0.18310546875,0.48974609375,-0.746337890625,0.4515380859375,-189.0,106.0,-288.0,102747.0,-11.772000312805176,0,0
1.121039399993606,-0.0185546875,-0.278167724609375,0.4432373046875,-0.8519287109375,-0.1220703125,-0.30517578125,0.18310546875,0.4896240234375,-0.7464599609375,0.451171875,-189.0,106.0,-288.0,102747.0,-11.772000312805176,0,0
1.13525949997711,-0.0185546875,-0.278167724609375,0.4432373046875,-0.8519287109375,-0.06103515625,-0.06103515625,0.06103515625,0.4915771484375,-0.746826171875,0.4534912109375,-189.0,106.0,-288.0,102747.0,-11.772000312805176,0,0
1.1353479999816045,-0.0185546875,-0.278167724609375,0.4432373046875,-0.8519287109375,0.18310546875,-0.1220703125,-0.06103515625,0.492919921875,-0.7486572265625,0.4527587890625,-189.0,106.0,-288.0,102747.0,-11.772000312805176,0,0
1.1354221999936271,-0.0185546875,-0.278167724609375,0.4432373046875,-0.8519287109375,0.18310546875,-0.1220703125,-0.06103515625,0.492919921875,-0.7486572265625,0.4527587890625,-189.0,106.0,-288.0,102747.0,-11.772000312805176,0,0
1.1354932999820448,-0.018585205078125,-0.278167724609375,0.443267822265625,-0.851898193359375,-0.244140625,-0.1220703125,0.0,0.49365234375,-0.74853515625,0.4525146484375,-189.0,106.0,-288.0,102747.0,-11.772000312805176,0,0
1.1355627999873832,-0.0185546875,-0.278167724609375,0.443267822265625,-0.851898193359375,0.18310546875,0.0,-0.18310546875,0.4920654296875,-0.7491455078125,0.452880859375,-189.0,106.0,-288.0,102747.0,-11.772000312805176,0,0
1.1356325999950059,-0.0185546875,-0.278167724609375,0.443267822265625,-0.851898193359375,0.06103515625,-0.30517578125,-0.18310546875,0.490478515625,-0.745361328125,0.4510498046875,-189.0,106.0,-288.0,102747.0,-11.772000312805176,0,0
1.181781699997373,-0.018585205078125,-0.278167724609375,0.443267822265625,-0.851898193359375,0.1220703125,-0.18310546875,0.0,0.4912109375,-0.7432861328125,0.45068359375,-189.0,106.0,-288.0,102747.0,-11.772000312805176,0,0
1.181872299988754,-0.018585205078125,-0.278167724609375,0.443267822265625,-0.851898193359375,0.18310546875,-0.30517578125,-0.18310546875,0.48876953125,-0.742431640625,0.4508056640625,-189.0,106.0,-288.0,102747.0,-11.772000312805176,0,0
1.1819413999910466,-0.018585205078125,-0.2781982421875,0.443267822265625,-0.851898193359375,0.18310546875,-0.30517578125,-0.18310546875,0.48876953125,-0.742431640625,0.4508056640625,-189.0,105.0,-288.0,102747.0,-11.773000717163086,0,0
1.182124399987515,-0.018585205078125,-0.2781982421875,0.443267822265625,-0.851898193359375,-0.18310546875,0.1220703125,0.1220703125,0.49267578125,-0.742431640625,0.4517822265625,-189.0,105.0,-288.0,102747.0,-11.773000717163086,0,0
1.1822577999846544,-0.018585205078125,-0.2781982421875,0.443267822265625,-0.851898193359375,-0.18310546875,0.06103515625,0.06103515625,0.49072265625,-0.7471923828125,0.4527587890625,-189.0,105.0,-288.0,102747.0,-11.773000717163086,0,0
1.1823380999849178,-0.018585205078125,-0.2781982421875,0.443267822265625,-0.851898193359375,-0.18310546875,0.06103515625,0.06103515625,0.49072265625,-0.7471923828125,0.4527587890625,-189.0,105.0,-288.0,102747.0,-11.773000717163086,0,0
1.1956877000047825,-0.018585205078125,-0.278167724609375,0.443267822265625,-0.851898193359375,0.06103515625,-0.18310546875,-0.06103515625,0.490966796875,-0.7484130859375,0.4530029296875,-189.0,105.0,-288.0,102747.0,-11.773000717163086,0,0
1.1957764999824576,-0.018585205078125,-0.278167724609375,0.443267822265625,-0.851898193359375,-0.1220703125,-0.1220703125,-0.1220703125,0.4915771484375,-0.7447509765625,0.453369140625,-189.0,105.0,-288.0,102747.0,-11.773000717163086,0,0
1.1958479000022635,-0.018585205078125,-0.278167724609375,0.443267822265625,-0.851898193359375,0.1220703125,-0.18310546875,0.1220703125,0.489990234375,-0.7435302734375,0.45263671875,-189.0,105.0,-288.0,102747.0,-11.773000717163086,0,0
1.1959157999954186,-0.018585205078125,-0.278167724609375,0.443267822265625,-0.851898193359375,-0.1220703125,-0.06103515625,0.244140625,0.4896240234375,-0.743896484375,0.449951171875,-189.0,105.0,-288.0,102747.0,-11.773000717163086,0,0
1.1959837999893352,-0.018585205078125,-0.2781982421875,0.443267822265625,-0.851898193359375,0.244140625,-0.244140625,0.244140625,0.4888916015625,-0.7425537109375,0.4500732421875,-189.0,105.0,-288.0,102747.0,-11.773000717163086,0,0
1.1960508000047412,-0.018585205078125,-0.2781982421875,0.443267822265625,-0.851898193359375,-0.06103515625,0.0,0.0,0.489501953125,-0.7413330078125,0.44970703125,-189.0,105.0,-288.0,102747.0,-11.773000717163086,0,0
1.1961196000047494,-0.0185546875,-0.278167724609375,0.443267822265625,-0.851898193359375,-0.06103515625,0.0,0.0,0.489501953125,-0.7413330078125,0.44970703125,-189.0,105.0,-288.0,102747.0,-11.773000717163086,0,0
1.244313000002876,-0.0185546875,-0.2781982421875,0.44329833984375,-0.851898193359375,-0.244140625,-0.06103515625,0.18310546875,0.4932861328125,-0.74609375,0.451904296875,-189.0,105.0,-288.0,102747.0,-11.773000717163086,0,0
1.244387699989602,-0.0185546875,-0.2781982421875,0.44329833984375,-0.851898193359375,0.0,-0.1220703125,0.1220703125,0.4940185546875,-0.7484130859375,0.4537353515625,-189.0,105.0,-288.0,102747.0,-11.773000717163086,0,0
1.244601899990812,-0.0185546875,-0.2781982421875,0.44329833984375,-0.851898193359375,0.0,-0.1220703125,0.06103515625,0.4912109375,-0.74755859375,0.45263671875,-189.0,105.0,-288.0,102747.0,-11.773000717163086,0,0
1.2446735999837983,-0.018585205078125,-0.2781982421875,0.44329833984375,-0.851898193359375,-0.1220703125,-0.1220703125,-0.1220703125,0.4918212890625,-0.745849609375,0.4534912109375,-189.0,105.0,-288.0,102747.0,-11.773000717163086,0,0
1.2447439999959897,-0.018585205078125,-0.2781982421875,0.44329833984375,-0.85186767578125,0.30517578125,-0.1220703125,0.0,0.491455078125,-0.7432861328125,0.44970703125,-189.0,105.0,-288.0,102747.0,-11.773000717163086,0,0
1.2450026999867987,-0.018585205078125,-0.2781982421875,0.44329833984375,-0.85186767578125,-0.06103515625,-0.244140625,-0.06103515625,0.490478515625,-0.7451171875,0.4505615234375,-189.0,105.0,-288.0,102747.0,-11.773000717163086,0,0
1.2450741999782622,-0.018585205078125,-0.2781982421875,0.44329833984375,-0.85186767578125,0.06103515625,-0.18310546875,0.18310546875,0.491943359375,-0.7442626953125,0.451904296875,-189.0,105.0,-288.0,102747.0,-11.773000717163086,0,0
1.2451467999781016,-0.018585205078125,-0.2781982421875,0.44329833984375,-0.85186767578125,-0.3662109375,-0.244140625,0.06103515625,0.4906005859375,-0.74462890625,0.451171875,-189.0,105.0,-288.0,102747.0,-11.77500057220459,0,0
1.2452151000034064,-0.018585205078125,-0.2781982421875,0.44329833984375,-0.85186767578125,0.1220703125,-0.244140625,0.18310546875,0.4903564453125,-0.7452392578125,0.4512939453125,-189.0,105.0,-288.0,102747.0,-11.77500057220459,0,0
1.2452893999870867,-0.018585205078125,-0.2781982421875,0.44329833984375,-0.85186767578125,0.1220703125,-0.244140625,0.18310546875,0.4903564453125,-0.7452392578125,0.4512939453125,-189.0,105.0,-288.0,102747.0,-11.77500057220459,0,0
1.2453626999922562,-0.018585205078125,-0.2781982421875,0.44329833984375,-0.85186767578125,0.0,-0.30517578125,0.06103515625,0.49169921875,-0.7470703125,0.453857421875,-189.0,105.0,-288.0,102747.0,-11.77500057220459,0,0
1.308596699993359,-0.018585205078125,-0.278228759765625,0.44329833984375,-0.85186767578125,-0.06103515625,0.0,0.18310546875,0.49365234375,-0.746337890625,0.449951171875,-189.0,105.0,-288.0,102747.0,-11.77500057220459,0,0
1.3086746000044513,-0.018585205078125,-0.278228759765625,0.44329833984375,-0.85186767578125,0.18310546875,-0.18310546875,-0.1220703125,0.4891357421875,-0.7454833984375,0.451416015625,-189.0,105.0,-288.0,102747.0,-11.77500057220459,0,0
1.3087451999890618,-0.018585205078125,-0.278228759765625,0.44329833984375,-0.85186767578125,-0.1220703125,0.06103515625,0.1220703125,0.4896240234375,-0.7459716796875,0.45263671875,-189.0,105.0,-288.0,102747.0,-11.77500057220459,0,0
1.3088129999814555,-0.018585205078125,-0.278228759765625,0.44329833984375,-0.85186767578125,-0.1220703125,0.0,0.0,0.49658203125,-0.7471923828125,0.4517822265625,-189.0,105.0,-288.0,102747.0,-11.77500057220459,0,0
1.3088816999807023,-0.018585205078125,-0.278228759765625,0.443328857421875,-0.85186767578125,0.0,-0.06103515625,0.1220703125,0.4951171875,-0.7510986328125,0.4527587890625,-189.0,105.0,-288.0,102747.0,-11.77500057220459,0,0
1.3154457999917213,-0.018585205078125,-0.278228759765625,0.443328857421875,-0.85186767578125,-0.18310546875,-0.244140625,-0.06103515625,0.4942626953125,-0.7520751953125,0.4552001953125,-189.0,105.0,-288.0,102747.0,-11.77500057220459,0,0
1.3155247999820858,-0.018585205078125,-0.278228759765625,0.443328857421875,-0.85186767578125,-0.18310546875,-0.244140625,-0.06103515625,0.4942626953125,-0.7520751953125,0.4552001953125,-189.0,105.0,-288.0,102747.0,-11.77500057220459,0,0
1.3155983999895398,-0.018585205078125,-0.27825927734375,0.443328857421875,-0.851837158203125,-0.18310546875,0.06103515625,-0.3662109375,0.4925537109375,-0.749755859375,0.453369140625,-189.0,105.0,-288.0,102747.0,-11.77500057220459,0,0
1.31575249999878,-0.018585205078125,-0.27825927734375,0.443328857421875,-0.851837158203125,0.244140625,-0.244140625,-0.1220703125,0.4930419921875,-0.7449951171875,0.4522705078125,-189.0,105.0,-288.0,102747.0,-11.77500057220459,0,0
1.3158263999794144,-0.018585205078125,-0.27825927734375,0.443328857421875,-0.851837158203125,0.06103515625,0.0,-0.1220703125,0.4903564453125,-0.74560546875,0.4515380859375,-189.0,105.0,-288.0,102747.0,-11.77500057220459,0,0
1.31590149999829,-0.018585205078125,-0.27825927734375,0.443328857421875,-0.851837158203125,0.0,-0.18310546875,0.0,0.4906005859375,-0.74365234375,0.450927734375,-189.0,105.0,-288.0,102747.0,-11.77500057220459,0,0
1.3717230999900494,-0.018585205078125,-0.27825927734375,0.443328857421875,-0.851837158203125,-0.18310546875,-0.06103515625,0.1220703125,0.490478515625,-0.7451171875,0.449951171875,-189.0,105.0,-288.0,102747.0,-11.77500057220459,0,0
1.3718854000035208,-0.018585205078125,-0.27825927734375,0.443359375,-0.851837158203125,0.30517578125,0.0,-0.1220703125,0.4888916015625,-0.744873046875,0.451904296875,-189.0,105.0,-288.0,102747.0,-11.77500057220459,0,0
1.3720336999977008,-0.018585205078125,-0.27825927734375,0.443328857421875,-0.851837158203125,0.18310546875,-0.18310546875,-0.06103515625,0.492431640625,-0.7464599609375,0.4530029296875,-189.0,105.0,-288.0,102747.0,-11.77500057220459,0,0
1.3722065000038128,-0.018585205078125,-0.27825927734375,0.443328857421875,-0.851837158203125,0.1220703125,0.06103515625,-0.1220703125,0.4915771484375,-0.74609375,0.453125,-189.0,105.0,-288.0,102747.0,-11.77400016784668,0,0
1.37228939999477,-0.018585205078125,-0.27825927734375,0.443328857421875,-0.851837158203125,0.1220703125,0.06103515625,-0.1220703125,0.4915771484375,-0.74609375,0.453125,-189.0,105.0,-288.0,102747.0,-11.77400016784668,0,0
1.3725237000035122,-0.018585205078125,-0.27825927734375,0.443359375,-0.851837158203125,-0.244140625,-0.18310546875,0.0,0.49169921875,-0.7467041015625,0.4510498046875,-189.0,104.0,-288.0,102747.0,-11.77400016784668,0,0
1.3727020999940578,-0.018585205078125,-0.27825927734375,0.443359375,-0.851837158203125,-0.1220703125,-0.06103515625,-0.1220703125,0.4920654296875,-0.74560546875,0.4505615234375,-189.0,104.0,-288.0,102747.0,-11.77400016784668,0,0
1.3808629999984987,-0.018585205078125,-0.27825927734375,0.443359375,-0.851837158203125,0.0,-0.1220703125,-0.18310546875,0.4896240234375,-0.7423095703125,0.4501953125,-189.0,104.0,-288.0,102747.0,-11.77400016784668,0,0
1.3809593000041787,-0.018585205078125,-0.278289794921875,0.443359375,-0.851837158203125,0.1220703125,-0.1220703125,-0.18310546875,0.4891357421875,-0.7412109375,0.4482421875,-189.0,104.0,-288.0,102747.0,-11.77400016784668,0,0
1.38103229997796,-0.018585205078125,-0.278289794921875,0.443359375,-0.851837158203125,-0.42724609375,-0.18310546875,-0.06103515625,0.4888916015625,-0.741943359375,0.450439453125,-189.0,104.0,-288.0,102747.0,-11.77400016784668,0,0
1.3811061999876983,-0.018585205078125,-0.278289794921875,0.443359375,-0.851837158203125,-0.1220703125,-0.18310546875,0.0,0.490966796875,-0.74365234375,0.4517822265625,-189.0,104.0,-288.0,102747.0,-11.77400016784668,0,0
1.381178199982969,-0.018585205078125,-0.278289794921875,0.443359375,-0.851806640625,-0.06103515625,-0.18310546875,0.1220703125,0.4910888671875,-0.7452392578125,0.4493408203125,-189.0,104.0,-288.0,102747.0,-11.77400016784668,0,0
1.3812502999790013,-0.018585205078125,-0.278289794921875,0.443359375,-0.851806640625,0.1220703125,0.1220703125,0.06103515625,0.4918212890625,-0.74609375,0.4527587890625,-189.0,104.0,-288.0,102747.0,-11.77400016784668,0,0
1.4385888999968302,-0.018585205078125,-0.278289794921875,0.443359375,-0.851806640625,0.06103515625,-0.18310546875,0.0,0.4915771484375,-0.7452392578125,0.4522705078125,-189.0,104.0,-288.0,102747.0,-11.77400016784668,0,0
1.4386676999856718,-0.018585205078125,-0.278289794921875,0.443359375,-0.851806640625,-0.06103515625,-0.1220703125,-0.1220703125,0.49169921875,-0.7467041015625,0.4501953125,-189.0,104.0,-288.0,102747.0,-11.77400016784668,0,0
1.4387401999847498,-0.018585205078125,-0.278289794921875,0.443359375,-0.851806640625,-0.06103515625,-0.244140625,-0.06103515625,0.490234375,-0.7440185546875,0.4512939453125,-189.0,104.0,-288.0,102747.0,-11.77400016784668,0,0
1.4388137999922037,-0.018585205078125,-0.278289794921875,0.443359375,-0.851806640625,0.0,-0.06103515625,-0.18310546875,0.49072265625,-0.744873046875,0.449951171875,-189.0,104.0,-288.0,102747.0,-11.77400016784668,0,0
1.4388850999821443,-0.018585205078125,-0.278289794921875,0.443359375,-0.851806640625,0.0,-0.06103515625,0.1220703125,0.489990234375,-0.74365234375,0.4530029296875,-189.0,104.0,-288.0,102747.0,-11.77400016784668,0,0
1.4393303999968339,-0.018585205078125,-0.278289794921875,0.443359375,-0.851806640625,0.1220703125,-0.1220703125,-0.30517578125,0.489501953125,-0.743896484375,0.452392578125,-189.0,104.0,-288.0,102747.0,-11.77400016784668,0,0
1.4394102999940515,-0.018585205078125,-0.278289794921875,0.443359375,-0.851806640625,0.06103515625,-0.244140625,0.06103515625,0.490234375,-0.7442626953125,0.4508056640625,-189.0,104.0,-288.0,102747.0,-11.77400016784668,0,0
1.439483599999221,-0.018585205078125,-0.278289794921875,0.443359375,-0.851806640625,-0.48828125,-0.1220703125,0.1220703125,0.4898681640625,-0.741455078125,0.451416015625,-189.0,104.0,-288.0,102747.0,-11.77400016784668,0,0
1.4395506999862846,-0.018585205078125,-0.278289794921875,0.443359375,-0.851806640625,-0.48828125,-0.1220703125,0.1220703125,0.4898681640625,-0.741455078125,0.451416015625,-189.0,104.0,-288.0,102747.0,-11.77400016784668,0,0
1.439616699994076,-0.01861572265625,-0.278289794921875,0.443359375,-0.851806640625,-0.3662109375,-0.30517578125,-0.1220703125,0.4844970703125,-0.7308349609375,0.4454345703125,-190.0,103.0,-289.0,102747.0,-11.77400016784668,0,0
1.4396839999826625,-0.01849365234375,-0.27838134765625,0.443328857421875,-0.851806640625,-0.18310546875,-0.30517578125,0.30517578125,0.48046875,-0.723388671875,0.4381103515625,-190.0,103.0,-289.0,102747.0,-11.77400016784668,0,0
1.5025967999827117,-0.018463134765625,-0.278350830078125,0.4434814453125,-0.85174560546875,0.3662109375,-0.244140625,-0.48828125,0.478271484375,-0.717529296875,0.4332275390625,-190.0,103.0,-289.0,102747.0,-11.77400016784668,0,0
1.5026979999965988,-0.018463134765625,-0.278350830078125,0.44342041015625,-0.851776123046875,0.42724609375,-0.1220703125,-0.1220703125,0.478515625,-0.7098388671875,0.441650390625,-190.0,103.0,-289.0,102747.0,-11.77400016784668,0,0
1.502773399988655,-0.01849365234375,-0.27838134765625,0.44342041015625,-0.851776123046875,-0.42724609375,0.18310546875,0.91552734375,0.48828125,-0.724609375,0.44384765625,-190.0,103.0,-289.0,102747.0,-11.77400016784668,0,0
1.5170081999967806,-0.0184326171875,-0.278289794921875,0.443511962890625,-0.85174560546875,-1.3427734375,0.30517578125,1.5869140625,0.49658203125,-0.7613525390625,0.45849609375,-190.0,103.0,-289.0,102747.0,-11.77400016784668,0,0
1.517107899999246,-0.0184326171875,-0.278289794921875,0.44354248046875,-0.85174560546875,-0.8544921875,-0.06103515625,0.54931640625,0.4959716796875,-0.7738037109375,0.4595947265625,-190.0,103.0,-289.0,102747.0,-11.77400016784668,0,0
1.517179499991471,-0.018402099609375,-0.27825927734375,0.443572998046875,-0.851715087890625,0.67138671875,-0.30517578125,-0.30517578125,0.4969482421875,-0.778564453125,0.4599609375,-190.0,103.0,-289.0,102747.0,-11.77400016784668,0,0
1.562530199997127,-0.018402099609375,-0.27825927734375,0.44354248046875,-0.85174560546875,1.220703125,-0.30517578125,-1.0986328125,0.4915771484375,-0.76904296875,0.4591064453125,-190.0,103.0,-289.0,102747.0,-11.77400016784668,0,0
1.5626097999920603,-0.018463134765625,-0.2783203125,0.4434814453125,-0.85174560546875,0.244140625,-0.54931640625,-1.03759765625,0.4937744140625,-0.7374267578125,0.4503173828125,-190.0,103.0,-289.0,102747.0,-11.77400016784668,0,0
1.5626823999918997,-0.018463134765625,-0.278350830078125,0.4434814453125,-0.85174560546875,0.244140625,-0.1220703125,0.06103515625,0.48779296875,-0.725341796875,0.445068359375,-190.0,103.0,-289.0,102747.0,-11.77400016784668,0,0
1.5627515999949537,-0.018463134765625,-0.278350830078125,0.4434814453125,-0.85174560546875,0.244140625,-0.1220703125,0.06103515625,0.48779296875,-0.725341796875,0.445068359375,-190.0,103.0,-289.0,102747.0,-11.77400016784668,0,0
1.5628195999888703,-0.01849365234375,-0.27838134765625,0.443450927734375,-0.85174560546875,-0.91552734375,0.1220703125,0.67138671875,0.489501953125,-0.72705078125,0.4451904296875,-190.0,103.0,-289.0,102747.0,-11.77400016784668,0,0
1.562898199976189,-0.01849365234375,-0.27838134765625,0.443450927734375,-0.85174560546875,-0.91552734375,0.1220703125,0.67138671875,0.489501953125,-0.72705078125,0.4451904296875,-190.0,104.0,-289.0,102747.0,-11.77500057220459,0,0
1.5629696999967564,-0.018463134765625,-0.278411865234375,0.443450927734375,-0.85174560546875,-0.1220703125,-0.06103515625,0.3662109375,0.4920654296875,-0.7470703125,0.447265625,-190.0,104.0,-289.0,102747.0,-11.77500057220459,0,0
1.5631780999829061,-0.018463134765625,-0.278411865234375,0.443450927734375,-0.85174560546875,0.0,-0.06103515625,0.0,0.493896484375,-0.7529296875,0.451904296875,-190.0,104.0,-289.0,102747.0,-11.77500057220459,0,0
1.5632437999884132,-0.018463134765625,-0.27838134765625,0.4434814453125,-0.851715087890625,-0.244140625,-0.18310546875,0.06103515625,0.4949951171875,-0.7557373046875,0.457275390625,-190.0,104.0,-289.0,102747.0,-11.77500057220459,0,0
1.563307199976407,-0.018463134765625,-0.27838134765625,0.4434814453125,-0.85174560546875,-0.244140625,-0.18310546875,0.1220703125,0.4918212890625,-0.749267578125,0.4532470703125,-190.0,104.0,-289.0,102747.0,-11.77500057220459,0,0
1.5633711999980733,-0.018463134765625,-0.27838134765625,0.443450927734375,-0.85174560546875,-0.30517578125,-0.30517578125,0.0,0.49072265625,-0.746337890625,0.4542236328125,-190.0,104.0,-289.0,102747.0,-11.77500057220459,0,0
1.5634379999828525,-0.018463134765625,-0.27838134765625,0.443450927734375,-0.85174560546875,-0.1220703125,-0.3662109375,0.0,0.4901123046875,-0.7437744140625,0.452880859375,-190.0,104.0,-289.0,102747.0,-11.77500057220459,0,0
1.563503099983791,-0.018463134765625,-0.27838134765625,0.443450927734375,-0.85174560546875,-0.18310546875,-0.18310546875,-0.1220703125,0.4859619140625,-0.739501953125,0.4490966796875,-190.0,104.0,-289.0,102747.0,-11.77500057220459,0,0
1.6343760000017937,-0.018463134765625,-0.278411865234375,0.443450927734375,-0.85174560546875,-0.54931640625,-0.1220703125,0.48828125,0.4903564453125,-0.7452392578125,0.44921875,-190.0,104.0,-289.0,102747.0,-11.77500057220459,0,0
1.63445650000358,-0.018463134765625,-0.278411865234375,0.443450927734375,-0.85174560546875,-0.42724609375,0.06103515625,0.18310546875,0.4915771484375,-0.749267578125,0.4505615234375,-190.0,104.0,-289.0,102747.0,-11.77500057220459,0,0
1.6345255999767687,-0.018463134765625,-0.27838134765625,0.4434814453125,-0.851715087890625,0.06103515625,-0.42724609375,-0.18310546875,0.490478515625,-0.748291015625,0.44970703125,-190.0,104.0,-289.0,102747.0,-11.77500057220459,0,0
1.6345941000035964,-0.018463134765625,-0.278411865234375,0.4434814453125,-0.851715087890625,-0.18310546875,-0.1220703125,-0.18310546875,0.494140625,-0.7490234375,0.4512939453125,-190.0,104.0,-289.0,102747.0,-11.77500057220459,0,0
1.6346606999868527,-0.018463134765625,-0.278411865234375,0.4434814453125,-0.851715087890625,-0.18310546875,0.06103515625,-0.06103515625,0.4932861328125,-0.7459716796875,0.453369140625,-190.0,104.0,-289.0,102747.0,-11.77500057220459,0,0
1.6349902999936603,-0.018463134765625,-0.278411865234375,0.4434814453125,-0.851715087890625,-0.18310546875,-0.06103515625,0.1220703125,0.492431640625,-0.747802734375,0.450439453125,-190.0,104.0,-289.0,102747.0,-11.77500057220459,0,0
1.6350636999995913,-0.018463134765625,-0.278411865234375,0.4434814453125,-0.851715087890625,-0.1220703125,-0.18310546875,0.244140625,0.490966796875,-0.7432861328125,0.4505615234375,-190.0,104.0,-289.0,102747.0,-11.77500057220459,0,0
1.635130599985132,-0.018463134765625,-0.278411865234375,0.4434814453125,-0.851715087890625,-0.1220703125,-0.18310546875,0.244140625,0.490966796875,-0.7432861328125,0.4505615234375,-190.0,104.0,-289.0,102747.0,-11.77500057220459,0,0
1.635196499992162,-0.018463134765625,-0.278411865234375,0.4434814453125,-0.851715087890625,0.06103515625,-0.18310546875,0.18310546875,0.4881591796875,-0.7449951171875,0.4500732421875,-190.0,104.0,-289.0,102747.0,-11.77500057220459,0,0
1.6352617999946233,-0.018463134765625,-0.278411865234375,0.443511962890625,-0.851715087890625,0.18310546875,-0.244140625,-0.1220703125,0.4876708984375,-0.7462158203125,0.4517822265625,-190.0,104.0,-289.0,102747.0,-11.77500057220459,0,0
1.6353265999932773,-0.018463134765625,-0.27838134765625,0.443511962890625,-0.851715087890625,-0.06103515625,-0.30517578125,0.06103515625,0.4888916015625,-0.7459716796875,0.4530029296875,-190.0,104.0,-289.0,102747.0,-11.77500057220459,0,0
1.6945108999789227,-0.018463134765625,-0.278411865234375,0.443511962890625,-0.851715087890625,-0.1220703125,-0.18310546875,0.18310546875,0.496337890625,-0.7469482421875,0.4505615234375,-189.0,105.0,-289.0,102747.0,-11.773000717163086,0,0
1.694594300002791,-0.018463134765625,-0.278411865234375,0.443511962890625,-0.8516845703125,0.1220703125,-0.18310546875,-0.18310546875,0.49365234375,-0.7486572265625,0.4505615234375,-189.0,105.0,-289.0,102747.0,-11.773000717163086,0,0
1.6946646999858785,-0.018463134765625,-0.2784423828125,0.443511962890625,-0.8516845703125,-0.06103515625,-0.06103515625,0.0,0.4910888671875,-0.7449951171875,0.447998046875,-189.0,105.0,-289.0,102747.0,-11.773000717163086,0,0
1.6947325999790337,-0.018463134765625,-0.2784423828125,0.44354248046875,-0.8516845703125,0.48828125,-0.06103515625,0.0,0.491943359375,-0.7421875,0.44775390625,-189.0,105.0,-289.0,102747.0,-11.773000717163086,0,0
1.6948010999767575,-0.018463134765625,-0.2784423828125,0.44354248046875,-0.8516845703125,0.48828125,-0.06103515625,0.0,0.491943359375,-0.7421875,0.44775390625,-189.0,105.0,-289.0,102747.0,-11.773000717163086,0,0
1.6948903999873437,-0.018463134765625,-0.2784423828125,0.443511962890625,-0.8516845703125,-0.30517578125,-0.244140625,0.18310546875,0.490478515625,-0.74853515625,0.4521484375,-189.0,105.0,-289.0,102747.0,-11.773000717163086,0,0
1.6949581999797374,-0.018463134765625,-0.278411865234375,0.44354248046875,-0.8516845703125,0.06103515625,0.0,-0.18310546875,0.489013671875,-0.749267578125,0.4498291015625,-189.0,105.0,-289.0,102747.0,-11.773000717163086,0,0
1.69502289997763,-0.018463134765625,-0.2784423828125,0.44354248046875,-0.8516845703125,0.1220703125,-0.06103515625,0.06103515625,0.4921875,-0.7496337890625,0.4493408203125,-189.0,105.0,-289.0,102747.0,-11.773000717163086,0,0
1.6950900999945588,-0.018463134765625,-0.2784423828125,0.44354248046875,-0.8516845703125,0.0,-0.30517578125,0.30517578125,0.4932861328125,-0.7496337890625,0.4530029296875,-189.0,105.0,-289.0,102747.0,-11.773000717163086,0,0
1.695156899979338,-0.018463134765625,-0.2784423828125,0.44354248046875,-0.8516845703125,-0.244140625,-0.1220703125,-0.1220703125,0.4920654296875,-0.7498779296875,0.4517822265625,-189.0,105.0,-289.0,102747.0,-11.773000717163086,0,0
1.6952243999985512,-0.018463134765625,-0.2784423828125,0.44354248046875,-0.8516845703125,0.18310546875,-0.1220703125,-0.06103515625,0.4923095703125,-0.746826171875,0.4490966796875,-189.0,105.0,-289.0,102747.0,-11.773000717163086,0,0
1.7568879000027664,-0.018463134765625,-0.2784423828125,0.44354248046875,-0.8516845703125,0.54931640625,-0.30517578125,-0.18310546875,0.4918212890625,-0.7442626953125,0.450439453125,-189.0,105.0,-289.0,102747.0,-11.773000717163086,0,0
1.7569683000037912,-0.018463134765625,-0.2784423828125,0.44354248046875,-0.8516845703125,-0.1220703125,-0.1220703125,0.06103515625,0.4886474609375,-0.744873046875,0.4537353515625,-189.0,105.0,-289.0,102747.0,-11.773000717163086,0,0
1.7570362999977078,-0.018463134765625,-0.2784423828125,0.44354248046875,-0.8516845703125,-0.1220703125,-0.1220703125,0.06103515625,0.4886474609375,-0.744873046875,0.4537353515625,-189.0,105.0,-289.0,102747.0,-11.773000717163086,0,0
1.7571010999963619,-0.018463134765625,-0.2784423828125,0.443572998046875,-0.851654052734375,0.30517578125,-0.06103515625,0.06103515625,0.4871826171875,-0.7452392578125,0.447998046875,-189.0,105.0,-289.0,102747.0,-11.773000717163086,0,0
1.7571651999896858,-0.018463134765625,-0.2784423828125,0.443572998046875,-0.851654052734375,0.18310546875,0.06103515625,0.06103515625,0.4892578125,-0.74462890625,0.4501953125,-189.0,105.0,-289.0,102747.0,-11.773000717163086,0,0
1.7572301999898627,-0.018463134765625,-0.2784423828125,0.44354248046875,-0.8516845703125,0.1220703125,-0.1220703125,-0.06103515625,0.4915771484375,-0.7457275390625,0.4539794921875,-189.0,105.0,-289.0,102747.0,-11.773000717163086,0,0
1.7572962999984156,-0.018463134765625,-0.2784423828125,0.443572998046875,-0.851654052734375,-0.18310546875,-0.06103515625,-0.1220703125,0.4925537109375,-0.74658203125,0.4498291015625,-189.0,105.0,-289.0,102747.0,-11.773000717163086,0,0
1.757621199998539,-0.018463134765625,-0.2784423828125,0.443572998046875,-0.851654052734375,-0.18310546875,-0.06103515625,-0.1220703125,0.4925537109375,-0.74658203125,0.4498291015625,-189.0,104.0,-289.0,102747.0,-11.773000717163086,0,0
1.7576968999928795,-0.018463134765625,-0.2784423828125,0.443572998046875,-0.851654052734375,0.1220703125,-0.1220703125,0.0,0.491943359375,-0.7474365234375,0.450439453125,-189.0,104.0,-289.0,102747.0,-11.773000717163086,0,0
1.7577638999791816,-0.018463134765625,-0.2784423828125,0.443572998046875,-0.851654052734375,-0.30517578125,-0.3662109375,0.30517578125,0.490478515625,-0.745849609375,0.4500732421875,-189.0,104.0,-289.0,102747.0,-11.773000717163086,0,0
1.757830099988496,-0.018463134765625,-0.2784423828125,0.443572998046875,-0.851654052734375,-0.1220703125,-0.3662109375,0.0,0.489990234375,-0.7435302734375,0.44970703125,-189.0,104.0,-289.0,102747.0,-11.773000717163086,0,0
1.7578975999786053,-0.018463134765625,-0.278472900390625,0.443572998046875,-0.851654052734375,0.244140625,-0.3662109375,0.18310546875,0.4903564453125,-0.74365234375,0.4481201171875,-189.0,104.0,-289.0,102747.0,-11.773000717163086,0,0
1.7579626999795437,-0.018463134765625,-0.278472900390625,0.443572998046875,-0.851654052734375,0.244140625,-0.3662109375,0.18310546875,0.4903564453125,-0.74365234375,0.4481201171875,-189.0,104.0,-289.0,102747.0,-11.773000717163086,0,0
1.8278384000004735,-0.018463134765625,-0.278472900390625,0.443603515625,-0.85162353515625,-0.3662109375,-0.18310546875,0.06103515625,0.4932861328125,-0.74951171875,0.4501953125,-189.0,104.0,-289.0,102747.0,-11.773000717163086,0,0
1.827917599992361,-0.018463134765625,-0.278472900390625,0.443603515625,-0.85162353515625,0.18310546875,0.06103515625,0.0,0.4918212890625,-0.7508544921875,0.4501953125,-189.0,104.0,-289.0,102747.0,-11.773000717163086,0,0
1.8279860999900848,-0.018463134765625,-0.278472900390625,0.443603515625,-0.85162353515625,-0.06103515625,-0.06103515625,-0.06103515625,0.4908447265625,-0.7489013671875,0.4525146484375,-189.0,104.0,-289.0,102747.0,-11.773000717163086,0,0
1.8280536999809556,-0.018463134765625,-0.278472900390625,0.443603515625,-0.85162353515625,0.18310546875,-0.06103515625,-0.06103515625,0.491455078125,-0.748779296875,0.4503173828125,-189.0,104.0,-289.0,102747.0,-11.773000717163086,0,0
1.8281203999940772,-0.018463134765625,-0.278472900390625,0.443603515625,-0.85162353515625,0.42724609375,-0.1220703125,-0.06103515625,0.490234375,-0.7462158203125,0.4505615234375,-189.0,104.0,-289.0,102747.0,-11.773000717163086,0,0
1.8282076999894343,-0.018463134765625,-0.278472900390625,0.443603515625,-0.85162353515625,-0.1220703125,-0.18310546875,0.18310546875,0.4913330078125,-0.7442626953125,0.4495849609375,-189.0,104.0,-289.0,102747.0,-11.773000717163086,0,0
1.8282734999957029,-0.018463134765625,-0.278472900390625,0.443603515625,-0.85162353515625,-0.1220703125,-0.18310546875,0.18310546875,0.4913330078125,-0.7442626953125,0.4495849609375,-189.0,104.0,-289.0,102747.0,-11.773000717163086,0,0
1.8283385999966413,-0.0184326171875,-0.278472900390625,0.443634033203125,-0.85162353515625,0.0,-0.18310546875,0.06103515625,0.4874267578125,-0.7462158203125,0.4493408203125,-189.0,104.0,-289.0,102747.0,-11.773000717163086,0,0
1.828403999999864,-0.0184326171875,-0.2784423828125,0.443634033203125,-0.85162353515625,0.06103515625,-0.18310546875,-0.18310546875,0.48828125,-0.7451171875,0.4508056640625,-189.0,104.0,-289.0,102747.0,-11.773000717163086,0,0
1.8284706999838818,-0.0184326171875,-0.2784423828125,0.443634033203125,-0.85162353515625,0.06103515625,-0.1220703125,0.0,0.4908447265625,-0.7474365234375,0.452392578125,-189.0,104.0,-289.0,102747.0,-11.773000717163086,0,0
1.8285364999901503,-0.0184326171875,-0.278472900390625,0.443634033203125,-0.85162353515625,-0.244140625,0.0,0.1220703125,0.4932861328125,-0.74755859375,0.4517822265625,-189.0,104.0,-289.0,102747.0,-11.773000717163086,0,0
1.8811300999950618,-0.0184326171875,-0.2784423828125,0.443634033203125,-0.85162353515625,0.1220703125,-0.06103515625,0.0,0.4918212890625,-0.7470703125,0.4525146484375,-189.0,104.0,-288.0,102747.0,-11.773000717163086,0,0
1.8812066999962553,-0.0184326171875,-0.2784423828125,0.443634033203125,-0.85162353515625,0.1220703125,0.0,0.0,0.4920654296875,-0.7493896484375,0.4544677734375,-189.0,104.0,-288.0,102747.0,-11.773000717163086,0,0
1.881277799984673,-0.0184326171875,-0.2784423828125,0.44366455078125,-0.85162353515625,-0.06103515625,-0.06103515625,-0.18310546875,0.4913330078125,-0.75146484375,0.4521484375,-189.0,104.0,-288.0,102747.0,-11.773000717163086,0,0
1.8813503999845125,-0.0184326171875,-0.2784423828125,0.44366455078125,-0.85162353515625,-0.06103515625,-0.06103515625,-0.18310546875,0.4913330078125,-0.75146484375,0.4521484375,-189.0,104.0,-288.0,102747.0,-11.773000717163086,0,0
1.8814171999983955,-0.0184326171875,-0.2784423828125,0.44366455078125,-0.85162353515625,0.1220703125,-0.18310546875,0.0,0.4923095703125,-0.7484130859375,0.451416015625,-189.0,104.0,-288.0,102747.0,-11.773000717163086,0,0
1.8821868999802973,-0.0184326171875,-0.2784423828125,0.44366455078125,-0.85162353515625,-0.06103515625,0.0,0.18310546875,0.49072265625,-0.7471923828125,0.449951171875,-189.0,104.0,-288.0,102747.0,-11.773000717163086,0,0
1.882264399988344,-0.0184326171875,-0.2784423828125,0.44366455078125,-0.85162353515625,0.30517578125,0.0,0.06103515625,0.49072265625,-0.7464599609375,0.4498291015625,-189.0,104.0,-288.0,102747.0,-11.773000717163086,0,0
1.8823349000012968,-0.0184326171875,-0.2784423828125,0.44366455078125,-0.85162353515625,0.1220703125,0.06103515625,-0.18310546875,0.49267578125,-0.746337890625,0.450927734375,-189.0,104.0,-288.0,102747.0,-11.773000717163086,0,0
1.8824065999942832,-0.0184326171875,-0.2784423828125,0.44366455078125,-0.851593017578125,0.18310546875,0.0,0.0,0.490966796875,-0.74560546875,0.4508056640625,-189.0,104.0,-288.0,102747.0,-11.773000717163086,0,0
1.882473299978301,-0.0184326171875,-0.2784423828125,0.44366455078125,-0.851593017578125,0.244140625,-0.18310546875,0.1220703125,0.491455078125,-0.7462158203125,0.4508056640625,-189.0,104.0,-288.0,102747.0,-11.773000717163086,0,0
1.8825418000051286,-0.0184326171875,-0.2784423828125,0.44366455078125,-0.85162353515625,-0.18310546875,-0.1220703125,-0.244140625,0.489013671875,-0.7442626953125,0.4520263671875,-189.0,104.0,-288.0,102747.0,-11.77500057220459,0,0
1.8826282999943942,-0.0184326171875,-0.2784423828125,0.44366455078125,-0.851593017578125,0.18310546875,-0.3662109375,0.1220703125,0.4913330078125,-0.7474365234375,0.4517822265625,-189.0,104.0,-288.0,102747.0,-11.77500057220459,0,0
1.9491699999780394,-0.0184326171875,-0.2784423828125,0.44366455078125,-0.851593017578125,0.18310546875,-0.3662109375,0.1220703125,0.4913330078125,-0.7474365234375,0.4517822265625,-189.0,104.0,-288.0,102747.0,-11.77500057220459,0,0
1.949335199984489,-0.0184326171875,-0.2784423828125,0.44366455078125,-0.851593017578125,0.3662109375,0.1220703125,-0.18310546875,0.4918212890625,-0.7467041015625,0.4508056640625,-189.0,104.0,-288.0,102747.0,-11.77500057220459,0,0
1.9494858999969438,-0.0184326171875,-0.2784423828125,0.44366455078125,-0.851593017578125,0.1220703125,-0.06103515625,0.18310546875,0.4910888671875,-0.7470703125,0.451171875,-189.0,104.0,-288.0,102747.0,-11.77500057220459,0,0
1.9496317000011913,-0.0184326171875,-0.2784423828125,0.44366455078125,-0.851593017578125,0.0,0.0,-0.244140625,0.491455078125,-0.74462890625,0.4520263671875,-189.0,104.0,-288.0,102747.0,-11.77500057220459,0,0
1.9497734000033233,-0.0184326171875,-0.278472900390625,0.44366455078125,-0.851593017578125,0.06103515625,0.0,-0.244140625,0.4923095703125,-0.743896484375,0.4505615234375,-189.0,104.0,-288.0,102747.0,-11.77500057220459,0,0
1.9499214999959804,-0.0184326171875,-0.278472900390625,0.44366455078125,-0.851593017578125,0.1220703125,0.06103515625,0.3662109375,0.4893798828125,-0.7447509765625,0.4508056640625,-189.0,104.0,-288.0,102747.0,-11.77500057220459,0,0
1.9502495999913663,-0.0184326171875,-0.278472900390625,0.44366455078125,-0.851593017578125,-0.18310546875,-0.244140625,-0.1220703125,0.490478515625,-0.7454833984375,0.4505615234375,-189.0,104.0,-288.0,102747.0,-11.77500057220459,0,0
1.950357099995017,-0.0184326171875,-0.278472900390625,0.44366455078125,-0.851593017578125,0.244140625,-0.3662109375,-0.1220703125,0.489501953125,-0.7440185546875,0.4495849609375,-189.0,104.0,-288.0,102747.0,-11.77500057220459,0,0
1.9504397999844514,-0.0184326171875,-0.278472900390625,0.44366455078125,-0.851593017578125,0.244140625,-0.3662109375,-0.1220703125,0.489501953125,-0.7440185546875,0.4495849609375,-190.0,105.0,-288.0,102747.0,-11.77500057220459,0,0
2.0137816999922507,-0.0184326171875,-0.278472900390625,0.443695068359375,-0.851593017578125,-0.3662109375,-0.1220703125,0.18310546875,0.4912109375,-0.7470703125,0.4498291015625,-190.0,105.0,-288.0,102747.0,-11.77500057220459,0,0
2.0138662999961525,-0.0184326171875,-0.278472900390625,0.443695068359375,-0.851593017578125,-0.1220703125,0.0,-0.06103515625,0.4906005859375,-0.7486572265625,0.449951171875,-190.0,105.0,-288.0,102747.0,-11.77500057220459,0,0
2.0139399000036065,-0.0184326171875,-0.278472900390625,0.443695068359375,-0.851593017578125,0.30517578125,-0.06103515625,0.0,0.491943359375,-0.7449951171875,0.45068359375,-190.0,105.0,-288.0,102747.0,-11.77500057220459,0,0
2.0140107999905013,-0.0184326171875,-0.278472900390625,0.443695068359375,-0.851593017578125,0.42724609375,0.1220703125,0.0,0.4910888671875,-0.7459716796875,0.4505615234375,-190.0,105.0,-288.0,102747.0,-11.77500057220459,0,0
2.014086099981796,-0.0184326171875,-0.278472900390625,0.443695068359375,-0.851593017578125,0.0,-0.1220703125,0.18310546875,0.4925537109375,-0.7449951171875,0.4515380859375,-190.0,105.0,-288.0,102747.0,-11.77500057220459,0,0
2.0143693999852985,-0.0184326171875,-0.278472900390625,0.443695068359375,-0.851593017578125,0.0,-0.1220703125,0.18310546875,0.4925537109375,-0.7449951171875,0.4515380859375,-190.0,105.0,-288.0,102747.0,-11.77500057220459,0,0
2.0144488999794703,-0.0184326171875,-0.278472900390625,0.443695068359375,-0.851593017578125,-0.06103515625,0.06103515625,0.06103515625,0.4910888671875,-0.74755859375,0.451416015625,-190.0,105.0,-288.0,102747.0,-11.77500057220459,0,0
2.014524199999869,-0.0184326171875,-0.278472900390625,0.443695068359375,-0.851593017578125,0.0,0.1220703125,-0.06103515625,0.4935302734375,-0.747802734375,0.45263671875,-190.0,105.0,-288.0,102747.0,-11.77500057220459,0,0
2.0145980999805033,-0.0184326171875,-0.278472900390625,0.443695068359375,-0.851593017578125,-0.06103515625,0.1220703125,-0.244140625,0.49072265625,-0.7481689453125,0.452392578125,-190.0,105.0,-288.0,102747.0,-11.77500057220459,0,0
2.014670100004878,-0.0184326171875,-0.278472900390625,0.443695068359375,-0.851593017578125,0.06103515625,0.1220703125,-0.18310546875,0.4903564453125,-0.7462158203125,0.451171875,-190.0,105.0,-288.0,102747.0,-11.77500057220459,0,0
2.014738700003363,-0.0184326171875,-0.278472900390625,0.443695068359375,-0.851593017578125,0.0,-0.1220703125,0.06103515625,0.490966796875,-0.7464599609375,0.4503173828125,-190.0,105.0,-288.0,102747.0,-11.77500057220459,0,0
2.0757732999918517,-0.0184326171875,-0.278472900390625,0.443695068359375,-0.851593017578125,0.1220703125,-0.30517578125,-0.244140625,0.494140625,-0.7493896484375,0.4534912109375,-190.0,105.0,-288.0,102747.0,-11.77500057220459,0,0
2.075851200002944,-0.0184326171875,-0.278472900390625,0.443695068359375,-0.851593017578125,0.1220703125,-0.30517578125,-0.244140625,0.494140625,-0.7493896484375,0.4534912109375,-190.0,105.0,-288.0,102747.0,-11.77500057220459,0,0
2.0759204999776557,-0.018341064453125,-0.278533935546875,0.443634033203125,-0.851593017578125,0.244140625,0.0,-0.1220703125,0.4915771484375,-0.74853515625,0.453369140625,-191.0,106.0,-289.0,102747.0,-11.77500057220459,0,0
2.07707929998287,-0.018341064453125,-0.278533935546875,0.443634033203125,-0.851593017578125,0.244140625,-0.06103515625,-0.06103515625,0.490478515625,-0.7467041015625,0.4521484375,-191.0,106.0,-289.0,102747.0,-11.77500057220459,0,0
2.077153099991847,-0.018341064453125,-0.278533935546875,0.443634033203125,-0.851593017578125,-0.1220703125,-0.1220703125,0.0,0.4915771484375,-0.746826171875,0.4520263671875,-191.0,106.0,-289.0,102747.0,-11.77500057220459,0,0
2.078797599999234,-0.018341064453125,-0.278533935546875,0.44366455078125,-0.851593017578125,0.1220703125,-0.06103515625,-0.1220703125,0.490234375,-0.7427978515625,0.4508056640625,-191.0,106.0,-289.0,102747.0,-11.77500057220459,0,0
2.078881299996283,-0.018341064453125,-0.278533935546875,0.44366455078125,-0.851593017578125,0.18310546875,0.06103515625,-0.18310546875,0.490966796875,-0.745361328125,0.45068359375,-191.0,106.0,-289.0,102747.0,-11.77500057220459,0,0
2.078957099991385,-0.018341064453125,-0.278533935546875,0.44366455078125,-0.851593017578125,-0.06103515625,-0.06103515625,-0.06103515625,0.489501953125,-0.7451171875,0.45166015625,-191.0,106.0,-289.0,102747.0,-11.77500057220459,0,0
2.0790686999971513,-0.018341064453125,-0.278533935546875,0.443634033203125,-0.851593017578125,0.0,-0.1220703125,-0.244140625,0.4921875,-0.746826171875,0.45263671875,-191.0,106.0,-289.0,102747.0,-11.77500057220459,0,0
2.0791434999846388,-0.018341064453125,-0.278533935546875,0.44366455078125,-0.851593017578125,-0.1220703125,-0.06103515625,-0.244140625,0.492431640625,-0.747802734375,0.452392578125,-191.0,106.0,-289.0,102747.0,-11.77500057220459,0,0
2.07921689999057,-0.018341064453125,-0.278533935546875,0.44366455078125,-0.851593017578125,0.1220703125,-0.18310546875,0.0,0.489990234375,-0.748291015625,0.452880859375,-191.0,106.0,-289.0,102747.0,-11.77500057220459,0,0
2.079289899993455,-0.018341064453125,-0.278533935546875,0.44366455078125,-0.851593017578125,0.1220703125,-0.18310546875,0.0,0.489990234375,-0.748291015625,0.452880859375,-191.0,106.0,-289.0,102747.0,-11.77500057220459,0,0
2.1462421999895014,-0.018310546875,-0.278533935546875,0.44366455078125,-0.851593017578125,0.1220703125,0.1220703125,-0.244140625,0.489990234375,-0.7452392578125,0.452392578125,-191.0,106.0,-289.0,102747.0,-11.7760009765625,0,0
2.146323199995095,-0.018341064453125,-0.278533935546875,0.443634033203125,-0.851593017578125,0.1220703125,-0.18310546875,0.0,0.4879150390625,-0.7469482421875,0.451904296875,-191.0,106.0,-289.0,102747.0,-11.7760009765625,0,0
2.146395299991127,-0.018341064453125,-0.278533935546875,0.44366455078125,-0.851593017578125,-0.1220703125,-0.06103515625,0.18310546875,0.4918212890625,-0.744140625,0.45068359375,-191.0,106.0,-289.0,102747.0,-11.7760009765625,0,0
2.1464651999995112,-0.018341064453125,-0.278533935546875,0.44366455078125,-0.851593017578125,-0.30517578125,-0.1220703125,-0.06103515625,0.4910888671875,-0.744384765625,0.449951171875,-191.0,106.0,-289.0,102747.0,-11.7760009765625,0,0
2.146531899983529,-0.018341064453125,-0.278533935546875,0.44366455078125,-0.851593017578125,0.1220703125,-0.244140625,0.1220703125,0.4910888671875,-0.7459716796875,0.44873046875,-191.0,106.0,-289.0,102747.0,-11.7760009765625,0,0
2.1466007999842986,-0.018310546875,-0.278533935546875,0.44366455078125,-0.851593017578125,0.1220703125,-0.1220703125,0.06103515625,0.490478515625,-0.7451171875,0.4505615234375,-191.0,106.0,-289.0,102747.0,-11.7760009765625,0,0
2.1467931999941356,-0.018341064453125,-0.278533935546875,0.44366455078125,-0.851593017578125,0.06103515625,0.18310546875,-0.18310546875,0.48974609375,-0.744873046875,0.45166015625,-191.0,106.0,-289.0,102747.0,-11.7760009765625,0,0
2.1468678999808617,-0.018310546875,-0.278533935546875,0.44366455078125,-0.851593017578125,0.244140625,-0.1220703125,0.244140625,0.490966796875,-0.7451171875,0.45166015625,-191.0,106.0,-289.0,102747.0,-11.7760009765625,0,0
2.146940699982224,-0.018310546875,-0.278533935546875,0.44366455078125,-0.851593017578125,0.244140625,-0.1220703125,0.244140625,0.490966796875,-0.7451171875,0.45166015625,-191.0,106.0,-289.0,102747.0,-11.7760009765625,0,0
2.147014099988155,-0.018310546875,-0.278533935546875,0.44366455078125,-0.851593017578125,0.30517578125,-0.06103515625,0.244140625,0.4920654296875,-0.747314453125,0.452392578125,-191.0,106.0,-289.0,102747.0,-11.7760009765625,0,0
2.147082799987402,-0.018310546875,-0.27850341796875,0.443634033203125,-0.851593017578125,-0.18310546875,-0.1220703125,0.0,0.4898681640625,-0.744873046875,0.4530029296875,-192.0,107.0,-289.0,102747.0,-11.7760009765625,0,0
2.1471619999792892,-0.01800537109375,-0.2786865234375,0.44354248046875,-0.851593017578125,-0.30517578125,0.0,-0.1220703125,0.4901123046875,-0.747314453125,0.4517822265625,-192.0,107.0,-289.0,102747.0,-11.7760009765625,0,0
2.202997799991863,-0.01800537109375,-0.2786865234375,0.44354248046875,-0.85162353515625,-0.06103515625,-0.1220703125,0.0,0.4920654296875,-0.745849609375,0.45263671875,-192.0,107.0,-289.0,102747.0,-11.7760009765625,0,0
2.2030721999763045,-0.01800537109375,-0.2786865234375,0.44354248046875,-0.85162353515625,0.0,-0.1220703125,0.0,0.49072265625,-0.745361328125,0.451904296875,-192.0,107.0,-289.0,102747.0,-11.7760009765625,0,0
2.2031406000023708,-0.01800537109375,-0.2786865234375,0.443511962890625,-0.85162353515625,-0.06103515625,-0.06103515625,-0.06103515625,0.4912109375,-0.7467041015625,0.4517822265625,-192.0,107.0,-289.0,102747.0,-11.7760009765625,0,0
2.203206099977251,-0.01800537109375,-0.2786865234375,0.443511962890625,-0.85162353515625,0.1220703125,0.06103515625,0.06103515625,0.4913330078125,-0.7452392578125,0.452880859375,-192.0,107.0,-289.0,102747.0,-11.7760009765625,0,0
2.2032755999825895,-0.01800537109375,-0.2786865234375,0.443511962890625,-0.85162353515625,0.1220703125,0.06103515625,0.06103515625,0.4913330078125,-0.7452392578125,0.452880859375,-192.0,107.0,-289.0,102747.0,-11.7760009765625,0,0
2.2046580000023823,-0.01800537109375,-0.2786865234375,0.443511962890625,-0.85162353515625,0.06103515625,-0.18310546875,0.06103515625,0.491455078125,-0.746826171875,0.4527587890625,-192.0,107.0,-289.0,102747.0,-11.772000312805176,0,0
2.204734400002053,-0.01800537109375,-0.2786865234375,0.443511962890625,-0.85162353515625,0.0,0.1220703125,0.1220703125,0.4915771484375,-0.7471923828125,0.453125,-192.0,107.0,-289.0,102747.0,-11.772000312805176,0,0
2.2049186999793164,-0.01800537109375,-0.278656005859375,0.443511962890625,-0.85162353515625,-0.3662109375,-0.18310546875,0.06103515625,0.490966796875,-0.747314453125,0.4549560546875,-192.0,107.0,-289.0,102747.0,-11.772000312805176,0,0
2.2049946000042837,-0.01800537109375,-0.278656005859375,0.443511962890625,-0.85162353515625,0.1220703125,0.0,0.0,0.4913330078125,-0.7470703125,0.4534912109375,-192.0,107.0,-289.0,102747.0,-11.772000312805176,0,0
2.2050641999812797,-0.01800537109375,-0.278656005859375,0.443511962890625,-0.85162353515625,0.0,-0.1220703125,0.06103515625,0.4927978515625,-0.748779296875,0.45361328125,-192.0,107.0,-289.0,102747.0,-11.772000312805176,0,0
2.2051279000006616,-0.01800537109375,-0.278656005859375,0.443511962890625,-0.85162353515625,-0.06103515625,-0.06103515625,0.06103515625,0.4908447265625,-0.748046875,0.452880859375,-192.0,107.0,-289.0,102747.0,-11.772000312805176,0,0
2.2051919999939855,-0.01800537109375,-0.278656005859375,0.443511962890625,-0.85162353515625,0.06103515625,-0.244140625,0.1220703125,0.4923095703125,-0.748779296875,0.452392578125,-192.0,107.0,-289.0,102747.0,-11.772000312805176,0,0
2.263479199988069,-0.01800537109375,-0.278656005859375,0.443511962890625,-0.85162353515625,-0.18310546875,-0.244140625,-0.18310546875,0.492431640625,-0.7493896484375,0.453857421875,-192.0,107.0,-289.0,102747.0,-11.772000312805176,0,0
2.263553900003899,-0.01800537109375,-0.278656005859375,0.443511962890625,-0.85162353515625,0.1220703125,-0.244140625,-0.18310546875,0.4913330078125,-0.74755859375,0.45361328125,-192.0,107.0,-289.0,102747.0,-11.772000312805176,0,0
2.2636209999909624,-0.01800537109375,-0.278656005859375,0.443511962890625,-0.85162353515625,0.1220703125,-0.244140625,-0.18310546875,0.4913330078125,-0.74755859375,0.45361328125,-192.0,107.0,-289.0,102747.0,-11.772000312805176,0,0
2.2636864999949466,-0.017669677734375,-0.278839111328125,0.443389892578125,-0.851654052734375,0.0,-0.06103515625,0.06103515625,0.490966796875,-0.7442626953125,0.4534912109375,-192.0,107.0,-289.0,102747.0,-11.772000312805176,0,0
2.264976199978264,-0.017669677734375,-0.27880859375,0.443389892578125,-0.851654052734375,-0.244140625,-0.1220703125,0.244140625,0.489501953125,-0.7464599609375,0.4521484375,-192.0,107.0,-289.0,102747.0,-11.772000312805176,0,0
2.2650454999820795,-0.017669677734375,-0.278839111328125,0.443389892578125,-0.851654052734375,0.42724609375,-0.3662109375,-0.06103515625,0.4947509765625,-0.7437744140625,0.4505615234375,-192.0,107.0,-289.0,102747.0,-11.772000312805176,0,0
2.2651130000012927,-0.0177001953125,-0.278839111328125,0.443389892578125,-0.851654052734375,0.30517578125,0.0,-0.06103515625,0.49169921875,-0.7445068359375,0.4530029296875,-192.0,107.0,-289.0,102747.0,-11.772000312805176,0,0
2.265232299978379,-0.0177001953125,-0.278839111328125,0.443389892578125,-0.851654052734375,0.3662109375,0.0,-0.1220703125,0.492431640625,-0.7470703125,0.45556640625,-192.0,107.0,-289.0,102747.0,-11.772000312805176,0,0
2.265299299993785,-0.0177001953125,-0.278839111328125,0.443359375,-0.851654052734375,0.06103515625,0.0,-0.06103515625,0.4901123046875,-0.744873046875,0.4534912109375,-192.0,107.0,-289.0,102747.0,-11.772000312805176,0,0
2.265364999999292,-0.0177001953125,-0.278839111328125,0.443359375,-0.851654052734375,0.06103515625,0.0,-0.06103515625,0.4901123046875,-0.744873046875,0.4534912109375,-192.0,107.0,-289.0,102747.0,-11.772000312805176,0,0
2.2654317999840714,-0.017669677734375,-0.27880859375,0.443359375,-0.851654052734375,-0.06103515625,-0.06103515625,0.0,0.4913330078125,-0.74267578125,0.4520263671875,-192.0,107.0,-289.0,102747.0,-11.772000312805176,0,0
2.3304534999770112,-0.017669677734375,-0.27880859375,0.443359375,-0.851654052734375,-0.06103515625,-0.06103515625,-0.06103515625,0.4879150390625,-0.74609375,0.4534912109375,-192.0,107.0,-289.0,102747.0,-11.772000312805176,0,0
2.330527699989034,-0.017669677734375,-0.27880859375,0.443359375,-0.851654052734375,0.06103515625,-0.244140625,-0.1220703125,0.488037109375,-0.745361328125,0.45361328125,-192.0,107.0,-289.0,102747.0,-11.77400016784668,0,0
2.330595799983712,-0.0177001953125,-0.27880859375,0.443359375,-0.8516845703125,0.06103515625,-0.06103515625,0.1220703125,0.49169921875,-0.7451171875,0.45263671875,-192.0,107.0,-289.0,102747.0,-11.77400016784668,0,0
2.330661099986173,-0.0177001953125,-0.27880859375,0.443328857421875,-0.8516845703125,-0.1220703125,-0.06103515625,-0.06103515625,0.491943359375,-0.7445068359375,0.455322265625,-192.0,107.0,-289.0,102747.0,-11.77400016784668,0,0
2.3307312999968417,-0.0177001953125,-0.27880859375,0.443328857421875,-0.8516845703125,0.1220703125,0.06103515625,0.06103515625,0.49072265625,-0.7449951171875,0.453125,-192.0,107.0,-289.0,102747.0,-11.77400016784668,0,0
2.3307973999762908,-0.0177001953125,-0.27880859375,0.443328857421875,-0.8516845703125,-0.3662109375,-0.06103515625,0.42724609375,0.4898681640625,-0.7437744140625,0.451904296875,-192.0,107.0,-289.0,102747.0,-11.77400016784668,0,0
2.3311994999821763,-0.0177001953125,-0.27880859375,0.443328857421875,-0.8516845703125,-0.06103515625,-0.1220703125,0.06103515625,0.4898681640625,-0.7435302734375,0.45263671875,-192.0,107.0,-289.0,102747.0,-11.77400016784668,0,0
2.331276599987177,-0.0177001953125,-0.27880859375,0.443328857421875,-0.8516845703125,-0.06103515625,-0.1220703125,0.06103515625,0.4898681640625,-0.7435302734375,0.45263671875,-192.0,107.0,-289.0,102747.0,-11.77400016784668,0,0
2.331344599981094,-0.0177001953125,-0.27880859375,0.443328857421875,-0.8516845703125,-0.3662109375,-0.42724609375,-0.06103515625,0.490966796875,-0.745849609375,0.4534912109375,-192.0,107.0,-289.0,102747.0,-11.77400016784668,0,0
2.331413599982625,-0.0177001953125,-0.27880859375,0.443328857421875,-0.8516845703125,0.1220703125,-0.1220703125,0.0,0.4927978515625,-0.7467041015625,0.45166015625,-192.0,107.0,-289.0,102747.0,-11.77400016784668,0,0
2.33148219998111,-0.0177001953125,-0.27880859375,0.443328857421875,-0.8516845703125,-0.06103515625,-0.18310546875,0.18310546875,0.4901123046875,-0.743896484375,0.4534912109375,-192.0,107.0,-289.0,102747.0,-11.77400016784668,0,0
2.3315492999972776,-0.0177001953125,-0.27880859375,0.443328857421875,-0.8516845703125,0.0,-0.1220703125,0.06103515625,0.4910888671875,-0.7474365234375,0.4542236328125,-192.0,108.0,-289.0,102747.0,-11.77400016784668,0,0
2.33161399999517,-0.0177001953125,-0.27880859375,0.443328857421875,-0.8516845703125,-0.244140625,-0.3662109375,-0.06103515625,0.490966796875,-0.748046875,0.45263671875,-192.0,108.0,-289.0,102747.0,-11.77400016784668,0,0
2.3935470999858808,-0.017578125,-0.27886962890625,0.443267822265625,-0.8516845703125,-0.244140625,-0.3662109375,0.06103515625,0.4930419921875,-0.74462890625,0.4521484375,-192.0,108.0,-289.0,102747.0,-11.77400016784668,0,0
2.393633300001966,-0.017578125,-0.27886962890625,0.443267822265625,-0.8516845703125,-0.3662109375,-0.1220703125,0.1220703125,0.4925537109375,-0.7451171875,0.4517822265625,-192.0,108.0,-289.0,102747.0,-11.77400016784668,0,0
2.393704499991145,-0.017578125,-0.27886962890625,0.443267822265625,-0.8516845703125,-0.3662109375,-0.1220703125,0.1220703125,0.4925537109375,-0.7451171875,0.4517822265625,-192.0,108.0,-289.0,102747.0,-11.77400016784668,0,0
2.3937723999843,-0.017578125,-0.27886962890625,0.443267822265625,-0.8516845703125,0.30517578125,-0.30517578125,-0.1220703125,0.4910888671875,-0.7467041015625,0.45068359375,-192.0,108.0,-289.0,102747.0,-11.77400016784668,0,0
2.394361399987247,-0.017578125,-0.27886962890625,0.443267822265625,-0.851715087890625,0.06103515625,-0.3662109375,0.06103515625,0.49365234375,-0.745849609375,0.453125,-192.0,108.0,-289.0,102747.0,-11.77400016784668,0,0
2.394437899987679,-0.017608642578125,-0.27886962890625,0.443267822265625,-0.851715087890625,-0.30517578125,-0.06103515625,-0.1220703125,0.4932861328125,-0.747802734375,0.4532470703125,-192.0,108.0,-289.0,102747.0,-11.77400016784668,0,0
2.394506699987687,-0.017578125,-0.27886962890625,0.443267822265625,-0.851715087890625,-0.1220703125,-0.30517578125,0.18310546875,0.48974609375,-0.747802734375,0.455078125,-192.0,108.0,-289.0,102747.0,-11.773000717163086,0,0
2.3946232000016607,-0.017578125,-0.278839111328125,0.443267822265625,-0.851715087890625,-0.1220703125,-0.30517578125,0.18310546875,0.48974609375,-0.747802734375,0.455078125,-192.0,108.0,-289.0,102747.0,-11.773000717163086,0,0
2.39468999998644,-0.017578125,-0.278839111328125,0.443267822265625,-0.851715087890625,0.1220703125,-0.1220703125,0.244140625,0.4920654296875,-0.746826171875,0.452880859375,-192.0,108.0,-289.0,102747.0,-11.773000717163086,0,0
2.3947609000024386,-0.017578125,-0.278839111328125,0.4432373046875,-0.851715087890625,0.0,-0.1220703125,-0.1220703125,0.4920654296875,-0.746337890625,0.4541015625,-192.0,108.0,-289.0,102747.0,-11.773000717163086,0,0
2.394826599978842,-0.017578125,-0.278839111328125,0.4432373046875,-0.851715087890625,0.30517578125,0.06103515625,0.06103515625,0.494384765625,-0.7474365234375,0.4534912109375,-192.0,108.0,-289.0,102747.0,-11.773000717163086,0,0
2.4599919999891426,-0.017578125,-0.278839111328125,0.4432373046875,-0.851715087890625,-0.18310546875,-0.06103515625,-0.06103515625,0.490234375,-0.7513427734375,0.4544677734375,-192.0,108.0,-289.0,102747.0,-11.773000717163086,0,0
2.460072499990929,-0.017578125,-0.278839111328125,0.4432373046875,-0.851715087890625,0.06103515625,-0.1220703125,0.06103515625,0.4910888671875,-0.748046875,0.453369140625,-192.0,108.0,-289.0,102747.0,-11.773000717163086,0,0
2.460146099998383,-0.017578125,-0.278839111328125,0.4432373046875,-0.851715087890625,0.244140625,-0.06103515625,-0.06103515625,0.491943359375,-0.7471923828125,0.452880859375,-192.0,108.0,-289.0,102747.0,-11.773000717163086,0,0
2.460418100003153,-0.017578125,-0.27880859375,0.4432373046875,-0.851715087890625,0.0,-0.1220703125,0.06103515625,0.489501953125,-0.7449951171875,0.45263671875,-192.0,108.0,-289.0,102747.0,-11.773000717163086,0,0
2.460527099989122,-0.017578125,-0.27880859375,0.4432373046875,-0.851715087890625,0.0,-0.1220703125,0.06103515625,0.489501953125,-0.7449951171875,0.45263671875,-191.0,109.0,-287.0,102747.0,-11.773000717163086,0,0
2.461128599999938,-0.0174560546875,-0.27886962890625,0.443206787109375,-0.85174560546875,0.30517578125,0.0,0.244140625,0.490478515625,-0.7449951171875,0.453125,-191.0,109.0,-287.0,102747.0,-11.773000717163086,0,0
2.4612056000041775,-0.0174560546875,-0.27886962890625,0.443206787109375,-0.85174560546875,-0.1220703125,-0.06103515625,0.0,0.49072265625,-0.7452392578125,0.453125,-191.0,109.0,-287.0,102747.0,-11.773000717163086,0,0
2.4612764999910723,-0.0174560546875,-0.27886962890625,0.443206787109375,-0.85174560546875,0.18310546875,-0.1220703125,-0.18310546875,0.491455078125,-0.7470703125,0.4517822265625,-191.0,109.0,-287.0,102747.0,-11.773000717163086,0,0
2.461344099981943,-0.0174560546875,-0.27886962890625,0.443206787109375,-0.85174560546875,0.18310546875,-0.1220703125,-0.18310546875,0.491455078125,-0.7470703125,0.4517822265625,-191.0,109.0,-287.0,102747.0,-11.773000717163086,0,0
2.461415700003272,-0.0174560546875,-0.27886962890625,0.443206787109375,-0.85174560546875,0.06103515625,0.06103515625,-0.1220703125,0.4913330078125,-0.7469482421875,0.452392578125,-191.0,109.0,-287.0,102747.0,-11.773000717163086,0,0
2.4614851999795064,-0.0174560546875,-0.27886962890625,0.443206787109375,-0.85174560546875,0.06103515625,-0.1220703125,0.0,0.4898681640625,-0.7421875,0.452392578125,-191.0,109.0,-287.0,102747.0,-11.773000717163086,0,0
2.525227999984054,-0.0174560546875,-0.27886962890625,0.44317626953125,-0.85174560546875,-0.18310546875,-0.1220703125,0.06103515625,0.489990234375,-0.7447509765625,0.4534912109375,-191.0,109.0,-287.0,102747.0,-11.773000717163086,0,0
2.5253100999980234,-0.0174560546875,-0.27886962890625,0.44317626953125,-0.85174560546875,-0.1220703125,-0.18310546875,0.18310546875,0.4896240234375,-0.7451171875,0.4525146484375,-191.0,109.0,-287.0,102747.0,-11.773000717163086,0,0
2.5253790999995545,-0.0174560546875,-0.27886962890625,0.44317626953125,-0.85174560546875,-0.1220703125,0.06103515625,-0.1220703125,0.490478515625,-0.74462890625,0.4505615234375,-191.0,109.0,-287.0,102747.0,-11.773000717163086,0,0
2.5254458999843337,-0.0174560546875,-0.27886962890625,0.44317626953125,-0.85174560546875,-0.1220703125,0.06103515625,-0.1220703125,0.490478515625,-0.74462890625,0.4505615234375,-191.0,109.0,-287.0,102747.0,-11.7760009765625,0,0
2.5255139999790117,-0.0174560546875,-0.278839111328125,0.44317626953125,-0.85174560546875,0.18310546875,-0.1220703125,0.18310546875,0.4879150390625,-0.7430419921875,0.451904296875,-191.0,109.0,-287.0,102747.0,-11.7760009765625,0,0
2.525582400005078,-0.0174560546875,-0.27886962890625,0.44317626953125,-0.85174560546875,0.0,0.06103515625,0.06103515625,0.4908447265625,-0.7452392578125,0.450439453125,-191.0,109.0,-287.0,102747.0,-11.7760009765625,0,0
2.525663699983852,-0.0174560546875,-0.27886962890625,0.44317626953125,-0.85174560546875,0.0,0.06103515625,0.06103515625,0.4908447265625,-0.7452392578125,0.450439453125,-191.0,109.0,-287.0,102747.0,-11.7760009765625,0,0
2.525729399989359,-0.0174560546875,-0.27886962890625,0.44317626953125,-0.85174560546875,-0.06103515625,0.1220703125,-0.18310546875,0.4940185546875,-0.74560546875,0.451171875,-191.0,109.0,-287.0,102747.0,-11.7760009765625,0,0
2.5257959000009578,-0.0174560546875,-0.27886962890625,0.44317626953125,-0.85174560546875,0.244140625,-0.06103515625,0.06103515625,0.4903564453125,-0.7445068359375,0.45361328125,-191.0,109.0,-287.0,102747.0,-11.7760009765625,0,0
2.5258603999973275,-0.0174560546875,-0.278839111328125,0.44317626953125,-0.85174560546875,0.18310546875,-0.06103515625,0.18310546875,0.489990234375,-0.74609375,0.4530029296875,-191.0,109.0,-287.0,102747.0,-11.7760009765625,0,0
2.525928599992767,-0.0174560546875,-0.278839111328125,0.44317626953125,-0.85174560546875,0.06103515625,-0.1220703125,-0.06103515625,0.490478515625,-0.7476806640625,0.4522705078125,-191.0,109.0,-287.0,102747.0,-11.7760009765625,0,0
2.525995200005127,-0.0174560546875,-0.278839111328125,0.44317626953125,-0.85174560546875,0.06103515625,0.1220703125,0.0,0.4918212890625,-0.746826171875,0.4527587890625,-191.0,109.0,-287.0,102747.0,-11.7760009765625,0,0
2.5260621999914292,-0.0174560546875,-0.278839111328125,0.44317626953125,-0.85174560546875,-0.244140625,-0.42724609375,-0.06103515625,0.49267578125,-0.7457275390625,0.454345703125,-191.0,109.0,-287.0,102747.0,-11.7760009765625,0,0
2.5908474999887403,-0.017364501953125,-0.278900146484375,0.443145751953125,-0.85174560546875,-0.244140625,0.0,0.1220703125,0.490234375,-0.745361328125,0.4530029296875,-191.0,109.0,-286.0,102747.0,-11.7760009765625,0,0
2.590928299992811,-0.017364501953125,-0.278900146484375,0.443145751953125,-0.85174560546875,-0.244140625,0.0,0.1220703125,0.490234375,-0.745361328125,0.4530029296875,-191.0,109.0,-286.0,102747.0,-11.7760009765625,0,0
2.5910020000010263,-0.017364501953125,-0.278900146484375,0.443145751953125,-0.85174560546875,0.06103515625,-0.18310546875,0.244140625,0.490478515625,-0.74658203125,0.4515380859375,-191.0,109.0,-286.0,102747.0,-11.7760009765625,0,0
2.5910703999979887,-0.017364501953125,-0.278900146484375,0.443145751953125,-0.85174560546875,-0.3662109375,0.06103515625,0.0,0.4935302734375,-0.7457275390625,0.451171875,-191.0,109.0,-286.0,102747.0,-11.7760009765625,0,0
2.5911423999932595,-0.017364501953125,-0.278900146484375,0.443145751953125,-0.85174560546875,-0.06103515625,0.06103515625,0.06103515625,0.4918212890625,-0.7484130859375,0.453369140625,-191.0,109.0,-286.0,102747.0,-11.7760009765625,0,0
2.595839399989927,-0.017364501953125,-0.278900146484375,0.443145751953125,-0.85174560546875,-0.06103515625,0.06103515625,0.1220703125,0.48974609375,-0.748291015625,0.45263671875,-191.0,109.0,-286.0,102747.0,-11.7760009765625,0,0
2.595911399985198,-0.017364501953125,-0.278900146484375,0.443145751953125,-0.85174560546875,0.1220703125,-0.1220703125,0.3662109375,0.4896240234375,-0.746337890625,0.453857421875,-191.0,109.0,-286.0,102747.0,-11.7760009765625,0,0
2.5959806999890134,-0.017333984375,-0.278900146484375,0.443145751953125,-0.85174560546875,0.18310546875,0.0,0.06103515625,0.49072265625,-0.746826171875,0.4521484375,-191.0,109.0,-286.0,102747.0,-11.7760009765625,0,0
2.5960520999797154,-0.017333984375,-0.278900146484375,0.443145751953125,-0.85174560546875,-0.1220703125,-0.06103515625,0.06103515625,0.4918212890625,-0.7481689453125,0.453125,-191.0,109.0,-286.0,102747.0,-11.773000717163086,0,0
2.596124499978032,-0.017333984375,-0.278900146484375,0.443145751953125,-0.85174560546875,-0.244140625,-0.06103515625,0.06103515625,0.4913330078125,-0.74853515625,0.451904296875,-191.0,109.0,-286.0,102747.0,-11.773000717163086,0,0
2.59619699997711,-0.017333984375,-0.278900146484375,0.443145751953125,-0.85174560546875,-0.244140625,-0.06103515625,0.06103515625,0.4913330078125,-0.74853515625,0.451904296875,-191.0,109.0,-286.0,102747.0,-11.773000717163086,0,0
2.6489796999958344,-0.017333984375,-0.278900146484375,0.443145751953125,-0.85174560546875,-0.1220703125,0.06103515625,0.0,0.491455078125,-0.7481689453125,0.454345703125,-191.0,109.0,-286.0,102747.0,-11.773000717163086,0,0
2.6490636999951676,-0.017333984375,-0.278900146484375,0.443145751953125,-0.85174560546875,0.0,-0.1220703125,0.18310546875,0.4908447265625,-0.7464599609375,0.45166015625,-191.0,109.0,-286.0,102747.0,-11.773000717163086,0,0
2.649138899985701,-0.017333984375,-0.278900146484375,0.443145751953125,-0.85174560546875,0.06103515625,-0.1220703125,0.06103515625,0.49072265625,-0.74658203125,0.4522705078125,-191.0,109.0,-286.0,102747.0,-11.773000717163086,0,0
2.6492138000030536,-0.017333984375,-0.278900146484375,0.443145751953125,-0.85174560546875,-0.06103515625,-0.06103515625,0.06103515625,0.4891357421875,-0.7452392578125,0.4505615234375,-191.0,109.0,-286.0,102747.0,-11.773000717163086,0,0
2.6492861000006087,-0.017333984375,-0.278900146484375,0.443145751953125,-0.85174560546875,0.3662109375,0.1220703125,-0.30517578125,0.4913330078125,-0.7430419921875,0.4520263671875,-191.0,109.0,-286.0,102747.0,-11.773000717163086,0,0
2.6497306999808643,-0.017333984375,-0.278900146484375,0.443145751953125,-0.85174560546875,-0.18310546875,-0.1220703125,0.06103515625,0.490966796875,-0.744140625,0.4521484375,-191.0,109.0,-286.0,102747.0,-11.773000717163086,0,0
2.649847199994838,-0.017333984375,-0.278900146484375,0.443145751953125,-0.85174560546875,-0.18310546875,-0.1220703125,0.06103515625,0.490966796875,-0.744140625,0.4521484375,-190.0,109.0,-287.0,102747.0,-11.773000717163086,0,0
2.6499155999918003,-0.017333984375,-0.278900146484375,0.443145751953125,-0.85174560546875,-0.18310546875,-0.1220703125,0.06103515625,0.490966796875,-0.744140625,0.4521484375,-190.0,109.0,-287.0,102747.0,-11.773000717163086,0,0
2.6499860000039916,-0.017333984375,-0.278900146484375,0.443145751953125,-0.85174560546875,-0.1220703125,-0.1220703125,0.42724609375,0.4925537109375,-0.7457275390625,0.45166015625,-190.0,109.0,-287.0,102747.0,-11.773000717163086,0,0
2.6500531999918167,-0.017333984375,-0.278900146484375,0.443145751953125,-0.85174560546875,-0.3662109375,0.06103515625,0.06103515625,0.490234375,-0.7457275390625,0.4515380859375,-190.0,109.0,-287.0,102747.0,-11.773000717163086,0,0
2.650120699981926,-0.017333984375,-0.278900146484375,0.443145751953125,-0.85174560546875,0.06103515625,-0.18310546875,0.0,0.4912109375,-0.744384765625,0.452880859375,-190.0,109.0,-287.0,102747.0,-11.773000717163086,0,0
2.715989099990111,-0.017364501953125,-0.278900146484375,0.443145751953125,-0.85174560546875,0.1220703125,-0.06103515625,-0.06103515625,0.490966796875,-0.744384765625,0.4498291015625,-190.0,109.0,-287.0,102747.0,-11.773000717163086,0,0
2.7160650999867357,-0.017333984375,-0.278900146484375,0.443145751953125,-0.85174560546875,0.1220703125,-0.244140625,0.1220703125,0.4881591796875,-0.7462158203125,0.451171875,-190.0,109.0,-287.0,102747.0,-11.773000717163086,0,0
2.7161339999875054,-0.017333984375,-0.278900146484375,0.443145751953125,-0.85174560546875,0.18310546875,-0.18310546875,0.0,0.490234375,-0.748046875,0.4520263671875,-190.0,109.0,-287.0,102747.0,-11.773000717163086,0,0
2.7162033999920823,-0.017333984375,-0.278900146484375,0.44317626953125,-0.85174560546875,0.06103515625,-0.3662109375,-0.1220703125,0.4886474609375,-0.7457275390625,0.4493408203125,-190.0,109.0,-287.0,102747.0,-11.773000717163086,0,0
2.7162719999905676,-0.017333984375,-0.278900146484375,0.443145751953125,-0.85174560546875,0.244140625,-0.30517578125,0.0,0.4920654296875,-0.745849609375,0.4527587890625,-190.0,109.0,-287.0,102747.0,-11.773000717163086,0,0
2.716339499980677,-0.017333984375,-0.278900146484375,0.443145751953125,-0.85174560546875,0.244140625,-0.30517578125,0.0,0.4920654296875,-0.745849609375,0.4527587890625,-190.0,109.0,-287.0,102747.0,-11.773000717163086,0,0
2.7210066999832634,-0.017333984375,-0.278900146484375,0.443145751953125,-0.85174560546875,-0.244140625,-0.48828125,-0.18310546875,0.490966796875,-0.7451171875,0.451416015625,-190.0,109.0,-287.0,102747.0,-11.77500057220459,0,0
2.721084399992833,-0.017333984375,-0.278900146484375,0.44317626953125,-0.85174560546875,-0.30517578125,0.1220703125,0.244140625,0.4915771484375,-0.744384765625,0.45166015625,-190.0,109.0,-287.0,102747.0,-11.77500057220459,0,0
2.7211536999966484,-0.017333984375,-0.278900146484375,0.44317626953125,-0.85174560546875,-0.30517578125,-0.244140625,0.0,0.4886474609375,-0.7464599609375,0.45068359375,-190.0,109.0,-287.0,102747.0,-11.77500057220459,0,0
2.7212213999882806,-0.017333984375,-0.278900146484375,0.44317626953125,-0.85174560546875,-0.1220703125,0.0,0.0,0.4910888671875,-0.7464599609375,0.44921875,-190.0,109.0,-287.0,102747.0,-11.77500057220459,0,0
2.7212898999860045,-0.017333984375,-0.278900146484375,0.44317626953125,-0.85174560546875,-0.3662109375,-0.06103515625,-0.06103515625,0.4910888671875,-0.7452392578125,0.45166015625,-190.0,109.0,-287.0,102747.0,-11.77500057220459,0,0
2.727131499996176,-0.017333984375,-0.278900146484375,0.44317626953125,-0.85174560546875,-0.1220703125,-0.18310546875,0.0,0.492431640625,-0.747314453125,0.453369140625,-190.0,109.0,-287.0,102747.0,-11.77500057220459,0,0
2.7272598999843467,-0.017333984375,-0.278900146484375,0.44317626953125,-0.85174560546875,0.06103515625,-0.06103515625,0.18310546875,0.4891357421875,-0.7474365234375,0.4527587890625,-190.0,109.0,-287.0,102747.0,-11.77500057220459,0,0
2.775749699998414,-0.017333984375,-0.278900146484375,0.44317626953125,-0.85174560546875,-0.06103515625,-0.1220703125,0.0,0.490234375,-0.746337890625,0.4505615234375,-190.0,109.0,-287.0,102747.0,-11.77500057220459,0,0
2.7758290999918245,-0.017333984375,-0.278900146484375,0.44317626953125,-0.85174560546875,0.06103515625,-0.244140625,-0.06103515625,0.4920654296875,-0.746337890625,0.4508056640625,-190.0,109.0,-286.0,102747.0,-11.77500057220459,0,0
2.7758973999880254,-0.017333984375,-0.278900146484375,0.44317626953125,-0.85174560546875,0.18310546875,-0.18310546875,0.0,0.4901123046875,-0.748779296875,0.4521484375,-190.0,109.0,-286.0,102747.0,-11.77500057220459,0,0
2.7759682000032626,-0.017333984375,-0.278900146484375,0.44317626953125,-0.85174560546875,-0.3662109375,-0.18310546875,0.18310546875,0.4921875,-0.747802734375,0.4525146484375,-190.0,109.0,-286.0,102747.0,-11.77500057220459,0,0
2.776039199990919,-0.017333984375,-0.278900146484375,0.443206787109375,-0.85174560546875,-0.1220703125,-0.1220703125,0.18310546875,0.4903564453125,-0.7490234375,0.4517822265625,-190.0,109.0,-286.0,102747.0,-11.77500057220459,0,0
2.776221199979773,-0.017333984375,-0.278900146484375,0.443206787109375,-0.85174560546875,0.0,-0.18310546875,-0.06103515625,0.4913330078125,-0.7498779296875,0.4522705078125,-190.0,109.0,-286.0,102747.0,-11.77500057220459,0,0
2.776289599976735,-0.017303466796875,-0.27886962890625,0.443206787109375,-0.85174560546875,-0.18310546875,-0.18310546875,0.0,0.4871826171875,-0.748046875,0.452880859375,-190.0,109.0,-286.0,102747.0,-11.77500057220459,0,0
2.776355899986811,-0.017333984375,-0.278900146484375,0.443206787109375,-0.85174560546875,0.244140625,-0.1220703125,0.0,0.48974609375,-0.74658203125,0.453125,-190.0,109.0,-286.0,102747.0,-11.77500057220459,0,0
2.776420199981658,-0.017333984375,-0.27886962890625,0.443206787109375,-0.85174560546875,-0.06103515625,-0.06103515625,-0.1220703125,0.4921875,-0.746826171875,0.4522705078125,-190.0,109.0,-286.0,102747.0,-11.77500057220459,0,0
2.7764857999864034,-0.017333984375,-0.27886962890625,0.443206787109375,-0.85174560546875,-0.06103515625,-0.06103515625,-0.1220703125,0.4921875,-0.746826171875,0.4522705078125,-190.0,109.0,-286.0,102747.0,-11.77500057220459,0,0
2.776550899987342,-0.017333984375,-0.278900146484375,0.443206787109375,-0.85174560546875,-0.18310546875,-0.1220703125,0.1220703125,0.493896484375,-0.74951171875,0.4521484375,-190.0,109.0,-286.0,102747.0,-11.773000717163086,0,0
2.840796699980274,-0.017303466796875,-0.27886962890625,0.443206787109375,-0.851715087890625,0.18310546875,-0.06103515625,0.0,0.4906005859375,-0.7490234375,0.4525146484375,-190.0,109.0,-286.0,102747.0,-11.773000717163086,0,0
2.840880699979607,-0.017303466796875,-0.27886962890625,0.4432373046875,-0.851715087890625,0.18310546875,-0.18310546875,0.06103515625,0.49072265625,-0.747802734375,0.44970703125,-190.0,109.0,-286.0,102747.0,-11.773000717163086,0,0
2.8409503999864683,-0.017303466796875,-0.27886962890625,0.443206787109375,-0.851715087890625,0.0,-0.18310546875,0.1220703125,0.4915771484375,-0.7449951171875,0.453125,-190.0,109.0,-286.0,102747.0,-11.773000717163086,0,0
2.841018699982669,-0.017303466796875,-0.27886962890625,0.4432373046875,-0.851715087890625,0.18310546875,-0.06103515625,-0.06103515625,0.489501953125,-0.747802734375,0.45068359375,-190.0,109.0,-286.0,102747.0,-11.773000717163086,0,0
2.841085699998075,-0.017303466796875,-0.27886962890625,0.4432373046875,-0.851715087890625,0.1220703125,-0.244140625,0.0,0.490478515625,-0.7469482421875,0.451904296875,-190.0,109.0,-286.0,102747.0,-11.773000717163086,0,0
2.9043120999995153,-0.01763916015625,-0.2786865234375,0.443328857421875,-0.851715087890625,0.244140625,-0.18310546875,0.06103515625,0.48876953125,-0.743896484375,0.4510498046875,-190.0,109.0,-288.0,102747.0,-11.773000717163086,0,0
2.9043965000018943,-0.01763916015625,-0.2786865234375,0.443328857421875,-0.851715087890625,-0.1220703125,-0.1220703125,0.0,0.4915771484375,-0.7440185546875,0.4515380859375,-190.0,109.0,-288.0,102747.0,-11.773000717163086,0,0
2.9044670999865048,-0.01763916015625,-0.278717041015625,0.443328857421875,-0.851715087890625,0.0,-0.06103515625,-0.06103515625,0.4921875,-0.7431640625,0.4483642578125,-190.0,109.0,-288.0,102747.0,-11.773000717163086,0,0
2.9045375999994576,-0.01763916015625,-0.278717041015625,0.443328857421875,-0.851715087890625,-0.18310546875,0.06103515625,-0.1220703125,0.49072265625,-0.7435302734375,0.4500732421875,-190.0,109.0,-288.0,102747.0,-11.773000717163086,0,0
2.9046044999849983,-0.01763916015625,-0.278717041015625,0.443328857421875,-0.851715087890625,-0.18310546875,0.06103515625,-0.1220703125,0.49072265625,-0.7435302734375,0.4500732421875,-190.0,109.0,-288.0,102747.0,-11.773000717163086,0,0
2.904673899989575,-0.01763916015625,-0.278717041015625,0.443328857421875,-0.851715087890625,-0.3662109375,-0.1220703125,0.06103515625,0.491455078125,-0.7447509765625,0.4498291015625,-190.0,109.0,-288.0,102747.0,-11.773000717163086,0,0
2.904741999984253,-0.01763916015625,-0.278717041015625,0.443328857421875,-0.851715087890625,-0.1220703125,-0.06103515625,0.06103515625,0.48974609375,-0.743896484375,0.45166015625,-190.0,109.0,-288.0,102747.0,-11.773000717163086,0,0
2.904903699993156,-0.01763916015625,-0.278717041015625,0.443328857421875,-0.851715087890625,-0.1220703125,-0.06103515625,0.06103515625,0.48974609375,-0.743896484375,0.45166015625,-190.0,109.0,-288.0,102747.0,-11.773000717163086,0,0
2.904970899980981,-0.01763916015625,-0.278717041015625,0.443328857421875,-0.851715087890625,-0.244140625,-0.18310546875,0.06103515625,0.48974609375,-0.741943359375,0.451904296875,-190.0,109.0,-288.0,102747.0,-11.773000717163086,0,0
2.9050362999842037,-0.01763916015625,-0.278717041015625,0.443328857421875,-0.851715087890625,-0.30517578125,-0.1220703125,0.1220703125,0.4921875,-0.7462158203125,0.453125,-190.0,109.0,-288.0,102747.0,-11.773000717163086,0,0
2.9051009999820963,-0.01763916015625,-0.278717041015625,0.443328857421875,-0.851715087890625,0.18310546875,-0.06103515625,0.0,0.4920654296875,-0.746826171875,0.4537353515625,-190.0,109.0,-288.0,102747.0,-11.773000717163086,0,0
2.905172800004948,-0.01763916015625,-0.278717041015625,0.443328857421875,-0.851715087890625,-0.1220703125,-0.18310546875,-0.1220703125,0.4903564453125,-0.74609375,0.4532470703125,-190.0,109.0,-288.0,102747.0,-11.773000717163086,0,0
2.90524419999565,-0.01763916015625,-0.2786865234375,0.443328857421875,-0.851715087890625,0.1220703125,-0.244140625,0.0,0.49072265625,-0.7451171875,0.4525146484375,-190.0,109.0,-288.0,102747.0,-11.773000717163086,0,0
2.9765605999855325,-0.01763916015625,-0.2786865234375,0.443328857421875,-0.851715087890625,0.06103515625,0.1220703125,0.244140625,0.4908447265625,-0.74560546875,0.4521484375,-190.0,109.0,-288.0,102747.0,-11.773000717163086,0,0
2.976638099993579,-0.01763916015625,-0.2786865234375,0.443328857421875,-0.851715087890625,-0.30517578125,-0.244140625,0.06103515625,0.4874267578125,-0.7470703125,0.4539794921875,-190.0,109.0,-288.0,102747.0,-11.773000717163086,0,0
