Time stamp(sec),quaternion_0,quaternion_1,quaternion_2,quaternion_3,roll_angular_rate,pitch_angular_rate,yaw_angular_rate,acc_X,acc_Y,acc_Z,mag_X,mag_Y,mag_Z,pressure,altitude
20.88303,-0.0008757610921747983,-8.801699732430279e-05,-6.574747385457158e-05,0.9999833703041077,0.1220703125,0.0,0.0,0.0220947265625,-0.0941162109375,-0.97021484375,-275.0,-249.0,429.0,102114.0,-6.552000522613525,0,0
20.890017,-0.0008757610921747983,-8.801699732430279e-05,-6.574747385457158e-05,0.9999833703041077,-0.06103515625,0.06103515625,-0.06103515625,0.025146484375,-0.0933837890625,-0.9720458984375,-275.0,-249.0,429.0,102114.0,-6.552000522613525,0,0
20.896998,-0.0008757610921747983,-8.801699732430279e-05,-6.574747385457158e-05,0.9999833703041077,-0.42724609375,-0.1220703125,0.0,0.022216796875,-0.0933837890625,-0.9713134765625,-274.0,-248.0,430.0,102114.0,-6.552000522613525,0,0
20.903997,-0.0008757610921747983,-8.801699732430279e-05,-6.574747385457158e-05,0.9999833703041077,-0.30517578125,0.0,-0.1220703125,0.0255126953125,-0.0904541015625,-0.9715576171875,-274.0,-248.0,430.0,102114.0,-6.552000522613525,0,0
20.911022,-0.0008769829873926938,-5.959769259789027e-05,-7.676685345359147e-05,0.999982476234436,0.06103515625,0.1220703125,-0.244140625,0.02392578125,-0.0941162109375,-0.970458984375,-274.0,-248.0,430.0,102114.0,-6.552000522613525,0,0
20.918001,-0.0008769829873926938,-5.959769259789027e-05,-7.676685345359147e-05,0.999982476234436,-0.06103515625,-0.1220703125,-0.18310546875,0.025146484375,-0.090576171875,-0.9703369140625,-274.0,-248.0,430.0,102114.0,-6.553000450134277,0,0
20.925015,-0.0008769829873926938,-5.959769259789027e-05,-7.676685345359147e-05,0.999982476234436,-0.06103515625,0.244140625,0.18310546875,0.02490234375,-0.0919189453125,-0.9705810546875,-274.0,-248.0,430.0,102114.0,-6.553000450134277,0,0
20.932,-0.0008757610921747983,-8.801699732430279e-05,-6.574747385457158e-05,0.9999833703041077,-0.18310546875,0.0,0.06103515625,0.02490234375,-0.09375,-0.9698486328125,-274.0,-248.0,430.0,102114.0,-6.553000450134277,0,0
20.938999,-0.0008757610921747983,-8.801699732430279e-05,-6.574747385457158e-05,0.9999833703041077,0.1220703125,0.06103515625,-0.18310546875,0.0260009765625,-0.093505859375,-0.97265625,-274.0,-248.0,430.0,102114.0,-6.553000450134277,0,0
20.94602,-0.0008757610921747983,-8.801699732430279e-05,-6.574747385457158e-05,0.9999833703041077,-0.06103515625,0.18310546875,-0.244140625,0.0244140625,-0.091796875,-0.972412109375,-274.0,-248.0,430.0,102114.0,-6.553000450134277,0,0
20.953003,-0.0008757610921747983,-8.801699732430279e-05,-6.574747385457158e-05,0.9999833703041077,0.0,-0.06103515625,-0.18310546875,0.0252685546875,-0.09130859375,-0.9716796875,-274.0,-248.0,430.0,102114.0,-6.553000450134277,0,0
20.973026,-0.0008757610921747983,-8.801699732430279e-05,-6.574747385457158e-05,0.9999833703041077,0.0,0.3662109375,-0.1220703125,0.02490234375,-0.0943603515625,-0.9708251953125,-274.0,-248.0,430.0,102114.0,-6.553000450134277,0,0
20.980017,-0.0008757610921747983,-8.801699732430279e-05,-6.574747385457158e-05,0.9999833703041077,-0.18310546875,0.06103515625,-0.1220703125,0.0235595703125,-0.093017578125,-0.9716796875,-274.0,-248.0,430.0,102114.0,-6.553000450134277,0,0
20.986997,-0.0008769829873926938,-5.959769259789027e-05,-7.676685345359147e-05,0.999982476234436,0.0,0.18310546875,-0.06103515625,0.0213623046875,-0.0906982421875,-0.9703369140625,-274.0,-248.0,430.0,102114.0,-6.553000450134277,0,0
20.993997,-0.0008769829873926938,-5.959769259789027e-05,-7.676685345359147e-05,0.999982476234436,0.1220703125,0.06103515625,-0.06103515625,0.0255126953125,-0.0928955078125,-0.9710693359375,-274.0,-248.0,430.0,102114.0,-6.553000450134277,0,0
21.001022,-0.0008769829873926938,-5.959769259789027e-05,-7.676685345359147e-05,0.999982476234436,0.0,0.18310546875,-0.1220703125,0.0238037109375,-0.0902099609375,-0.969970703125,-274.0,-247.0,430.0,102114.0,-6.553000450134277,0,0
21.008001,-0.0008091306081041694,-5.8066598285222426e-05,-7.972659659571946e-05,0.9999760985374451,0.18310546875,0.06103515625,-0.1220703125,0.0269775390625,-0.0908203125,-0.973388671875,-274.0,-247.0,430.0,102114.0,-6.553000450134277,0,0
21.015015,-0.0008091306081041694,-5.8066598285222426e-05,-7.972659659571946e-05,0.9999760985374451,-0.42724609375,0.0,-0.42724609375,0.02392578125,-0.093017578125,-0.9718017578125,-274.0,-247.0,430.0,102114.0,-6.552000522613525,0,0
21.021996,-0.0008091306081041694,-5.8066598285222426e-05,-7.972659659571946e-05,0.9999760985374451,0.0,0.18310546875,0.06103515625,0.024169921875,-0.0921630859375,-0.9722900390625,-274.0,-247.0,430.0,102114.0,-6.552000522613525,0,0
21.028994,-0.0008091306081041694,-5.8066598285222426e-05,-7.972659659571946e-05,0.9999760985374451,0.0,0.1220703125,-0.1220703125,0.0242919921875,-0.0919189453125,-0.9710693359375,-274.0,-247.0,430.0,102114.0,-6.552000522613525,0,0
21.036019,-0.0008082365384325385,-4.7047215048223734e-05,-5.130729186930694e-05,0.9999749064445496,-0.06103515625,0.06103515625,0.1220703125,0.02490234375,-0.09228515625,-0.9716796875,-274.0,-247.0,430.0,102114.0,-6.552000522613525,0,0
21.043003,-0.0008091306081041694,-5.8066598285222426e-05,-7.972659659571946e-05,0.9999760985374451,-0.1220703125,-0.06103515625,0.18310546875,0.0233154296875,-0.09228515625,-0.9722900390625,-274.0,-247.0,430.0,102114.0,-6.552000522613525,0,0
21.050019,-0.0008082365384325385,-4.7047215048223734e-05,-5.130729186930694e-05,0.9999749064445496,0.1220703125,-0.06103515625,-0.06103515625,0.0257568359375,-0.092529296875,-0.9716796875,-274.0,-247.0,430.0,102114.0,-6.552000522613525,0,0
21.056997,-0.0008091306081041694,-5.8066598285222426e-05,-7.972659659571946e-05,0.9999760985374451,-0.1220703125,-0.06103515625,-0.06103515625,0.0257568359375,-0.0916748046875,-0.97265625,-274.0,-247.0,430.0,102114.0,-6.552000522613525,0,0
21.063996,-0.0008082365384325385,-4.7047215048223734e-05,-5.130729186930694e-05,0.9999749064445496,-0.1220703125,-0.1220703125,0.0,0.0238037109375,-0.0916748046875,-0.97119140625,-274.0,-247.0,430.0,102114.0,-6.552000522613525,0,0
21.07003,-0.0008082365384325385,-4.7047215048223734e-05,-5.130729186930694e-05,0.9999749064445496,-0.1220703125,-0.1220703125,0.0,0.0238037109375,-0.0916748046875,-0.97119140625,-274.0,-247.0,430.0,102114.0,-6.552000522613525,0,0
21.076997,-0.0008070444455370307,-7.546652341261506e-05,-4.0287908632308245e-05,0.9999758005142212,0.1220703125,0.1220703125,-0.1220703125,0.0262451171875,-0.0926513671875,-0.97314453125,-274.0,-247.0,430.0,102114.0,-6.552000522613525,0,0
21.083997,-0.0008070444455370307,-7.546652341261506e-05,-4.0287908632308245e-05,0.9999758005142212,0.06103515625,-0.1220703125,0.0,0.02587890625,-0.092529296875,-0.9722900390625,-274.0,-247.0,430.0,102114.0,-6.552000522613525,0,0
21.091023,-0.0008070444455370307,-7.546652341261506e-05,-4.0287908632308245e-05,0.9999758005142212,-0.48828125,0.18310546875,-0.1220703125,0.025634765625,-0.0924072265625,-0.968505859375,-274.0,-247.0,430.0,102114.0,-6.552000522613525,0,0
21.098001,-0.0008070444455370307,-7.546652341261506e-05,-4.0287908632308245e-05,0.9999758005142212,-0.06103515625,-0.1220703125,0.30517578125,0.0263671875,-0.090087890625,-0.97216796875,-273.0,-247.0,430.0,102114.0,-6.552000522613525,0,0
21.105015,-0.0008070444455370307,-7.546652341261506e-05,-4.0287908632308245e-05,0.9999758005142212,-0.244140625,0.06103515625,-0.06103515625,0.0247802734375,-0.092041015625,-0.9737548828125,-273.0,-247.0,430.0,102114.0,-6.552000522613525,0,0
21.111996,-0.0008070444455370307,-7.546652341261506e-05,-4.0287908632308245e-05,0.9999758005142212,-0.18310546875,0.244140625,-0.06103515625,0.023193359375,-0.0919189453125,-0.971435546875,-273.0,-247.0,430.0,102114.0,-6.552000522613525,0,0
21.118994,-0.0008070444455370307,-7.546652341261506e-05,-4.0287908632308245e-05,0.9999758005142212,-0.1220703125,0.3662109375,-0.1220703125,0.025146484375,-0.0931396484375,-0.96826171875,-273.0,-247.0,430.0,102114.0,-6.551000118255615,0,0
21.126019,-0.0008070444455370307,-7.546652341261506e-05,-4.0287908632308245e-05,0.9999758005142212,-0.1220703125,0.1220703125,0.06103515625,0.02685546875,-0.0919189453125,-0.969482421875,-273.0,-247.0,430.0,102114.0,-6.551000118255615,0,0
21.146998,-0.0008079087128862739,-8.648590301163495e-05,-6.870721699669957e-05,0.9999769926071167,-0.244140625,0.0,0.0,0.0252685546875,-0.0936279296875,-0.9713134765625,-273.0,-247.0,430.0,102114.0,-6.551000118255615,0,0
21.153996,-0.0008079087128862739,-8.648590301163495e-05,-6.870721699669957e-05,0.9999769926071167,-0.06103515625,-0.18310546875,-0.244140625,0.0233154296875,-0.08984375,-0.9715576171875,-273.0,-247.0,430.0,102114.0,-6.551000118255615,0,0
21.16003,-0.0008079087128862739,-8.648590301163495e-05,-6.870721699669957e-05,0.9999769926071167,-0.06103515625,-0.18310546875,-0.244140625,0.0233154296875,-0.08984375,-0.9715576171875,-273.0,-247.0,430.0,102114.0,-6.551000118255615,0,0
21.166999,-0.0008079087128862739,-8.648590301163495e-05,-6.870721699669957e-05,0.9999769926071167,0.06103515625,0.30517578125,0.1220703125,0.023193359375,-0.092529296875,-0.971435546875,-273.0,-247.0,430.0,102114.0,-6.551000118255615,0,0
21.173997,-0.0008079087128862739,-8.648590301163495e-05,-6.870721699669957e-05,0.9999769926071167,-0.06103515625,-0.06103515625,0.0,0.0244140625,-0.09228515625,-0.9720458984375,-273.0,-247.0,430.0,102114.0,-6.551000118255615,0,0
21.181022,-0.0008079087128862739,-8.648590301163495e-05,-6.870721699669957e-05,0.9999769926071167,-0.42724609375,-0.06103515625,-0.244140625,0.024658203125,-0.0927734375,-0.970703125,-273.0,-247.0,430.0,102114.0,-6.551000118255615,0,0
21.188001,-0.0008079087128862739,-8.648590301163495e-05,-6.870721699669957e-05,0.9999769926071167,0.06103515625,0.1220703125,0.1220703125,0.02392578125,-0.0921630859375,-0.9718017578125,-273.0,-247.0,430.0,102114.0,-6.551000118255615,0,0
21.195015,-0.0008079087128862739,-8.648590301163495e-05,-6.870721699669957e-05,0.9999769926071167,-0.48828125,0.1220703125,-0.06103515625,0.0234375,-0.0919189453125,-0.97119140625,-274.0,-247.0,431.0,102114.0,-6.551000118255615,0,0
21.202,-0.0007409205427393317,-9.597792086424306e-05,-0.00010008906247094274,0.9999718070030212,0.18310546875,0.06103515625,0.18310546875,0.0240478515625,-0.0941162109375,-0.972900390625,-274.0,-247.0,431.0,102114.0,-6.551000118255615,0,0
21.208999,-0.0007409205427393317,-9.597792086424306e-05,-0.00010008906247094274,0.9999718070030212,0.0,0.1220703125,-0.1220703125,0.0240478515625,-0.0928955078125,-0.97119140625,-274.0,-247.0,431.0,102114.0,-6.551000118255615,0,0
21.230018,-0.0007421424379572272,-6.755861249985173e-05,-0.00011110844206996262,0.9999709725379944,-0.3662109375,0.0,-0.1220703125,0.0233154296875,-0.09228515625,-0.971923828125,-274.0,-247.0,431.0,102114.0,-6.553000450134277,0,0
21.236997,-0.0007421424379572272,-6.755861249985173e-05,-0.00011110844206996262,0.9999709725379944,-0.1220703125,-0.06103515625,0.06103515625,0.024658203125,-0.08984375,-0.9705810546875,-274.0,-247.0,431.0,102114.0,-6.553000450134277,0,0
21.243997,-0.0007421424379572272,-6.755861249985173e-05,-0.00011110844206996262,0.9999709725379944,-0.30517578125,-0.18310546875,-0.18310546875,0.0245361328125,-0.09375,-0.9727783203125,-274.0,-247.0,431.0,102114.0,-6.553000450134277,0,0
21.251017,-0.0007421424379572272,-6.755861249985173e-05,-0.00011110844206996262,0.9999709725379944,0.0,0.1220703125,0.0,0.025390625,-0.0914306640625,-0.9720458984375,-274.0,-247.0,431.0,102114.0,-6.553000450134277,0,0
21.257049,-0.0007421424379572272,-6.755861249985173e-05,-0.00011110844206996262,0.9999709725379944,0.0,0.1220703125,0.0,0.025390625,-0.0914306640625,-0.9720458984375,-274.0,-247.0,431.0,102114.0,-6.553000450134277,0,0
21.263997,-0.0007400562753900886,-8.495853398926556e-05,-7.16688227839768e-05,0.9999706149101257,-0.42724609375,0.1220703125,-0.1220703125,0.0274658203125,-0.090576171875,-0.97119140625,-274.0,-247.0,431.0,102114.0,-6.553000450134277,0,0
21.271023,-0.0007400562753900886,-8.495853398926556e-05,-7.16688227839768e-05,0.9999706149101257,-0.1220703125,0.06103515625,0.06103515625,0.0252685546875,-0.0919189453125,-0.9710693359375,-274.0,-247.0,431.0,102114.0,-6.553000450134277,0,0
21.278001,-0.0007400562753900886,-8.495853398926556e-05,-7.16688227839768e-05,0.9999706149101257,-0.42724609375,0.30517578125,-0.3662109375,0.0233154296875,-0.092041015625,-0.971923828125,-274.0,-247.0,431.0,102114.0,-6.553000450134277,0,0
21.285015,-0.0007400562753900886,-8.495853398926556e-05,-7.16688227839768e-05,0.9999706149101257,0.18310546875,0.06103515625,-0.18310546875,0.0260009765625,-0.0909423828125,-0.97216796875,-274.0,-247.0,431.0,102114.0,-6.553000450134277,0,0
21.291996,-0.0007400562753900886,-8.495853398926556e-05,-7.16688227839768e-05,0.9999706149101257,-0.18310546875,0.0,-0.18310546875,0.0240478515625,-0.0927734375,-0.97119140625,-274.0,-247.0,431.0,102114.0,-6.553000450134277,0,0
21.298995,-0.0008079087128862739,-8.648590301163495e-05,-6.870721699669957e-05,0.9999769926071167,0.0,0.3662109375,-0.244140625,0.024658203125,-0.0941162109375,-0.9696044921875,-272.0,-247.0,431.0,102114.0,-6.553000450134277,0,0
21.306019,-0.0008079087128862739,-8.648590301163495e-05,-6.870721699669957e-05,0.9999769926071167,-0.06103515625,0.0,-0.30517578125,0.0233154296875,-0.0933837890625,-0.9737548828125,-272.0,-247.0,431.0,102114.0,-6.553000450134277,0,0
21.313003,-0.0008079087128862739,-8.648590301163495e-05,-6.870721699669957e-05,0.9999769926071167,-0.1220703125,0.06103515625,-0.18310546875,0.0240478515625,-0.0936279296875,-0.97021484375,-272.0,-247.0,431.0,102114.0,-6.553000450134277,0,0
21.320019,-0.0008079087128862739,-8.648590301163495e-05,-6.870721699669957e-05,0.9999769926071167,0.1220703125,0.1220703125,0.0,0.0244140625,-0.0916748046875,-0.9725341796875,-272.0,-247.0,431.0,102114.0,-6.553000450134277,0,0
21.326997,-0.0008079087128862739,-8.648590301163495e-05,-6.870721699669957e-05,0.9999769926071167,0.06103515625,0.0,-0.1220703125,0.02490234375,-0.0919189453125,-0.9716796875,-272.0,-247.0,431.0,102114.0,-6.553000450134277,0,0
21.333997,-0.0008079087128862739,-8.648590301163495e-05,-6.870721699669957e-05,0.9999769926071167,-0.30517578125,0.0,0.0,0.024658203125,-0.092529296875,-0.97216796875,-272.0,-247.0,431.0,102114.0,-6.553000450134277,0,0
21.341016,-0.0008079087128862739,-8.648590301163495e-05,-6.870721699669957e-05,0.9999769926071167,-0.1220703125,0.1220703125,-0.18310546875,0.0252685546875,-0.0919189453125,-0.973876953125,-272.0,-247.0,431.0,102114.0,-6.553000450134277,0,0
21.347049,-0.0008079087128862739,-8.648590301163495e-05,-6.870721699669957e-05,0.9999769926071167,-0.1220703125,0.1220703125,-0.18310546875,0.0252685546875,-0.0919189453125,-0.973876953125,-272.0,-247.0,431.0,102114.0,-6.553000450134277,0,0
21.353997,-0.0008079087128862739,-8.648590301163495e-05,-6.870721699669957e-05,0.9999769926071167,-0.30517578125,-0.06103515625,-0.06103515625,0.0235595703125,-0.093017578125,-0.97265625,-272.0,-247.0,431.0,102114.0,-6.553000450134277,0,0
21.361022,-0.0008079087128862739,-8.648590301163495e-05,-6.870721699669957e-05,0.9999769926071167,-0.1220703125,0.0,0.1220703125,0.02392578125,-0.0924072265625,-0.9713134765625,-272.0,-247.0,431.0,102114.0,-6.553000450134277,0,0
21.368002,-0.0008088027825579047,-9.750528988661245e-05,-9.712745668366551e-05,0.9999781847000122,-0.30517578125,0.1220703125,0.18310546875,0.02197265625,-0.093017578125,-0.9700927734375,-272.0,-247.0,431.0,102114.0,-6.553000450134277,0,0
21.375015,-0.0008091306081041694,-5.8066598285222426e-05,-7.972659659571946e-05,0.9999760985374451,0.244140625,0.244140625,-0.1220703125,0.0240478515625,-0.0928955078125,-0.9737548828125,-272.0,-247.0,431.0,102114.0,-6.553000450134277,0,0
21.381996,-0.0008091306081041694,-5.8066598285222426e-05,-7.972659659571946e-05,0.9999760985374451,-0.18310546875,-0.06103515625,0.06103515625,0.02685546875,-0.0916748046875,-0.9720458984375,-272.0,-247.0,431.0,102114.0,-6.553000450134277,0,0
21.403003,-0.0008757610921747983,-8.801699732430279e-05,-6.574747385457158e-05,0.9999833703041077,-0.06103515625,0.06103515625,-0.06103515625,0.0255126953125,-0.091796875,-0.9720458984375,-272.0,-248.0,432.0,102114.0,-6.553000450134277,0,0
21.410019,-0.0008757610921747983,-8.801699732430279e-05,-6.574747385457158e-05,0.9999833703041077,0.06103515625,0.06103515625,-0.1220703125,0.02490234375,-0.0914306640625,-0.97216796875,-272.0,-248.0,432.0,102114.0,-6.553000450134277,0,0
21.416997,-0.0008766551618464291,-9.903638419928029e-05,-9.416771354153752e-05,0.9999845623970032,0.1220703125,-0.06103515625,-0.1220703125,0.0255126953125,-0.093994140625,-0.9720458984375,-272.0,-248.0,432.0,102114.0,-6.554000377655029,0,0
21.423996,-0.0008766551618464291,-9.903638419928029e-05,-9.416771354153752e-05,0.9999845623970032,-0.30517578125,-0.06103515625,-0.244140625,0.0247802734375,-0.09375,-0.9716796875,-272.0,-248.0,432.0,102114.0,-6.554000377655029,0,0
21.431016,-0.0008766551618464291,-9.903638419928029e-05,-9.416771354153752e-05,0.9999845623970032,-0.244140625,0.18310546875,-0.18310546875,0.0262451171875,-0.09619140625,-0.970703125,-272.0,-248.0,432.0,102114.0,-6.554000377655029,0,0
21.438001,-0.0008754332666285336,-0.000127455685287714,-8.314833394251764e-05,0.9999854564666748,-0.18310546875,0.0,-0.06103515625,0.0262451171875,-0.0938720703125,-0.9710693359375,-272.0,-248.0,432.0,102114.0,-6.554000377655029,0,0
21.444034,-0.0008754332666285336,-0.000127455685287714,-8.314833394251764e-05,0.9999854564666748,-0.18310546875,0.0,-0.06103515625,0.0262451171875,-0.0938720703125,-0.9710693359375,-272.0,-248.0,432.0,102114.0,-6.554000377655029,0,0
21.451022,-0.0008754332666285336,-0.000127455685287714,-8.314833394251764e-05,0.9999854564666748,-0.244140625,0.244140625,-0.3662109375,0.02392578125,-0.0911865234375,-0.97216796875,-272.0,-248.0,432.0,102114.0,-6.554000377655029,0,0
21.458001,-0.0008754332666285336,-0.000127455685287714,-8.314833394251764e-05,0.9999854564666748,0.0,-0.30517578125,0.0,0.02392578125,-0.0914306640625,-0.9700927734375,-272.0,-248.0,432.0,102114.0,-6.554000377655029,0,0
21.465015,-0.0008754332666285336,-0.000127455685287714,-8.314833394251764e-05,0.9999854564666748,-0.06103515625,0.3662109375,0.0,0.021484375,-0.0919189453125,-0.9683837890625,-272.0,-248.0,432.0,102114.0,-6.554000377655029,0,0
21.472,-0.0008754332666285336,-0.000127455685287714,-8.314833394251764e-05,0.9999854564666748,-0.06103515625,-0.1220703125,-0.06103515625,0.0267333984375,-0.093017578125,-0.9716796875,-272.0,-248.0,432.0,102114.0,-6.554000377655029,0,0
21.493003,-0.0008763273363001645,-0.00013847507943864912,-0.00011156764230690897,0.9999866485595703,-0.3662109375,-0.06103515625,0.0,0.0235595703125,-0.0911865234375,-0.9703369140625,-272.0,-248.0,432.0,102114.0,-6.554000377655029,0,0
21.500018,-0.0008763273363001645,-0.00013847507943864912,-0.00011156764230690897,0.9999866485595703,-0.18310546875,0.0,-0.30517578125,0.024169921875,-0.0927734375,-0.97119140625,-274.0,-249.0,431.0,102114.0,-6.554000377655029,0,0
21.506997,-0.0008763273363001645,-0.00013847507943864912,-0.00011156764230690897,0.9999866485595703,-0.18310546875,0.1220703125,0.0,0.02587890625,-0.0919189453125,-0.9716796875,-274.0,-249.0,431.0,102114.0,-6.554000377655029,0,0
21.513996,-0.0008763273363001645,-0.00013847507943864912,-0.00011156764230690897,0.9999866485595703,-0.18310546875,0.06103515625,-0.244140625,0.0260009765625,-0.09033203125,-0.9732666015625,-274.0,-249.0,431.0,102114.0,-6.553000450134277,0,0
21.521017,-0.0008763273363001645,-0.00013847507943864912,-0.00011156764230690897,0.9999866485595703,-0.1220703125,0.0,-0.06103515625,0.0240478515625,-0.091796875,-0.970458984375,-274.0,-249.0,431.0,102114.0,-6.553000450134277,0,0
21.528,-0.0008763273363001645,-0.00013847507943864912,-0.00011156764230690897,0.9999866485595703,0.30517578125,0.06103515625,-0.18310546875,0.0234375,-0.0928955078125,-0.9710693359375,-274.0,-249.0,431.0,102114.0,-6.553000450134277,0,0
21.534033,-0.0008763273363001645,-0.00013847507943864912,-0.00011156764230690897,0.9999866485595703,0.30517578125,0.06103515625,-0.18310546875,0.0234375,-0.0928955078125,-0.9710693359375,-274.0,-249.0,431.0,102114.0,-6.553000450134277,0,0
21.541022,-0.0008763273363001645,-0.00013847507943864912,-0.00011156764230690897,0.9999866485595703,-0.1220703125,-0.244140625,-0.1220703125,0.025634765625,-0.0938720703125,-0.9732666015625,-274.0,-249.0,431.0,102114.0,-6.553000450134277,0,0
21.548002,-0.0008754332666285336,-0.000127455685287714,-8.314833394251764e-05,0.9999854564666748,0.06103515625,0.1220703125,0.18310546875,0.025634765625,-0.0921630859375,-0.9732666015625,-274.0,-249.0,431.0,102114.0,-6.553000450134277,0,0
21.555015,-0.0008754332666285336,-0.000127455685287714,-8.314833394251764e-05,0.9999854564666748,-0.06103515625,0.0,-0.1220703125,0.025634765625,-0.09326171875,-0.9693603515625,-274.0,-249.0,431.0,102114.0,-6.553000450134277,0,0
21.561996,-0.0008754332666285336,-0.000127455685287714,-8.314833394251764e-05,0.9999854564666748,0.244140625,0.06103515625,0.06103515625,0.0267333984375,-0.092529296875,-0.9713134765625,-274.0,-249.0,431.0,102114.0,-6.553000450134277,0,0
21.568995,-0.0008754332666285336,-0.000127455685287714,-8.314833394251764e-05,0.9999854564666748,0.0,0.1220703125,-0.18310546875,0.0240478515625,-0.092529296875,-0.969482421875,-274.0,-249.0,431.0,102114.0,-6.553000450134277,0,0
21.576019,-0.0008754332666285336,-0.000127455685287714,-8.314833394251764e-05,0.9999854564666748,-0.1220703125,0.06103515625,-0.1220703125,0.0244140625,-0.0928955078125,-0.972900390625,-274.0,-249.0,431.0,102114.0,-6.553000450134277,0,0
21.583003,-0.0008754332666285336,-0.000127455685287714,-8.314833394251764e-05,0.9999854564666748,-0.1220703125,0.1220703125,-0.1220703125,0.02392578125,-0.0933837890625,-0.972900390625,-274.0,-249.0,431.0,102114.0,-6.553000450134277,0,0
21.590018,-0.0008754332666285336,-0.000127455685287714,-8.314833394251764e-05,0.9999854564666748,-0.1220703125,0.1220703125,0.0,0.026123046875,-0.0909423828125,-0.9713134765625,-274.0,-249.0,431.0,102114.0,-6.553000450134277,0,0
21.596997,-0.0008754332666285336,-0.000127455685287714,-8.314833394251764e-05,0.9999854564666748,-0.06103515625,0.244140625,-0.1220703125,0.0228271484375,-0.094970703125,-0.971923828125,-273.0,-250.0,432.0,102114.0,-6.553000450134277,0,0
21.603996,-0.0010001484770327806,-0.0001313970424234867,-7.842839113436639e-05,0.9999698400497437,-0.1220703125,0.18310546875,0.06103515625,0.0247802734375,-0.093994140625,-0.973876953125,-273.0,-250.0,432.0,102114.0,-6.553000450134277,0,0
21.611016,-0.0010001484770327806,-0.0001313970424234867,-7.842839113436639e-05,0.9999698400497437,0.06103515625,0.1220703125,-0.06103515625,0.023193359375,-0.0924072265625,-0.9718017578125,-273.0,-250.0,432.0,102114.0,-6.553000450134277,0,0
21.618,-0.0010001484770327806,-0.0001313970424234867,-7.842839113436639e-05,0.9999698400497437,0.0,0.18310546875,-0.30517578125,0.024169921875,-0.0931396484375,-0.97314453125,-273.0,-250.0,432.0,102114.0,-6.553000450134277,0,0
21.625019,-0.0010010127443820238,-0.00014241643657442182,-0.00010684769949875772,0.9999710321426392,-0.42724609375,-0.18310546875,0.0,0.02587890625,-0.09375,-0.9718017578125,-273.0,-250.0,432.0,102114.0,-6.553000450134277,0,0
21.631053,-0.0010010127443820238,-0.00014241643657442182,-0.00010684769949875772,0.9999710321426392,-0.42724609375,-0.18310546875,0.0,0.02587890625,-0.09375,-0.9718017578125,-273.0,-250.0,432.0,102114.0,-6.553000450134277,0,0
21.638001,-0.0010010127443820238,-0.00014241643657442182,-0.00010684769949875772,0.9999710321426392,-0.244140625,-0.18310546875,-0.18310546875,0.02392578125,-0.0941162109375,-0.9720458984375,-273.0,-250.0,432.0,102114.0,-6.553000450134277,0,0
21.645015,-0.0010010127443820238,-0.00014241643657442182,-0.00010684769949875772,0.9999710321426392,-0.18310546875,0.0,-0.1220703125,0.024169921875,-0.0908203125,-0.9730224609375,-273.0,-250.0,432.0,102114.0,-6.553000450134277,0,0
21.66602,-0.0010010127443820238,-0.00014241643657442182,-0.00010684769949875772,0.9999710321426392,0.0,0.1220703125,0.0,0.0242919921875,-0.0928955078125,-0.9739990234375,-273.0,-250.0,432.0,102114.0,-6.552000522613525,0,0
21.673004,-0.0010010127443820238,-0.00014241643657442182,-0.00010684769949875772,0.9999710321426392,-0.1220703125,0.42724609375,-0.1220703125,0.0245361328125,-0.0911865234375,-0.9716796875,-273.0,-250.0,432.0,102114.0,-6.552000522613525,0,0
21.680019,-0.0010010127443820238,-0.00014241643657442182,-0.00010684769949875772,0.9999710321426392,-0.1220703125,0.06103515625,-0.06103515625,0.0262451171875,-0.0947265625,-0.9703369140625,-273.0,-250.0,432.0,102114.0,-6.552000522613525,0,0
21.686998,-0.0010010127443820238,-0.00014241643657442182,-0.00010684769949875772,0.9999710321426392,-0.06103515625,0.0,-0.3662109375,0.02490234375,-0.0938720703125,-0.9735107421875,-273.0,-250.0,432.0,102114.0,-6.552000522613525,0,0
21.693996,-0.0010010127443820238,-0.00014241643657442182,-0.00010684769949875772,0.9999710321426392,0.1220703125,-0.244140625,0.06103515625,0.0244140625,-0.09423828125,-0.9713134765625,-272.0,-249.0,433.0,102114.0,-6.552000522613525,0,0
21.701016,-0.0011367474216967821,-0.00014547489990945905,-0.00010092635056935251,0.9999837279319763,0.244140625,-0.42724609375,0.18310546875,0.0244140625,-0.0933837890625,-0.970703125,-272.0,-249.0,433.0,102114.0,-6.552000522613525,0,0
21.708001,-0.0011367474216967821,-0.00014547489990945905,-0.00010092635056935251,0.9999837279319763,-0.18310546875,0.18310546875,0.06103515625,0.02490234375,-0.0928955078125,-0.970458984375,-272.0,-249.0,433.0,102114.0,-6.552000522613525,0,0
21.715019,-0.0011367474216967821,-0.00014547489990945905,-0.00010092635056935251,0.9999837279319763,0.30517578125,0.0,0.0,0.0244140625,-0.0946044921875,-0.972900390625,-272.0,-249.0,433.0,102114.0,-6.552000522613525,0,0
21.721054,-0.0011367474216967821,-0.00014547489990945905,-0.00010092635056935251,0.9999837279319763,0.30517578125,0.0,0.0,0.0244140625,-0.0946044921875,-0.972900390625,-272.0,-249.0,433.0,102114.0,-6.552000522613525,0,0
21.728002,-0.0011367474216967821,-0.00014547489990945905,-0.00010092635056935251,0.9999837279319763,0.06103515625,0.1220703125,-0.244140625,0.024658203125,-0.093017578125,-0.9716796875,-272.0,-249.0,433.0,102114.0,-6.552000522613525,0,0
21.735015,-0.0011367474216967821,-0.00014547489990945905,-0.00010092635056935251,0.9999837279319763,0.0,0.0,0.06103515625,0.0245361328125,-0.093505859375,-0.9718017578125,-272.0,-249.0,433.0,102114.0,-6.552000522613525,0,0
21.75602,-0.0011367474216967821,-0.00014547489990945905,-0.00010092635056935251,0.9999837279319763,-0.244140625,0.244140625,0.0,0.0235595703125,-0.0902099609375,-0.97265625,-272.0,-249.0,433.0,102114.0,-6.552000522613525,0,0
21.763003,-0.0011367474216967821,-0.00014547489990945905,-0.00010092635056935251,0.9999837279319763,-0.1220703125,0.06103515625,-0.1220703125,0.0264892578125,-0.090576171875,-0.9725341796875,-272.0,-249.0,433.0,102114.0,-6.552000522613525,0,0
21.770019,-0.0011367474216967821,-0.00014547489990945905,-0.00010092635056935251,0.9999837279319763,-0.30517578125,-0.06103515625,0.0,0.0250244140625,-0.0924072265625,-0.97021484375,-272.0,-249.0,433.0,102114.0,-6.552000522613525,0,0
21.776997,-0.0011367474216967821,-0.00014547489990945905,-0.00010092635056935251,0.9999837279319763,-0.1220703125,0.244140625,0.0,0.0238037109375,-0.091552734375,-0.9705810546875,-272.0,-249.0,433.0,102114.0,-6.552000522613525,0,0
21.783997,-0.0011367474216967821,-0.00014547489990945905,-0.00010092635056935251,0.9999837279319763,-0.1220703125,0.06103515625,-0.1220703125,0.02587890625,-0.091552734375,-0.971923828125,-272.0,-249.0,433.0,102114.0,-6.552000522613525,0,0
21.791017,-0.0011367474216967821,-0.00014547489990945905,-0.00010092635056935251,0.9999837279319763,-0.06103515625,-0.244140625,-0.06103515625,0.02294921875,-0.09033203125,-0.97216796875,-272.0,-249.0,433.0,102114.0,-6.552000522613525,0,0
21.798001,-0.0011367474216967821,-0.00014547489990945905,-0.00010092635056935251,0.9999837279319763,-0.42724609375,-0.06103515625,0.0,0.0230712890625,-0.091796875,-0.97265625,-271.0,-249.0,432.0,102114.0,-6.552000522613525,0,0
21.805019,-0.0013305072207003832,-0.00012252431770320982,-0.00010426418157294393,0.9999735951423645,-0.79345703125,0.6103515625,-0.42724609375,0.0238037109375,-0.092041015625,-0.971435546875,-271.0,-249.0,432.0,102114.0,-6.552000522613525,0,0
21.811999,-0.0013292853254824877,-0.00015094362606760114,-9.324480197392404e-05,0.9999744892120361,0.0,-0.06103515625,-0.244140625,0.0263671875,-0.092041015625,-0.97216796875,-271.0,-249.0,432.0,102114.0,-6.552000522613525,0,0
21.818033,-0.0013292853254824877,-0.00015094362606760114,-9.324480197392404e-05,0.9999744892120361,0.0,-0.06103515625,-0.244140625,0.0263671875,-0.092041015625,-0.97216796875,-271.0,-249.0,432.0,102114.0,-6.552000522613525,0,0
21.825015,-0.0013305072207003832,-0.00012252431770320982,-0.00010426418157294393,0.9999735951423645,-0.1220703125,0.18310546875,-0.3662109375,0.02294921875,-0.09228515625,-0.970947265625,-271.0,-249.0,432.0,102114.0,-6.552000522613525,0,0
21.832,-0.0013305072207003832,-0.00012252431770320982,-0.00010426418157294393,0.9999735951423645,0.0,0.06103515625,-0.1220703125,0.02294921875,-0.0924072265625,-0.974365234375,-271.0,-249.0,432.0,102114.0,-6.552000522613525,0,0
21.838999,-0.0013305072207003832,-0.00012252431770320982,-0.00010426418157294393,0.9999735951423645,-0.244140625,0.0,-0.06103515625,0.02197265625,-0.08984375,-0.9718017578125,-271.0,-249.0,432.0,102114.0,-6.552000522613525,0,0
21.84602,-0.0013305072207003832,-0.00012252431770320982,-0.00010426418157294393,0.9999735951423645,0.06103515625,0.1220703125,-0.244140625,0.0264892578125,-0.0931396484375,-0.972412109375,-271.0,-249.0,432.0,102114.0,-6.552000522613525,0,0
21.853003,-0.0013305072207003832,-0.00012252431770320982,-0.00010426418157294393,0.9999735951423645,-0.1220703125,0.18310546875,-0.06103515625,0.0257568359375,-0.0921630859375,-0.971923828125,-271.0,-249.0,432.0,102114.0,-6.552000522613525,0,0
21.860018,-0.0013305072207003832,-0.00012252431770320982,-0.00010426418157294393,0.9999735951423645,-0.1220703125,0.0,-0.06103515625,0.0240478515625,-0.0921630859375,-0.971435546875,-271.0,-249.0,432.0,102114.0,-6.552000522613525,0,0
21.866997,-0.0013296131510287523,-0.00011150493082823232,-7.58448732085526e-05,0.999972403049469,-0.1220703125,0.0,-0.1220703125,0.0255126953125,-0.0902099609375,-0.9732666015625,-271.0,-249.0,432.0,102114.0,-6.554000377655029,0,0
21.873996,-0.0013296131510287523,-0.00011150493082823232,-7.58448732085526e-05,0.999972403049469,-0.3662109375,-0.06103515625,-0.18310546875,0.0244140625,-0.093994140625,-0.9715576171875,-271.0,-249.0,432.0,102114.0,-6.554000377655029,0,0
21.881016,-0.0013296131510287523,-0.00011150493082823232,-7.58448732085526e-05,0.999972403049469,-0.3662109375,-0.244140625,-0.1220703125,0.02490234375,-0.091064453125,-0.9715576171875,-271.0,-249.0,432.0,102114.0,-6.554000377655029,0,0
21.888,-0.0013296131510287523,-0.00011150493082823232,-7.58448732085526e-05,0.999972403049469,-0.06103515625,0.18310546875,0.1220703125,0.0272216796875,-0.0928955078125,-0.973388671875,-271.0,-249.0,432.0,102114.0,-6.554000377655029,0,0
21.895019,-0.0013296131510287523,-0.00011150493082823232,-7.58448732085526e-05,0.999972403049469,0.0,0.06103515625,-0.06103515625,0.024658203125,-0.09326171875,-0.9708251953125,-271.0,-251.0,431.0,102114.0,-6.554000377655029,0,0
21.901994,-0.0015616017626598477,-0.00011730148253263906,-6.608274998143315e-05,0.9999805688858032,-0.30517578125,0.244140625,0.1220703125,0.0242919921875,-0.093017578125,-0.972900390625,-271.0,-251.0,431.0,102114.0,-6.554000377655029,0,0
21.908022,-0.0015616017626598477,-0.00011730148253263906,-6.608274998143315e-05,0.9999805688858032,-0.30517578125,0.244140625,0.1220703125,0.0242919921875,-0.093017578125,-0.972900390625,-271.0,-251.0,431.0,102114.0,-6.554000377655029,0,0
22.018995,-0.0018232436850667,-9.588199463905767e-05,-6.646083784289658e-05,0.9999767541885376,0.0,0.244140625,0.1220703125,0.0255126953125,-0.0909423828125,-0.972900390625,-271.0,-251.0,431.0,102114.0,-6.554000377655029,0,0
22.026019,-0.0018232436850667,-9.588199463905767e-05,-6.646083784289658e-05,0.9999767541885376,0.06103515625,-0.1220703125,-0.1220703125,0.0250244140625,-0.0950927734375,-0.9727783203125,-271.0,-251.0,431.0,102114.0,-6.554000377655029,0,0
22.033003,-0.0018232436850667,-9.588199463905767e-05,-6.646083784289658e-05,0.9999767541885376,-0.244140625,0.244140625,-0.30517578125,0.025146484375,-0.0906982421875,-0.97119140625,-271.0,-251.0,431.0,102114.0,-6.554000377655029,0,0
22.040019,-0.0018232436850667,-9.588199463905767e-05,-6.646083784289658e-05,0.9999767541885376,0.0,0.18310546875,-0.1220703125,0.0244140625,-0.092529296875,-0.972412109375,-271.0,-251.0,431.0,102114.0,-6.554000377655029,0,0
22.046997,-0.0018232436850667,-9.588199463905767e-05,-6.646083784289658e-05,0.9999767541885376,-0.1220703125,0.1220703125,0.1220703125,0.0233154296875,-0.0914306640625,-0.97119140625,-271.0,-251.0,431.0,102114.0,-6.554000377655029,0,0
22.053997,-0.0018232436850667,-9.588199463905767e-05,-6.646083784289658e-05,0.9999767541885376,-0.18310546875,0.3662109375,-0.06103515625,0.022216796875,-0.0924072265625,-0.9715576171875,-271.0,-251.0,431.0,102114.0,-6.554000377655029,0,0
22.061017,-0.0018232436850667,-9.588199463905767e-05,-6.646083784289658e-05,0.9999767541885376,0.0,0.0,-0.18310546875,0.0250244140625,-0.0926513671875,-0.9710693359375,-271.0,-251.0,431.0,102114.0,-6.554000377655029,0,0
22.068002,-0.0018232436850667,-9.588199463905767e-05,-6.646083784289658e-05,0.9999767541885376,-0.3662109375,0.3662109375,-0.06103515625,0.025146484375,-0.092041015625,-0.97119140625,-271.0,-251.0,431.0,102114.0,-6.553000450134277,0,0
22.075019,-0.0018232436850667,-9.588199463905767e-05,-6.646083784289658e-05,0.9999767541885376,-0.1220703125,0.0,-0.06103515625,0.026611328125,-0.092529296875,-0.97119140625,-271.0,-251.0,431.0,102114.0,-6.553000450134277,0,0
22.081999,-0.0018232436850667,-9.588199463905767e-05,-6.646083784289658e-05,0.9999767541885376,-0.30517578125,-0.06103515625,0.1220703125,0.0234375,-0.0938720703125,-0.97216796875,-271.0,-251.0,431.0,102114.0,-6.553000450134277,0,0
22.088995,-0.0018232436850667,-9.588199463905767e-05,-6.646083784289658e-05,0.9999767541885376,-0.244140625,0.06103515625,-0.1220703125,0.0255126953125,-0.0914306640625,-0.971435546875,-271.0,-251.0,431.0,102114.0,-6.553000450134277,0,0
22.095032,-0.0018232436850667,-9.588199463905767e-05,-6.646083784289658e-05,0.9999767541885376,-0.244140625,0.06103515625,-0.1220703125,0.0255126953125,-0.0914306640625,-0.971435546875,-271.0,-251.0,431.0,102114.0,-6.553000450134277,0,0
22.102,-0.0020157815888524055,-0.00010135072079719976,-5.878301817574538e-05,0.9999675154685974,-0.1220703125,0.0,0.1220703125,0.0255126953125,-0.09326171875,-0.9700927734375,-272.0,-251.0,432.0,102114.0,-6.553000450134277,0,0
22.109,-0.0020157815888524055,-0.00010135072079719976,-5.878301817574538e-05,0.9999675154685974,-0.06103515625,0.06103515625,0.18310546875,0.0238037109375,-0.0921630859375,-0.9727783203125,-272.0,-251.0,432.0,102114.0,-6.553000450134277,0,0
22.11602,-0.0020157815888524055,-0.00010135072079719976,-5.878301817574538e-05,0.9999675154685974,-0.18310546875,0.1220703125,-0.18310546875,0.024169921875,-0.0911865234375,-0.9716796875,-272.0,-251.0,432.0,102114.0,-6.553000450134277,0,0
22.123003,-0.0020157815888524055,-0.00010135072079719976,-5.878301817574538e-05,0.9999675154685974,-0.1220703125,-0.06103515625,-0.18310546875,0.025146484375,-0.091064453125,-0.971923828125,-272.0,-251.0,432.0,102114.0,-6.553000450134277,0,0
22.130019,-0.0020157815888524055,-0.00010135072079719976,-5.878301817574538e-05,0.9999675154685974,0.0,-0.06103515625,0.1220703125,0.0257568359375,-0.0919189453125,-0.971923828125,-272.0,-251.0,432.0,102114.0,-6.553000450134277,0,0
22.136997,-0.0020145894959568977,-0.00012977002188563347,-4.776363493874669e-05,0.999968409538269,-0.06103515625,0.244140625,-0.1220703125,0.0269775390625,-0.0914306640625,-0.9735107421875,-272.0,-251.0,432.0,102114.0,-6.553000450134277,0,0
22.143996,-0.0020145894959568977,-0.00012977002188563347,-4.776363493874669e-05,0.999968409538269,-0.30517578125,-0.06103515625,0.0,0.0250244140625,-0.0914306640625,-0.9730224609375,-272.0,-251.0,432.0,102114.0,-6.553000450134277,0,0
22.151017,-0.0020157815888524055,-0.00010135072079719976,-5.878301817574538e-05,0.9999675154685974,-0.06103515625,0.0,0.06103515625,0.025146484375,-0.0909423828125,-0.9730224609375,-272.0,-251.0,432.0,102114.0,-6.553000450134277,0,0
22.158001,-0.0020157815888524055,-0.00010135072079719976,-5.878301817574538e-05,0.9999675154685974,-0.3662109375,0.18310546875,0.0,0.0228271484375,-0.0924072265625,-0.9700927734375,-272.0,-251.0,432.0,102114.0,-6.553000450134277,0,0
22.165019,-0.0020157815888524055,-0.00010135072079719976,-5.878301817574538e-05,0.9999675154685974,-0.1220703125,0.1220703125,0.0,0.0242919921875,-0.09423828125,-0.9716796875,-272.0,-251.0,432.0,102114.0,-6.552000522613525,0,0
22.171995,-0.0020157815888524055,-0.00010135072079719976,-5.878301817574538e-05,0.9999675154685974,-0.06103515625,0.0,-0.06103515625,0.026123046875,-0.0936279296875,-0.973388671875,-272.0,-251.0,432.0,102114.0,-6.552000522613525,0,0
22.191996,-0.0020157815888524055,-0.00010135072079719976,-5.878301817574538e-05,0.9999675154685974,-0.18310546875,-0.18310546875,-0.1220703125,0.0233154296875,-0.0914306640625,-0.9720458984375,-272.0,-251.0,432.0,102114.0,-6.552000522613525,0,0
22.198994,-0.0020157815888524055,-0.00010135072079719976,-5.878301817574538e-05,0.9999675154685974,-0.1220703125,0.1220703125,-0.18310546875,0.023681640625,-0.091796875,-0.9736328125,-272.0,-251.0,432.0,102114.0,-6.552000522613525,0,0
22.206019,-0.002220560796558857,-7.752003875793889e-05,-6.091944669606164e-05,0.9999856948852539,-0.30517578125,0.18310546875,-0.18310546875,0.0224609375,-0.09033203125,-0.9703369140625,-272.0,-251.0,432.0,102114.0,-6.552000522613525,0,0
22.213003,-0.002219368703663349,-0.00010594027844490483,-4.990006345906295e-05,0.9999865889549255,0.0,0.244140625,-0.42724609375,0.0262451171875,-0.0927734375,-0.970703125,-272.0,-251.0,432.0,102114.0,-6.552000522613525,0,0
22.220019,-0.002219368703663349,-0.00010594027844490483,-4.990006345906295e-05,0.9999865889549255,0.0,-0.06103515625,0.06103515625,0.0255126953125,-0.0924072265625,-0.9722900390625,-272.0,-251.0,432.0,102114.0,-6.552000522613525,0,0
22.226997,-0.002219368703663349,-0.00010594027844490483,-4.990006345906295e-05,0.9999865889549255,-0.1220703125,0.1220703125,0.06103515625,0.0255126953125,-0.0919189453125,-0.973876953125,-272.0,-251.0,432.0,102114.0,-6.552000522613525,0,0
22.233996,-0.002219368703663349,-0.00010594027844490483,-4.990006345906295e-05,0.9999865889549255,-0.1220703125,0.244140625,-0.244140625,0.0244140625,-0.0924072265625,-0.9718017578125,-272.0,-251.0,432.0,102114.0,-6.552000522613525,0,0
22.241017,-0.002219368703663349,-0.00010594027844490483,-4.990006345906295e-05,0.9999865889549255,-0.30517578125,0.1220703125,0.06103515625,0.023681640625,-0.090087890625,-0.969482421875,-272.0,-251.0,432.0,102114.0,-6.552000522613525,0,0
22.248002,-0.002219368703663349,-0.00010594027844490483,-4.990006345906295e-05,0.9999865889549255,-0.1220703125,0.06103515625,0.3662109375,0.025634765625,-0.0919189453125,-0.97314453125,-272.0,-251.0,432.0,102114.0,-6.552000522613525,0,0
22.255019,-0.002219368703663349,-0.00010594027844490483,-4.990006345906295e-05,0.9999865889549255,-0.244140625,0.244140625,-0.18310546875,0.025146484375,-0.0941162109375,-0.972900390625,-272.0,-251.0,432.0,102114.0,-6.552000522613525,0,0
22.261994,-0.002218504436314106,-9.492089156992733e-05,-2.1479823772097006e-05,0.99998539686203,-0.06103515625,0.1220703125,-0.18310546875,0.0264892578125,-0.092041015625,-0.9700927734375,-272.0,-251.0,432.0,102114.0,-6.552000522613525,0,0
22.282047,-0.002218504436314106,-9.492089156992733e-05,-2.1479823772097006e-05,0.99998539686203,-0.30517578125,0.06103515625,0.0,0.0269775390625,-0.0919189453125,-0.970458984375,-272.0,-251.0,432.0,102114.0,-6.553000450134277,0,0
22.288995,-0.002218504436314106,-9.492089156992733e-05,-2.1479823772097006e-05,0.99998539686203,0.0,0.1220703125,-0.06103515625,0.0247802734375,-0.092041015625,-0.970947265625,-272.0,-251.0,432.0,102114.0,-6.553000450134277,0,0
22.29602,-0.0022172825410962105,-0.00012334019993431866,-1.0460440535098314e-05,0.9999862909317017,-0.244140625,0.0,0.06103515625,0.0267333984375,-0.0928955078125,-0.9727783203125,-272.0,-251.0,432.0,102114.0,-6.553000450134277,0,0
22.303004,-0.002411042107269168,-0.00010038961772806942,-1.379827517666854e-05,0.9999761581420898,0.0,0.1220703125,-0.1220703125,0.0225830078125,-0.08984375,-0.9718017578125,-272.0,-251.0,432.0,102114.0,-6.553000450134277,0,0
22.310018,-0.002411042107269168,-0.00010038961772806942,-1.379827517666854e-05,0.9999761581420898,-0.1220703125,0.1220703125,0.06103515625,0.02392578125,-0.093017578125,-0.9725341796875,-272.0,-251.0,432.0,102114.0,-6.553000450134277,0,0
22.316998,-0.002411042107269168,-0.00010038961772806942,-1.379827517666854e-05,0.9999761581420898,-0.244140625,0.244140625,-0.06103515625,0.0269775390625,-0.0924072265625,-0.9697265625,-272.0,-251.0,432.0,102114.0,-6.553000450134277,0,0
22.323996,-0.002411042107269168,-0.00010038961772806942,-1.379827517666854e-05,0.9999761581420898,-0.3662109375,0.0,0.0,0.027099609375,-0.0941162109375,-0.9715576171875,-272.0,-251.0,432.0,102114.0,-6.553000450134277,0,0
22.331017,-0.002411042107269168,-0.00010038961772806942,-1.379827517666854e-05,0.9999761581420898,-0.18310546875,-0.1220703125,0.06103515625,0.025146484375,-0.0921630859375,-0.970703125,-272.0,-251.0,432.0,102114.0,-6.553000450134277,0,0
22.338,-0.0024119361769407988,-0.00011140900460304692,-4.221851486363448e-05,0.9999773502349854,0.0,-0.06103515625,-0.244140625,0.024169921875,-0.09326171875,-0.973388671875,-272.0,-251.0,432.0,102114.0,-6.553000450134277,0,0
22.345019,-0.0024119361769407988,-0.00011140900460304692,-4.221851486363448e-05,0.9999773502349854,-0.3662109375,0.1220703125,0.1220703125,0.0250244140625,-0.0911865234375,-0.9710693359375,-272.0,-251.0,432.0,102114.0,-6.553000450134277,0,0
22.351995,-0.002411042107269168,-0.00010038961772806942,-1.379827517666854e-05,0.9999761581420898,-0.30517578125,-0.06103515625,0.06103515625,0.0262451171875,-0.090576171875,-0.9727783203125,-272.0,-251.0,432.0,102114.0,-6.553000450134277,0,0
22.358995,-0.002411042107269168,-0.00010038961772806942,-1.379827517666854e-05,0.9999761581420898,-0.18310546875,0.1220703125,-0.3662109375,0.025146484375,-0.0938720703125,-0.97216796875,-272.0,-251.0,432.0,102114.0,-6.553000450134277,0,0
22.36602,-0.0024119361769407988,-0.00011140900460304692,-4.221851486363448e-05,0.9999773502349854,0.0,0.30517578125,-0.30517578125,0.023681640625,-0.0938720703125,-0.9747314453125,-272.0,-251.0,432.0,102114.0,-6.554000377655029,0,0
22.372056,-0.0024119361769407988,-0.00011140900460304692,-4.221851486363448e-05,0.9999773502349854,0.0,0.30517578125,-0.30517578125,0.023681640625,-0.0938720703125,-0.9747314453125,-272.0,-251.0,432.0,102114.0,-6.554000377655029,0,0
22.378999,-0.0024119361769407988,-0.00011140900460304692,-4.221851486363448e-05,0.9999773502349854,-0.06103515625,-0.06103515625,-0.1220703125,0.0274658203125,-0.09326171875,-0.971435546875,-272.0,-251.0,432.0,102114.0,-6.554000377655029,0,0
22.38602,-0.0024119361769407988,-0.00011140900460304692,-4.221851486363448e-05,0.9999773502349854,0.18310546875,0.06103515625,-0.1220703125,0.0233154296875,-0.092529296875,-0.9718017578125,-272.0,-251.0,432.0,102114.0,-6.554000377655029,0,0
22.393003,-0.0024119361769407988,-0.00011140900460304692,-4.221851486363448e-05,0.9999773502349854,0.06103515625,0.06103515625,-0.30517578125,0.0244140625,-0.090576171875,-0.970947265625,-272.0,-250.0,431.0,102114.0,-6.554000377655029,0,0
22.400018,-0.002479788614436984,-0.00011294009891571477,-3.925877172150649e-05,0.9999837279319763,-0.06103515625,-0.1220703125,-0.244140625,0.0257568359375,-0.0928955078125,-0.9720458984375,-272.0,-250.0,431.0,102114.0,-6.554000377655029,0,0
22.406997,-0.002479788614436984,-0.00011294009891571477,-3.925877172150649e-05,0.9999837279319763,-0.1220703125,0.18310546875,0.06103515625,0.0247802734375,-0.093505859375,-0.970947265625,-272.0,-250.0,431.0,102114.0,-6.554000377655029,0,0
22.413996,-0.002479788614436984,-0.00011294009891571477,-3.925877172150649e-05,0.9999837279319763,-0.06103515625,0.0,-0.18310546875,0.0252685546875,-0.09375,-0.97412109375,-272.0,-250.0,431.0,102114.0,-6.554000377655029,0,0
22.421017,-0.002479788614436984,-0.00011294009891571477,-3.925877172150649e-05,0.9999837279319763,-0.244140625,-0.06103515625,0.06103515625,0.024658203125,-0.09375,-0.97216796875,-272.0,-250.0,431.0,102114.0,-6.554000377655029,0,0
22.428001,-0.002479788614436984,-0.00011294009891571477,-3.925877172150649e-05,0.9999837279319763,0.1220703125,0.1220703125,0.06103515625,0.0252685546875,-0.091796875,-0.970947265625,-272.0,-250.0,431.0,102114.0,-6.554000377655029,0,0
22.435019,-0.002479788614436984,-0.00011294009891571477,-3.925877172150649e-05,0.9999837279319763,-0.1220703125,0.1220703125,0.1220703125,0.0250244140625,-0.0924072265625,-0.9713134765625,-272.0,-250.0,431.0,102114.0,-6.554000377655029,0,0
22.456016,-0.002479788614436984,-0.00011294009891571477,-3.925877172150649e-05,0.9999837279319763,0.18310546875,0.06103515625,0.0,0.0247802734375,-0.09375,-0.970947265625,-272.0,-250.0,431.0,102114.0,-6.554000377655029,0,0
22.462998,-0.0024785667192190886,-0.00014135940000414848,-2.82393884845078e-05,0.9999845623970032,0.06103515625,0.0,-0.06103515625,0.0264892578125,-0.0919189453125,-0.971923828125,-272.0,-250.0,431.0,102114.0,-6.554000377655029,0,0
22.46903,-0.0024785667192190886,-0.00014135940000414848,-2.82393884845078e-05,0.9999845623970032,0.06103515625,0.0,-0.06103515625,0.0264892578125,-0.0919189453125,-0.971923828125,-272.0,-250.0,431.0,102114.0,-6.554000377655029,0,0
22.476019,-0.002479788614436984,-0.00011294009891571477,-3.925877172150649e-05,0.9999837279319763,-0.18310546875,-0.06103515625,-0.1220703125,0.0228271484375,-0.092529296875,-0.9698486328125,-272.0,-250.0,431.0,102114.0,-6.553000450134277,0,0
22.483004,-0.002479788614436984,-0.00011294009891571477,-3.925877172150649e-05,0.9999837279319763,0.06103515625,-0.06103515625,0.06103515625,0.02490234375,-0.090576171875,-0.970947265625,-272.0,-250.0,431.0,102114.0,-6.553000450134277,0,0
22.490019,-0.002479788614436984,-0.00011294009891571477,-3.925877172150649e-05,0.9999837279319763,0.06103515625,0.244140625,-0.244140625,0.0233154296875,-0.0906982421875,-0.97119140625,-272.0,-250.0,431.0,102114.0,-6.553000450134277,0,0
22.496997,-0.0026723265182226896,-0.00011840882507385686,-3.1580948416376486e-05,0.9999744296073914,-0.18310546875,-0.06103515625,0.1220703125,0.023681640625,-0.092529296875,-0.971923828125,-272.0,-251.0,431.0,102114.0,-6.553000450134277,0,0
22.503997,-0.0026723265182226896,-0.00011840882507385686,-3.1580948416376486e-05,0.9999744296073914,0.06103515625,0.06103515625,-0.244140625,0.02734375,-0.0931396484375,-0.970947265625,-272.0,-251.0,431.0,102114.0,-6.553000450134277,0,0
22.511016,-0.0026723265182226896,-0.00011840882507385686,-3.1580948416376486e-05,0.9999744296073914,0.1220703125,0.1220703125,-0.1220703125,0.02490234375,-0.092041015625,-0.969970703125,-272.0,-251.0,431.0,102114.0,-6.553000450134277,0,0
22.518001,-0.0026723265182226896,-0.00011840882507385686,-3.1580948416376486e-05,0.9999744296073914,0.0,0.06103515625,0.0,0.02490234375,-0.0919189453125,-0.9722900390625,-272.0,-251.0,431.0,102114.0,-6.553000450134277,0,0
22.538994,-0.002671134425327182,-0.00014682812616229057,-2.0561565179377794e-05,0.999975323677063,-0.1220703125,0.1220703125,-0.18310546875,0.028076171875,-0.094482421875,-0.97119140625,-272.0,-251.0,431.0,102114.0,-6.553000450134277,0,0
22.546015,-0.002671134425327182,-0.00014682812616229057,-2.0561565179377794e-05,0.999975323677063,-0.06103515625,0.1220703125,0.0,0.0269775390625,-0.0933837890625,-0.970947265625,-272.0,-251.0,431.0,102114.0,-6.553000450134277,0,0
22.552998,-0.002671134425327182,-0.00014682812616229057,-2.0561565179377794e-05,0.999975323677063,-0.1220703125,-0.06103515625,-0.18310546875,0.0244140625,-0.0927734375,-0.9718017578125,-272.0,-251.0,431.0,102114.0,-6.553000450134277,0,0
22.55903,-0.002671134425327182,-0.00014682812616229057,-2.0561565179377794e-05,0.999975323677063,-0.1220703125,-0.06103515625,-0.18310546875,0.0244140625,-0.0927734375,-0.9718017578125,-272.0,-251.0,431.0,102114.0,-6.553000450134277,0,0
22.56602,-0.002671134425327182,-0.00014682812616229057,-2.0561565179377794e-05,0.999975323677063,0.06103515625,0.1220703125,0.06103515625,0.025146484375,-0.093505859375,-0.9716796875,-272.0,-251.0,431.0,102114.0,-6.552000522613525,0,0
22.573003,-0.002671134425327182,-0.00014682812616229057,-2.0561565179377794e-05,0.999975323677063,-0.18310546875,0.06103515625,-0.18310546875,0.025634765625,-0.0931396484375,-0.97216796875,-272.0,-251.0,431.0,102114.0,-6.552000522613525,0,0
22.580019,-0.002671134425327182,-0.00014682812616229057,-2.0561565179377794e-05,0.999975323677063,-0.18310546875,0.1220703125,-0.18310546875,0.0244140625,-0.09228515625,-0.97216796875,-272.0,-251.0,431.0,102114.0,-6.552000522613525,0,0
22.586997,-0.002671134425327182,-0.00014682812616229057,-2.0561565179377794e-05,0.999975323677063,-0.06103515625,0.1220703125,0.0,0.023193359375,-0.0919189453125,-0.9725341796875,-272.0,-251.0,431.0,102114.0,-6.552000522613525,0,0
22.593997,-0.002671998692676425,-0.0001578475203132257,-4.898087354376912e-05,0.9999765157699585,0.06103515625,0.18310546875,0.0,0.02490234375,-0.0936279296875,-0.9708251953125,-273.0,-251.0,430.0,102114.0,-6.552000522613525,0,0
22.601016,-0.002739880932494998,-0.00015937861462589353,-4.601740511134267e-05,0.9999828934669495,-0.79345703125,0.244140625,-0.06103515625,0.0244140625,-0.091796875,-0.97265625,-273.0,-251.0,430.0,102114.0,-6.552000522613525,0,0
22.608001,-0.002739880932494998,-0.00015937861462589353,-4.601740511134267e-05,0.9999828934669495,-0.48828125,0.30517578125,0.06103515625,0.025634765625,-0.0924072265625,-0.9730224609375,-273.0,-251.0,430.0,102114.0,-6.552000522613525,0,0
22.615019,-0.002739880932494998,-0.00015937861462589353,-4.601740511134267e-05,0.9999828934669495,-0.30517578125,-0.06103515625,-0.18310546875,0.0250244140625,-0.0927734375,-0.97216796875,-273.0,-251.0,430.0,102114.0,-6.552000522613525,0,0
22.621995,-0.002739880932494998,-0.00015937861462589353,-4.601740511134267e-05,0.9999828934669495,-0.1220703125,0.06103515625,0.18310546875,0.025146484375,-0.0941162109375,-0.9727783203125,-273.0,-251.0,430.0,102114.0,-6.552000522613525,0,0
22.628994,-0.002739880932494998,-0.00015937861462589353,-4.601740511134267e-05,0.9999828934669495,-0.18310546875,0.06103515625,-0.3662109375,0.0242919921875,-0.09228515625,-0.9700927734375,-273.0,-251.0,430.0,102114.0,-6.552000522613525,0,0
22.636015,-0.002739880932494998,-0.00015937861462589353,-4.601740511134267e-05,0.9999828934669495,-0.3662109375,0.0,-0.18310546875,0.0262451171875,-0.0919189453125,-0.9722900390625,-273.0,-251.0,430.0,102114.0,-6.552000522613525,0,0
22.642997,-0.002739880932494998,-0.00015937861462589353,-4.601740511134267e-05,0.9999828934669495,-0.48828125,0.0,-0.06103515625,0.0234375,-0.092041015625,-0.9720458984375,-273.0,-251.0,430.0,102114.0,-6.552000522613525,0,0
22.650018,-0.002739880932494998,-0.00015937861462589353,-4.601740511134267e-05,0.9999828934669495,-0.18310546875,0.18310546875,0.06103515625,0.0235595703125,-0.0919189453125,-0.9710693359375,-273.0,-251.0,430.0,102114.0,-6.552000522613525,0,0
22.656051,-0.002739880932494998,-0.00015937861462589353,-4.601740511134267e-05,0.9999828934669495,-0.18310546875,0.18310546875,0.06103515625,0.0235595703125,-0.0919189453125,-0.9710693359375,-273.0,-251.0,430.0,102114.0,-6.552000522613525,0,0
22.663003,-0.002739880932494998,-0.00015937861462589353,-4.601740511134267e-05,0.9999828934669495,-0.54931640625,0.06103515625,-0.18310546875,0.023681640625,-0.0938720703125,-0.9720458984375,-273.0,-251.0,430.0,102114.0,-6.553000450134277,0,0
22.670018,-0.002739880932494998,-0.00015937861462589353,-4.601740511134267e-05,0.9999828934669495,-0.244140625,-0.06103515625,0.06103515625,0.0233154296875,-0.0933837890625,-0.9705810546875,-273.0,-251.0,430.0,102114.0,-6.553000450134277,0,0
22.676997,-0.002739880932494998,-0.00015937861462589353,-4.601740511134267e-05,0.9999828934669495,-0.3662109375,0.244140625,0.06103515625,0.0255126953125,-0.0924072265625,-0.97021484375,-273.0,-251.0,430.0,102114.0,-6.553000450134277,0,0
22.683996,-0.002739880932494998,-0.00015937861462589353,-4.601740511134267e-05,0.9999828934669495,-0.30517578125,0.18310546875,-0.1220703125,0.0255126953125,-0.089111328125,-0.9708251953125,-273.0,-251.0,430.0,102114.0,-6.553000450134277,0,0
22.691017,-0.0027386590372771025,-0.00018779792299028486,-3.4998021874343976e-05,0.9999837875366211,-0.244140625,0.0,-0.1220703125,0.0257568359375,-0.0914306640625,-0.9703369140625,-273.0,-251.0,430.0,102114.0,-6.553000450134277,0,0
22.712,-0.0027386590372771025,-0.00018779792299028486,-3.4998021874343976e-05,0.9999837875366211,-0.42724609375,0.06103515625,-0.1220703125,0.0267333984375,-0.091796875,-0.970703125,-274.0,-251.0,428.0,102114.0,-6.553000450134277,0,0
22.718995,-0.0027386590372771025,-0.00018779792299028486,-3.4998021874343976e-05,0.9999837875366211,-0.18310546875,0.06103515625,0.0,0.02294921875,-0.091552734375,-0.9705810546875,-274.0,-251.0,428.0,102114.0,-6.553000450134277,0,0
22.72602,-0.0027386590372771025,-0.00018779792299028486,-3.4998021874343976e-05,0.9999837875366211,-0.244140625,0.30517578125,0.0,0.0257568359375,-0.08984375,-0.972412109375,-274.0,-251.0,428.0,102114.0,-6.553000450134277,0,0
22.732998,-0.0027386590372771025,-0.00018779792299028486,-3.4998021874343976e-05,0.9999837875366211,-0.18310546875,0.06103515625,-0.06103515625,0.0235595703125,-0.0902099609375,-0.973388671875,-274.0,-251.0,428.0,102114.0,-6.553000450134277,0,0
22.740018,-0.0027386590372771025,-0.00018779792299028486,-3.4998021874343976e-05,0.9999837875366211,-0.1220703125,-0.1220703125,-0.06103515625,0.02490234375,-0.0894775390625,-0.9705810546875,-274.0,-251.0,428.0,102114.0,-6.553000450134277,0,0
22.74605,-0.0027386590372771025,-0.00018779792299028486,-3.4998021874343976e-05,0.9999837875366211,-0.1220703125,-0.1220703125,-0.06103515625,0.02490234375,-0.0894775390625,-0.9705810546875,-274.0,-251.0,428.0,102114.0,-6.553000450134277,0,0
22.753003,-0.0027386590372771025,-0.00018779792299028486,-3.4998021874343976e-05,0.9999837875366211,0.0,0.06103515625,-0.06103515625,0.024658203125,-0.0924072265625,-0.9715576171875,-274.0,-251.0,428.0,102114.0,-6.553000450134277,0,0
22.760018,-0.0027386590372771025,-0.00018779792299028486,-3.4998021874343976e-05,0.9999837875366211,-0.18310546875,0.1220703125,0.06103515625,0.023681640625,-0.09423828125,-0.9715576171875,-274.0,-251.0,428.0,102114.0,-6.553000450134277,0,0
22.766997,-0.0027386590372771025,-0.00018779792299028486,-3.4998021874343976e-05,0.9999837875366211,-0.06103515625,-0.06103515625,-0.06103515625,0.0240478515625,-0.0936279296875,-0.9718017578125,-274.0,-251.0,428.0,102114.0,-6.553000450134277,0,0
22.773996,-0.002739880932494998,-0.00015937861462589353,-4.601740511134267e-05,0.9999828934669495,-0.1220703125,0.1220703125,-0.1220703125,0.0228271484375,-0.093017578125,-0.97216796875,-274.0,-251.0,428.0,102114.0,-6.553000450134277,0,0
22.781016,-0.002738986862823367,-0.00014835922047495842,-1.759809674695134e-05,0.999981701374054,-0.18310546875,0.0,0.0,0.0244140625,-0.0892333984375,-0.97314453125,-274.0,-251.0,428.0,102114.0,-6.553000450134277,0,0
22.801994,-0.002739880932494998,-0.00015937861462589353,-4.601740511134267e-05,0.9999828934669495,-0.1220703125,0.1220703125,0.3662109375,0.025146484375,-0.0931396484375,-0.9732666015625,-275.0,-252.0,428.0,102114.0,-6.553000450134277,0,0
22.808994,-0.002739880932494998,-0.00015937861462589353,-4.601740511134267e-05,0.9999828934669495,0.0,0.1220703125,-0.1220703125,0.0228271484375,-0.0919189453125,-0.9715576171875,-275.0,-252.0,428.0,102114.0,-6.553000450134277,0,0
22.816016,-0.002739880932494998,-0.00015937861462589353,-4.601740511134267e-05,0.9999828934669495,0.06103515625,0.06103515625,0.06103515625,0.0238037109375,-0.092529296875,-0.970703125,-275.0,-252.0,428.0,102114.0,-6.553000450134277,0,0
22.822999,-0.002739880932494998,-0.00015937861462589353,-4.601740511134267e-05,0.9999828934669495,-0.18310546875,-0.06103515625,-0.06103515625,0.0260009765625,-0.09228515625,-0.9735107421875,-275.0,-252.0,428.0,102114.0,-6.553000450134277,0,0
22.830018,-0.0027386590372771025,-0.00018779792299028486,-3.4998021874343976e-05,0.9999837875366211,-0.18310546875,0.244140625,-0.06103515625,0.0274658203125,-0.0928955078125,-0.9716796875,-275.0,-252.0,428.0,102114.0,-6.553000450134277,0,0
22.836996,-0.0027386590372771025,-0.00018779792299028486,-3.4998021874343976e-05,0.9999837875366211,0.244140625,0.06103515625,-0.1220703125,0.0257568359375,-0.09423828125,-0.972900390625,-275.0,-252.0,428.0,102114.0,-6.553000450134277,0,0
22.84303,-0.0027386590372771025,-0.00018779792299028486,-3.4998021874343976e-05,0.9999837875366211,0.244140625,0.06103515625,-0.1220703125,0.0257568359375,-0.09423828125,-0.972900390625,-275.0,-252.0,428.0,102114.0,-6.553000450134277,0,0
22.850019,-0.0027386590372771025,-0.00018779792299028486,-3.4998021874343976e-05,0.9999837875366211,-0.06103515625,0.18310546875,0.1220703125,0.02490234375,-0.09326171875,-0.9722900390625,-275.0,-252.0,428.0,102114.0,-6.553000450134277,0,0
22.856997,-0.0027386590372771025,-0.00018779792299028486,-3.4998021874343976e-05,0.9999837875366211,0.244140625,0.1220703125,0.0,0.0245361328125,-0.0911865234375,-0.97265625,-275.0,-252.0,428.0,102114.0,-6.553000450134277,0,0
22.863996,-0.0027377947699278593,-0.00017677852883934975,-6.5787135099526495e-06,0.9999825358390808,0.18310546875,0.0,0.0,0.0255126953125,-0.091064453125,-0.972900390625,-275.0,-252.0,428.0,102114.0,-6.554000377655029,0,0
22.871017,-0.0027377947699278593,-0.00017677852883934975,-6.5787135099526495e-06,0.9999825358390808,0.1220703125,0.0,0.30517578125,0.0255126953125,-0.0927734375,-0.969482421875,-275.0,-252.0,428.0,102114.0,-6.554000377655029,0,0
22.878001,-0.0027386590372771025,-0.00018779792299028486,-3.4998021874343976e-05,0.9999837875366211,0.06103515625,0.06103515625,-0.1220703125,0.0244140625,-0.0924072265625,-0.970703125,-275.0,-252.0,428.0,102114.0,-6.554000377655029,0,0
22.885019,-0.0027386590372771025,-0.00018779792299028486,-3.4998021874343976e-05,0.9999837875366211,-0.06103515625,0.0,0.0,0.0233154296875,-0.0916748046875,-0.971923828125,-275.0,-252.0,428.0,102114.0,-6.554000377655029,0,0
22.891994,-0.0027386590372771025,-0.00018779792299028486,-3.4998021874343976e-05,0.9999837875366211,-0.06103515625,0.0,-0.06103515625,0.025390625,-0.0926513671875,-0.9725341796875,-276.0,-252.0,429.0,102114.0,-6.554000377655029,0,0
22.898995,-0.002669942332431674,-0.0001752474345266819,-9.542181942379102e-06,0.9999762177467346,-0.244140625,0.0,-0.1220703125,0.0267333984375,-0.0909423828125,-0.9700927734375,-276.0,-252.0,429.0,102114.0,-6.554000377655029,0,0
22.906015,-0.002670806599780917,-0.000186266828677617,-3.796149030677043e-05,0.9999774098396301,0.0,0.1220703125,-0.244140625,0.0225830078125,-0.0950927734375,-0.9715576171875,-276.0,-252.0,429.0,102114.0,-6.554000377655029,0,0
22.912997,-0.002670806599780917,-0.000186266828677617,-3.796149030677043e-05,0.9999774098396301,-0.1220703125,-0.06103515625,-0.1220703125,0.0233154296875,-0.092041015625,-0.9697265625,-276.0,-252.0,429.0,102114.0,-6.554000377655029,0,0
22.920018,-0.002670806599780917,-0.000186266828677617,-3.796149030677043e-05,0.9999774098396301,0.06103515625,0.1220703125,0.0,0.02392578125,-0.09423828125,-0.970703125,-276.0,-252.0,429.0,102114.0,-6.554000377655029,0,0
22.926996,-0.002670806599780917,-0.000186266828677617,-3.796149030677043e-05,0.9999774098396301,-0.06103515625,0.0,-0.18310546875,0.0234375,-0.0953369140625,-0.97119140625,-276.0,-252.0,429.0,102114.0,-6.554000377655029,0,0
22.933029,-0.002670806599780917,-0.000186266828677617,-3.796149030677043e-05,0.9999774098396301,-0.06103515625,0.0,-0.18310546875,0.0234375,-0.0953369140625,-0.97119140625,-276.0,-252.0,429.0,102114.0,-6.554000377655029,0,0
22.940019,-0.002672892762348056,-0.00016886689991224557,-7.740018190816045e-05,0.999977707862854,-0.06103515625,0.18310546875,0.06103515625,0.0244140625,-0.0933837890625,-0.972900390625,-276.0,-252.0,429.0,102114.0,-6.554000377655029,0,0
22.946997,-0.002672892762348056,-0.00016886689991224557,-7.740018190816045e-05,0.999977707862854,-0.06103515625,0.06103515625,-0.1220703125,0.0250244140625,-0.093505859375,-0.969970703125,-276.0,-252.0,429.0,102114.0,-6.554000377655029,0,0
22.953996,-0.002672892762348056,-0.00016886689991224557,-7.740018190816045e-05,0.999977707862854,0.0,0.0,-0.1220703125,0.0244140625,-0.0933837890625,-0.9713134765625,-276.0,-252.0,429.0,102114.0,-6.554000377655029,0,0
22.975019,-0.002671998692676425,-0.0001578475203132257,-4.898087354376912e-05,0.9999765157699585,-0.1220703125,0.244140625,0.1220703125,0.0250244140625,-0.0921630859375,-0.97119140625,-276.0,-252.0,429.0,102114.0,-6.554000377655029,0,0
22.981999,-0.002670806599780917,-0.000186266828677617,-3.796149030677043e-05,0.9999774098396301,0.06103515625,0.0,-0.1220703125,0.02734375,-0.0904541015625,-0.9703369140625,-276.0,-252.0,429.0,102114.0,-6.554000377655029,0,0
22.988995,-0.002670806599780917,-0.000186266828677617,-3.796149030677043e-05,0.9999774098396301,0.244140625,0.3662109375,-0.06103515625,0.0233154296875,-0.093017578125,-0.969482421875,-276.0,-252.0,429.0,102114.0,-6.554000377655029,0,0
22.99602,-0.002671700669452548,-0.0001972862082766369,-6.638080230914056e-05,0.9999786019325256,-0.1220703125,0.30517578125,0.06103515625,0.0242919921875,-0.0946044921875,-0.97021484375,-276.0,-251.0,430.0,102114.0,-6.554000377655029,0,0
23.002998,-0.0025351017247885466,-0.00018320836534257978,-4.388097659102641e-05,0.9999646544456482,-0.244140625,-0.06103515625,0.06103515625,0.0262451171875,-0.0919189453125,-0.9725341796875,-276.0,-251.0,430.0,102114.0,-6.554000377655029,0,0
23.010018,-0.0025351017247885466,-0.00018320836534257978,-4.388097659102641e-05,0.9999646544456482,-0.3662109375,0.0,-0.1220703125,0.024658203125,-0.091796875,-0.9696044921875,-276.0,-251.0,430.0,102114.0,-6.554000377655029,0,0
23.016996,-0.0025351017247885466,-0.00018320836534257978,-4.388097659102641e-05,0.9999646544456482,-0.1220703125,0.18310546875,-0.06103515625,0.0225830078125,-0.0933837890625,-0.97119140625,-276.0,-251.0,430.0,102114.0,-6.553000450134277,0,0
23.023996,-0.0025351017247885466,-0.00018320836534257978,-4.388097659102641e-05,0.9999646544456482,-0.18310546875,-0.06103515625,-0.1220703125,0.02490234375,-0.0919189453125,-0.972412109375,-276.0,-251.0,430.0,102114.0,-6.553000450134277,0,0
23.030029,-0.0025351017247885466,-0.00018320836534257978,-4.388097659102641e-05,0.9999646544456482,-0.18310546875,-0.06103515625,-0.1220703125,0.02490234375,-0.0919189453125,-0.972412109375,-276.0,-251.0,430.0,102114.0,-6.553000450134277,0,0
23.036997,-0.0025351017247885466,-0.00018320836534257978,-4.388097659102641e-05,0.9999646544456482,-0.18310546875,0.0,-0.244140625,0.023681640625,-0.09033203125,-0.9718017578125,-276.0,-251.0,430.0,102114.0,-6.553000450134277,0,0
23.043996,-0.0025351017247885466,-0.00018320836534257978,-4.388097659102641e-05,0.9999646544456482,-0.42724609375,0.18310546875,0.0,0.0235595703125,-0.092529296875,-0.97216796875,-276.0,-251.0,430.0,102114.0,-6.553000450134277,0,0
23.065019,-0.0025362938176840544,-0.00015478905697818846,-5.49003598280251e-05,0.9999638199806213,-0.244140625,0.1220703125,-0.1220703125,0.0252685546875,-0.0908203125,-0.970947265625,-276.0,-251.0,430.0,102114.0,-6.553000450134277,0,0
23.071994,-0.0025362938176840544,-0.00015478905697818846,-5.49003598280251e-05,0.9999638199806213,-0.30517578125,-0.06103515625,-0.244140625,0.025390625,-0.0919189453125,-0.9708251953125,-276.0,-251.0,430.0,102114.0,-6.553000450134277,0,0
23.078995,-0.0025362938176840544,-0.00015478905697818846,-5.49003598280251e-05,0.9999638199806213,0.0,0.0,-0.18310546875,0.023681640625,-0.09228515625,-0.97216796875,-276.0,-251.0,430.0,102114.0,-6.553000450134277,0,0
23.086015,-0.0025362938176840544,-0.00015478905697818846,-5.49003598280251e-05,0.9999638199806213,-0.3662109375,-0.06103515625,-0.244140625,0.022216796875,-0.092529296875,-0.9716796875,-276.0,-251.0,430.0,102114.0,-6.553000450134277,0,0
23.092998,-0.0025351017247885466,-0.00018320836534257978,-4.388097659102641e-05,0.9999646544456482,-0.244140625,0.06103515625,0.1220703125,0.02734375,-0.09375,-0.971435546875,-277.0,-251.0,429.0,102114.0,-6.553000450134277,0,0
23.100018,-0.002478238893672824,-0.00018079810251947492,-4.5639313611900434e-05,0.9999866485595703,-0.1220703125,0.0,-0.06103515625,0.025146484375,-0.0927734375,-0.9710693359375,-277.0,-251.0,429.0,102114.0,-6.553000450134277,0,0
23.106997,-0.002478238893672824,-0.00018079810251947492,-4.5639313611900434e-05,0.9999866485595703,-0.3662109375,0.06103515625,0.06103515625,0.0262451171875,-0.0933837890625,-0.9725341796875,-277.0,-251.0,429.0,102114.0,-6.553000450134277,0,0
23.113996,-0.0024791329633444548,-0.0001918174821184948,-7.405862561427057e-05,0.9999878406524658,-0.3662109375,-0.06103515625,-0.06103515625,0.0218505859375,-0.0919189453125,-0.970703125,-277.0,-251.0,429.0,102114.0,-6.553000450134277,0,0
23.120029,-0.0024791329633444548,-0.0001918174821184948,-7.405862561427057e-05,0.9999878406524658,-0.3662109375,-0.06103515625,-0.06103515625,0.0218505859375,-0.0919189453125,-0.970703125,-277.0,-251.0,429.0,102114.0,-6.553000450134277,0,0
23.126997,-0.002478238893672824,-0.00018079810251947492,-4.5639313611900434e-05,0.9999866485595703,-0.42724609375,0.06103515625,-0.18310546875,0.0257568359375,-0.0919189453125,-0.970947265625,-277.0,-251.0,429.0,102114.0,-6.553000450134277,0,0
23.133996,-0.002478238893672824,-0.00018079810251947492,-4.5639313611900434e-05,0.9999866485595703,-0.1220703125,0.0,0.0,0.026611328125,-0.094482421875,-0.9710693359375,-277.0,-251.0,429.0,102114.0,-6.553000450134277,0,0
23.141016,-0.002478238893672824,-0.00018079810251947492,-4.5639313611900434e-05,0.9999866485595703,-0.30517578125,0.1220703125,-0.1220703125,0.02734375,-0.0909423828125,-0.9736328125,-277.0,-251.0,429.0,102114.0,-6.553000450134277,0,0
23.148,-0.002478238893672824,-0.00018079810251947492,-4.5639313611900434e-05,0.9999866485595703,-0.30517578125,-0.06103515625,-0.244140625,0.025634765625,-0.093994140625,-0.9727783203125,-277.0,-251.0,429.0,102114.0,-6.553000450134277,0,0
23.155019,-0.002478238893672824,-0.00018079810251947492,-4.5639313611900434e-05,0.9999866485595703,-0.30517578125,0.06103515625,-0.244140625,0.0240478515625,-0.0926513671875,-0.97216796875,-277.0,-251.0,429.0,102114.0,-6.553000450134277,0,0
23.161994,-0.0024773746263235807,-0.0001697787083685398,-1.7220005247509107e-05,0.9999854564666748,-0.1220703125,0.06103515625,-0.06103515625,0.0269775390625,-0.0916748046875,-0.9727783203125,-277.0,-251.0,429.0,102114.0,-6.553000450134277,0,0
23.168994,-0.0024773746263235807,-0.0001697787083685398,-1.7220005247509107e-05,0.9999854564666748,-0.3662109375,0.0,-0.244140625,0.02490234375,-0.08935546875,-0.9722900390625,-277.0,-251.0,429.0,102114.0,-6.553000450134277,0,0
23.176015,-0.0024773746263235807,-0.0001697787083685398,-1.7220005247509107e-05,0.9999854564666748,-0.06103515625,0.18310546875,0.0,0.022705078125,-0.0909423828125,-0.9710693359375,-277.0,-251.0,429.0,102114.0,-6.553000450134277,0,0
23.182998,-0.0024773746263235807,-0.0001697787083685398,-1.7220005247509107e-05,0.9999854564666748,-0.3662109375,0.06103515625,-0.1220703125,0.0242919921875,-0.092529296875,-0.972900390625,-277.0,-251.0,429.0,102114.0,-6.553000450134277,0,0
23.190018,-0.0024773746263235807,-0.0001697787083685398,-1.7220005247509107e-05,0.9999854564666748,-0.30517578125,0.3662109375,-0.18310546875,0.0252685546875,-0.0914306640625,-0.9722900390625,-277.0,-251.0,429.0,102114.0,-6.553000450134277,0,0
23.196996,-0.0024773746263235807,-0.0001697787083685398,-1.7220005247509107e-05,0.9999854564666748,0.0,-0.1220703125,-0.30517578125,0.0272216796875,-0.0904541015625,-0.97314453125,-276.0,-251.0,428.0,102114.0,-6.553000450134277,0,0
23.203996,-0.0024095221888273954,-0.00016824761405587196,-2.0179748389637098e-05,0.9999790787696838,-0.244140625,0.18310546875,-0.18310546875,0.0240478515625,-0.0904541015625,-0.9720458984375,-276.0,-251.0,428.0,102114.0,-6.553000450134277,0,0
23.211021,-0.0024086281191557646,-0.00015722823445685208,8.240491297328845e-06,0.9999778866767883,-0.244140625,-0.06103515625,-0.1220703125,0.0255126953125,-0.092529296875,-0.97216796875,-276.0,-251.0,428.0,102114.0,-6.553000450134277,0,0
23.217049,-0.0024086281191557646,-0.00015722823445685208,8.240491297328845e-06,0.9999778866767883,-0.244140625,-0.06103515625,-0.1220703125,0.0255126953125,-0.092529296875,-0.97216796875,-276.0,-251.0,428.0,102114.0,-6.553000450134277,0,0
23.272998,-0.00240985001437366,-0.00012880892609246075,-2.7788919396698475e-06,0.9999769926071167,0.06103515625,-0.06103515625,-0.06103515625,0.024658203125,-0.0933837890625,-0.971435546875,-276.0,-251.0,428.0,102114.0,-6.553000450134277,0,0
23.280018,-0.00240985001437366,-0.00012880892609246075,-2.7788919396698475e-06,0.9999769926071167,-0.244140625,0.18310546875,0.06103515625,0.02392578125,-0.0926513671875,-0.9732666015625,-276.0,-251.0,428.0,102114.0,-6.553000450134277,0,0
23.286997,-0.00240985001437366,-0.00012880892609246075,-2.7788919396698475e-06,0.9999769926071167,-0.06103515625,0.0,-0.244140625,0.0242919921875,-0.091552734375,-0.9720458984375,-276.0,-251.0,428.0,102114.0,-6.553000450134277,0,0
23.293996,-0.00240985001437366,-0.00012880892609246075,-2.7788919396698475e-06,0.9999769926071167,0.06103515625,-0.06103515625,-0.06103515625,0.0264892578125,-0.0914306640625,-0.9697265625,-276.0,-252.0,428.0,102114.0,-6.553000450134277,0,0
23.301021,-0.00240985001437366,-0.00012880892609246075,-2.7788919396698475e-06,0.9999769926071167,-0.1220703125,-0.18310546875,-0.18310546875,0.024658203125,-0.0921630859375,-0.9725341796875,-276.0,-252.0,428.0,102114.0,-6.553000450134277,0,0
23.307053,-0.00240985001437366,-0.00012880892609246075,-2.7788919396698475e-06,0.9999769926071167,-0.1220703125,-0.18310546875,-0.18310546875,0.024658203125,-0.0921630859375,-0.9725341796875,-276.0,-252.0,428.0,102114.0,-6.553000450134277,0,0
23.328001,-0.0024086281191557646,-0.00015722823445685208,8.240491297328845e-06,0.9999778866767883,0.0,0.3662109375,-0.1220703125,0.0247802734375,-0.0914306640625,-0.970947265625,-276.0,-252.0,428.0,102114.0,-6.554000377655029,0,0
23.335019,-0.0024086281191557646,-0.00015722823445685208,8.240491297328845e-06,0.9999778866767883,0.0,-0.06103515625,0.244140625,0.02490234375,-0.0921630859375,-0.9737548828125,-276.0,-252.0,428.0,102114.0,-6.554000377655029,0,0
23.341999,-0.0024086281191557646,-0.00015722823445685208,8.240491297328845e-06,0.9999778866767883,-0.18310546875,-0.06103515625,-0.1220703125,0.0255126953125,-0.093994140625,-0.9720458984375,-276.0,-252.0,428.0,102114.0,-6.554000377655029,0,0
23.348995,-0.0024095221888273954,-0.00016824761405587196,-2.0179748389637098e-05,0.9999790787696838,0.0,-0.06103515625,0.06103515625,0.0267333984375,-0.0947265625,-0.9691162109375,-276.0,-252.0,428.0,102114.0,-6.554000377655029,0,0
23.356015,-0.0024095221888273954,-0.00016824761405587196,-2.0179748389637098e-05,0.9999790787696838,-0.30517578125,0.0,-0.06103515625,0.024169921875,-0.092529296875,-0.971435546875,-276.0,-252.0,428.0,102114.0,-6.554000377655029,0,0
23.362997,-0.0024095221888273954,-0.00016824761405587196,-2.0179748389637098e-05,0.9999790787696838,0.0,0.0,-0.06103515625,0.0240478515625,-0.091796875,-0.970458984375,-276.0,-252.0,428.0,102114.0,-6.554000377655029,0,0
23.370018,-0.0024095221888273954,-0.00016824761405587196,-2.0179748389637098e-05,0.9999790787696838,0.0,0.1220703125,0.0,0.0235595703125,-0.092529296875,-0.970703125,-276.0,-252.0,428.0,102114.0,-6.554000377655029,0,0
23.376996,-0.0024095221888273954,-0.00016824761405587196,-2.0179748389637098e-05,0.9999790787696838,0.0,-0.06103515625,-0.1220703125,0.0250244140625,-0.091552734375,-0.9718017578125,-276.0,-252.0,428.0,102114.0,-6.554000377655029,0,0
23.383996,-0.0024095221888273954,-0.00016824761405587196,-2.0179748389637098e-05,0.9999790787696838,0.0,0.06103515625,-0.06103515625,0.02490234375,-0.093505859375,-0.9718017578125,-276.0,-252.0,428.0,102114.0,-6.554000377655029,0,0
23.391021,-0.0024095221888273954,-0.00016824761405587196,-2.0179748389637098e-05,0.9999790787696838,0.30517578125,0.06103515625,-0.06103515625,0.0274658203125,-0.0914306640625,-0.970703125,-276.0,-252.0,428.0,102114.0,-6.554000377655029,0,0
23.398001,-0.0024773746263235807,-0.0001697787083685398,-1.7220005247509107e-05,0.9999854564666748,0.1220703125,0.1220703125,-0.18310546875,0.0252685546875,-0.0924072265625,-0.972900390625,-275.0,-252.0,428.0,102114.0,-6.554000377655029,0,0
23.404032,-0.0024773746263235807,-0.0001697787083685398,-1.7220005247509107e-05,0.9999854564666748,0.1220703125,0.1220703125,-0.18310546875,0.0252685546875,-0.0924072265625,-0.972900390625,-275.0,-252.0,428.0,102114.0,-6.554000377655029,0,0
23.411016,-0.0024773746263235807,-0.0001697787083685398,-1.7220005247509107e-05,0.9999854564666748,-0.1220703125,0.1220703125,0.06103515625,0.0245361328125,-0.0941162109375,-0.9715576171875,-275.0,-252.0,428.0,102114.0,-6.554000377655029,0,0
23.418,-0.0024773746263235807,-0.0001697787083685398,-1.7220005247509107e-05,0.9999854564666748,-0.18310546875,0.18310546875,-0.1220703125,0.023193359375,-0.0906982421875,-0.969970703125,-275.0,-252.0,428.0,102114.0,-6.554000377655029,0,0
23.425019,-0.002478238893672824,-0.00018079810251947492,-4.5639313611900434e-05,0.9999866485595703,-0.06103515625,-0.1220703125,-0.244140625,0.0257568359375,-0.09375,-0.9727783203125,-275.0,-252.0,428.0,102114.0,-6.554000377655029,0,0
23.431994,-0.002477046800777316,-0.00020921834220644087,-3.461993037490174e-05,0.9999875426292419,-0.06103515625,0.06103515625,-0.06103515625,0.0257568359375,-0.0943603515625,-0.97119140625,-275.0,-252.0,428.0,102114.0,-6.554000377655029,0,0
23.438994,-0.002477046800777316,-0.00020921834220644087,-3.461993037490174e-05,0.9999875426292419,-0.18310546875,-0.06103515625,-0.18310546875,0.0242919921875,-0.093505859375,-0.9732666015625,-275.0,-252.0,428.0,102114.0,-6.554000377655029,0,0
23.446016,-0.002477046800777316,-0.00020921834220644087,-3.461993037490174e-05,0.9999875426292419,-0.244140625,0.30517578125,-0.1220703125,0.0247802734375,-0.0943603515625,-0.970947265625,-275.0,-252.0,428.0,102114.0,-6.554000377655029,0,0
23.452998,-0.002477046800777316,-0.00020921834220644087,-3.461993037490174e-05,0.9999875426292419,-0.30517578125,0.18310546875,0.0,0.023681640625,-0.0921630859375,-0.9698486328125,-275.0,-252.0,428.0,102114.0,-6.554000377655029,0,0
23.460018,-0.002477046800777316,-0.00020921834220644087,-3.461993037490174e-05,0.9999875426292419,-0.18310546875,0.30517578125,-0.18310546875,0.022705078125,-0.0938720703125,-0.9720458984375,-275.0,-252.0,428.0,102114.0,-6.554000377655029,0,0
23.466996,-0.002478238893672824,-0.00018079810251947492,-4.5639313611900434e-05,0.9999866485595703,0.06103515625,0.06103515625,-0.06103515625,0.0247802734375,-0.0908203125,-0.97119140625,-275.0,-252.0,428.0,102114.0,-6.554000377655029,0,0
23.473996,-0.002477046800777316,-0.00020921834220644087,-3.461993037490174e-05,0.9999875426292419,0.0,0.18310546875,0.1220703125,0.023193359375,-0.091064453125,-0.9716796875,-275.0,-252.0,428.0,102114.0,-6.554000377655029,0,0
23.481021,-0.002477046800777316,-0.00020921834220644087,-3.461993037490174e-05,0.9999875426292419,-0.18310546875,0.06103515625,-0.1220703125,0.0247802734375,-0.093994140625,-0.9708251953125,-275.0,-252.0,428.0,102114.0,-6.554000377655029,0,0
23.501017,-0.002534773899242282,-0.0002226479846285656,-6.128090171841905e-05,0.9999667406082153,-0.1220703125,0.1220703125,0.0,0.0242919921875,-0.0933837890625,-0.9720458984375,-275.0,-252.0,428.0,102114.0,-6.554000377655029,0,0
23.508,-0.002534773899242282,-0.0002226479846285656,-6.128090171841905e-05,0.9999667406082153,-0.18310546875,0.18310546875,0.0,0.024169921875,-0.0947265625,-0.97021484375,-275.0,-252.0,428.0,102114.0,-6.553000450134277,0,0
23.515019,-0.002534773899242282,-0.0002226479846285656,-6.128090171841905e-05,0.9999667406082153,-0.244140625,0.0,-0.244140625,0.02783203125,-0.092529296875,-0.970947265625,-275.0,-252.0,428.0,102114.0,-6.553000450134277,0,0
23.521994,-0.002534773899242282,-0.0002226479846285656,-6.128090171841905e-05,0.9999667406082153,-0.30517578125,0.06103515625,-0.06103515625,0.0233154296875,-0.093017578125,-0.9703369140625,-275.0,-252.0,428.0,102114.0,-6.553000450134277,0,0
23.528994,-0.002534773899242282,-0.0002226479846285656,-6.128090171841905e-05,0.9999667406082153,-0.3662109375,0.1220703125,-0.30517578125,0.0267333984375,-0.093017578125,-0.972412109375,-275.0,-252.0,428.0,102114.0,-6.553000450134277,0,0
23.536015,-0.002534773899242282,-0.0002226479846285656,-6.128090171841905e-05,0.9999667406082153,0.1220703125,0.06103515625,-0.06103515625,0.0247802734375,-0.0938720703125,-0.9716796875,-275.0,-252.0,428.0,102114.0,-6.553000450134277,0,0
23.542998,-0.002534773899242282,-0.0002226479846285656,-6.128090171841905e-05,0.9999667406082153,-0.1220703125,0.06103515625,-0.18310546875,0.0252685546875,-0.0916748046875,-0.9715576171875,-275.0,-252.0,428.0,102114.0,-6.553000450134277,0,0
23.550018,-0.0025335520040243864,-0.0002510672784410417,-5.026151848142035e-05,0.999967634677887,-0.30517578125,0.0,-0.1220703125,0.025146484375,-0.09228515625,-0.97216796875,-275.0,-252.0,428.0,102114.0,-6.553000450134277,0,0
23.556996,-0.0025335520040243864,-0.0002510672784410417,-5.026151848142035e-05,0.999967634677887,-0.48828125,-0.06103515625,0.06103515625,0.0281982421875,-0.0916748046875,-0.9736328125,-275.0,-252.0,428.0,102114.0,-6.553000450134277,0,0
23.563996,-0.0025335520040243864,-0.0002510672784410417,-5.026151848142035e-05,0.999967634677887,-0.244140625,-0.06103515625,-0.244140625,0.026611328125,-0.08984375,-0.9722900390625,-275.0,-252.0,428.0,102114.0,-6.553000450134277,0,0
23.571021,-0.0025335520040243864,-0.0002510672784410417,-5.026151848142035e-05,0.999967634677887,-0.18310546875,0.244140625,-0.06103515625,0.0244140625,-0.09375,-0.972900390625,-275.0,-252.0,428.0,102114.0,-6.553000450134277,0,0
