Time stamp(sec),quaternion_0,quaternion_1,quaternion_2,quaternion_3,roll_angular_rate,pitch_angular_rate,yaw_angular_rate,acc_X,acc_Y,acc_Z,mag_X,mag_Y,mag_Z,pressure,altitude
1881.744018,-0.810516357421875,0.030609130859375,0.046234130859375,0.58306884765625,-0.06103515625,0.42724609375,-0.1220703125,0.10888671875,0.0072021484375,0.9970703125,-305.0,88.0,-5.0,101942.0,-5.125000476837158,0,0
1881.750996,-0.810516357421875,0.030609130859375,0.046234130859375,0.58306884765625,0.1220703125,0.48828125,0.06103515625,0.109619140625,0.00390625,0.9954833984375,-305.0,88.0,-5.0,101942.0,-5.125000476837158,0,0
1881.757996,-0.810516357421875,0.030609130859375,0.046234130859375,0.58306884765625,-0.06103515625,0.30517578125,0.1220703125,0.108642578125,0.0042724609375,0.9991455078125,-305.0,88.0,-5.0,101942.0,-5.124000072479248,0,0
1881.765021,-0.810516357421875,0.030609130859375,0.046234130859375,0.58306884765625,0.06103515625,0.244140625,-0.1220703125,0.111083984375,0.0028076171875,0.99755859375,-305.0,87.0,-4.0,101942.0,-5.124000072479248,0,0
1881.772001,-0.809906005859375,0.030670166015625,0.04620361328125,0.583892822265625,0.06103515625,0.06103515625,0.06103515625,0.112060546875,0.0047607421875,0.9976806640625,-305.0,87.0,-4.0,101942.0,-5.124000072479248,0,0
1881.778032,-0.809906005859375,0.030670166015625,0.04620361328125,0.583892822265625,0.06103515625,0.06103515625,0.06103515625,0.112060546875,0.0047607421875,0.9976806640625,-305.0,87.0,-4.0,101942.0,-5.124000072479248,0,0
1881.785016,-0.809906005859375,0.030670166015625,0.04620361328125,0.583892822265625,-0.1220703125,0.06103515625,-0.244140625,0.107421875,0.0052490234375,0.9959716796875,-305.0,87.0,-4.0,101942.0,-5.124000072479248,0,0
1881.792001,-0.809906005859375,0.030670166015625,0.04620361328125,0.583892822265625,-0.30517578125,0.48828125,0.06103515625,0.1112060546875,0.0064697265625,0.99658203125,-305.0,87.0,-4.0,101942.0,-5.124000072479248,0,0
1881.799018,-0.809906005859375,0.030670166015625,0.04620361328125,0.583892822265625,0.06103515625,0.1220703125,0.18310546875,0.1136474609375,0.0045166015625,0.9976806640625,-305.0,87.0,-4.0,101942.0,-5.124000072479248,0,0
1881.805999,-0.809906005859375,0.030670166015625,0.04620361328125,0.583892822265625,0.06103515625,0.18310546875,0.1220703125,0.1134033203125,0.0035400390625,0.997314453125,-305.0,87.0,-4.0,101942.0,-5.124000072479248,0,0
1881.812999,-0.809906005859375,0.030670166015625,0.04620361328125,0.583892822265625,-0.244140625,0.30517578125,-0.06103515625,0.112548828125,0.0032958984375,0.9974365234375,-305.0,87.0,-4.0,101942.0,-5.124000072479248,0,0
1881.834018,-0.809906005859375,0.03070068359375,0.04620361328125,0.583892822265625,0.0,0.3662109375,0.06103515625,0.1112060546875,0.003662109375,0.997802734375,-305.0,87.0,-4.0,101942.0,-5.124000072479248,0,0
1881.840996,-0.809906005859375,0.03070068359375,0.04620361328125,0.583892822265625,-0.1220703125,0.244140625,-0.18310546875,0.113525390625,0.0032958984375,0.996826171875,-305.0,87.0,-4.0,101942.0,-5.124000072479248,0,0
1881.847996,-0.809906005859375,0.03070068359375,0.04620361328125,0.583892822265625,-0.06103515625,0.3662109375,0.18310546875,0.1104736328125,0.003662109375,0.99658203125,-305.0,87.0,-4.0,101942.0,-5.124000072479248,0,0
1881.855021,-0.809906005859375,0.03070068359375,0.04620361328125,0.583892822265625,0.0,0.18310546875,-0.18310546875,0.110107421875,0.0025634765625,0.9949951171875,-305.0,87.0,-4.0,101942.0,-5.124000072479248,0,0
1881.862001,-0.809906005859375,0.03070068359375,0.04620361328125,0.583892822265625,0.1220703125,0.3662109375,-0.18310546875,0.1114501953125,0.0052490234375,0.9970703125,-305.0,85.0,-4.0,101942.0,-5.124000072479248,0,0
1881.868037,-0.809906005859375,0.03070068359375,0.04620361328125,0.583892822265625,0.1220703125,0.3662109375,-0.18310546875,0.1114501953125,0.0052490234375,0.9970703125,-305.0,85.0,-4.0,101942.0,-5.124000072479248,0,0
1881.875017,-0.80926513671875,0.030731201171875,0.046173095703125,0.58477783203125,0.18310546875,0.06103515625,-0.06103515625,0.1116943359375,0.00439453125,0.997314453125,-305.0,85.0,-4.0,101942.0,-5.124000072479248,0,0
1881.882001,-0.80926513671875,0.030731201171875,0.046173095703125,0.58477783203125,0.1220703125,0.18310546875,-0.1220703125,0.10986328125,0.0037841796875,0.998291015625,-305.0,85.0,-4.0,101942.0,-5.124000072479248,0,0
1881.889018,-0.80926513671875,0.030731201171875,0.046173095703125,0.58477783203125,0.1220703125,0.42724609375,0.0,0.111572265625,0.0037841796875,0.9981689453125,-305.0,85.0,-4.0,101942.0,-5.124000072479248,0,0
1881.895995,-0.80926513671875,0.030731201171875,0.046173095703125,0.58477783203125,0.18310546875,0.30517578125,0.0,0.1107177734375,0.00390625,0.9986572265625,-305.0,85.0,-4.0,101942.0,-5.124000072479248,0,0
1881.902994,-0.80926513671875,0.030731201171875,0.046173095703125,0.58477783203125,-0.1220703125,0.48828125,-0.244140625,0.111328125,0.00439453125,0.9969482421875,-305.0,85.0,-4.0,101942.0,-5.124000072479248,0,0
1881.910019,-0.80926513671875,0.030731201171875,0.046173095703125,0.58477783203125,0.0,0.1220703125,0.06103515625,0.11083984375,0.005126953125,0.9970703125,-305.0,85.0,-4.0,101942.0,-5.124000072479248,0,0
1881.916998,-0.80926513671875,0.030731201171875,0.046173095703125,0.58477783203125,0.06103515625,0.3662109375,0.06103515625,0.1103515625,0.0037841796875,0.9969482421875,-305.0,85.0,-4.0,101942.0,-5.124000072479248,0,0
1881.924018,-0.80926513671875,0.030731201171875,0.046173095703125,0.58477783203125,-0.06103515625,0.18310546875,-0.06103515625,0.1109619140625,0.00537109375,0.9984130859375,-305.0,85.0,-4.0,101942.0,-5.124000072479248,0,0
1881.930996,-0.80926513671875,0.030731201171875,0.046173095703125,0.58477783203125,0.18310546875,0.18310546875,0.0,0.110595703125,0.0052490234375,0.997314453125,-305.0,85.0,-4.0,101942.0,-5.124000072479248,0,0
1881.937996,-0.80926513671875,0.030731201171875,0.046173095703125,0.58477783203125,-0.1220703125,0.06103515625,0.0,0.1109619140625,0.0040283203125,0.9990234375,-305.0,85.0,-4.0,101942.0,-5.124000072479248,0,0
1881.945021,-0.80926513671875,0.03070068359375,0.046173095703125,0.58477783203125,-0.1220703125,0.18310546875,-0.06103515625,0.1114501953125,0.005126953125,0.997802734375,-305.0,85.0,-4.0,101942.0,-5.124000072479248,0,0
1881.952001,-0.80926513671875,0.03070068359375,0.04620361328125,0.58477783203125,0.1220703125,0.3662109375,0.06103515625,0.111083984375,0.0052490234375,0.9967041015625,-305.0,85.0,-4.0,101942.0,-5.124000072479248,0,0
1881.959015,-0.80926513671875,0.03070068359375,0.04620361328125,0.58477783203125,0.1220703125,0.42724609375,-0.1220703125,0.1123046875,0.0052490234375,0.9967041015625,-305.0,86.0,-4.0,101942.0,-5.124000072479248,0,0
1881.965047,-0.80926513671875,0.03070068359375,0.04620361328125,0.58477783203125,0.1220703125,0.42724609375,-0.1220703125,0.1123046875,0.0052490234375,0.9967041015625,-305.0,86.0,-4.0,101942.0,-5.124000072479248,0,0
1881.972001,-0.808746337890625,0.030731201171875,0.046173095703125,0.58551025390625,0.0,0.3662109375,0.0,0.11181640625,0.003662109375,0.995849609375,-305.0,86.0,-4.0,101942.0,-5.124000072479248,0,0
1881.979018,-0.808746337890625,0.030731201171875,0.046173095703125,0.58551025390625,0.0,0.30517578125,-0.1220703125,0.1109619140625,0.0045166015625,0.996826171875,-305.0,86.0,-4.0,101942.0,-5.124000072479248,0,0
1881.985995,-0.808746337890625,0.030731201171875,0.046173095703125,0.58551025390625,0.0,0.1220703125,0.0,0.1121826171875,0.0029296875,0.997314453125,-305.0,86.0,-4.0,101942.0,-5.124000072479248,0,0
1882.006998,-0.808746337890625,0.030731201171875,0.046173095703125,0.58551025390625,-0.06103515625,0.244140625,0.3662109375,0.114013671875,0.0050048828125,0.99609375,-305.0,86.0,-4.0,101942.0,-5.124000072479248,0,0
1882.014018,-0.808746337890625,0.030731201171875,0.046173095703125,0.58551025390625,-0.06103515625,0.3662109375,0.0,0.1112060546875,0.005615234375,0.99609375,-305.0,86.0,-4.0,101942.0,-5.124000072479248,0,0
1882.020996,-0.808746337890625,0.030731201171875,0.046173095703125,0.58551025390625,-0.18310546875,0.18310546875,0.06103515625,0.1092529296875,0.005859375,0.99755859375,-305.0,86.0,-4.0,101942.0,-5.124000072479248,0,0
1882.027996,-0.808746337890625,0.030731201171875,0.046173095703125,0.58551025390625,-0.1220703125,0.1220703125,0.06103515625,0.1114501953125,0.0059814453125,0.9971923828125,-305.0,86.0,-4.0,101942.0,-5.124000072479248,0,0
1882.035021,-0.808746337890625,0.030731201171875,0.046173095703125,0.58551025390625,0.1220703125,0.18310546875,-0.1220703125,0.10888671875,0.0032958984375,0.997314453125,-305.0,86.0,-4.0,101942.0,-5.124000072479248,0,0
1882.042001,-0.808746337890625,0.030731201171875,0.046173095703125,0.58551025390625,0.0,0.3662109375,0.0,0.109130859375,0.0074462890625,0.9974365234375,-305.0,86.0,-4.0,101942.0,-5.124000072479248,0,0
1882.049015,-0.808746337890625,0.030731201171875,0.046173095703125,0.58551025390625,-0.06103515625,0.3662109375,-0.18310546875,0.1104736328125,0.004638671875,0.9957275390625,-305.0,86.0,-4.0,101942.0,-5.124000072479248,0,0
1882.055047,-0.808746337890625,0.030731201171875,0.046173095703125,0.58551025390625,-0.06103515625,0.3662109375,-0.18310546875,0.1104736328125,0.004638671875,0.9957275390625,-305.0,86.0,-4.0,101942.0,-5.124000072479248,0,0
1882.062001,-0.808746337890625,0.030731201171875,0.046173095703125,0.58551025390625,-0.06103515625,0.30517578125,0.06103515625,0.110595703125,0.0025634765625,0.9970703125,-306.0,87.0,-4.0,101942.0,-5.124000072479248,0,0
1882.069018,-0.8082275390625,0.03076171875,0.046142578125,0.586212158203125,0.0,0.3662109375,0.18310546875,0.1104736328125,0.00732421875,0.9967041015625,-306.0,87.0,-4.0,101942.0,-5.124000072479248,0,0
1882.075995,-0.8082275390625,0.03076171875,0.046142578125,0.586212158203125,-0.1220703125,0.18310546875,-0.1220703125,0.111572265625,0.0037841796875,0.9981689453125,-306.0,87.0,-4.0,101942.0,-5.124000072479248,0,0
1882.096998,-0.8082275390625,0.03076171875,0.046142578125,0.586212158203125,0.0,0.48828125,-0.06103515625,0.1112060546875,0.0047607421875,0.998291015625,-306.0,87.0,-4.0,101942.0,-5.124000072479248,0,0
1882.104018,-0.8082275390625,0.03076171875,0.046173095703125,0.586212158203125,0.1220703125,0.67138671875,0.06103515625,0.114013671875,0.005859375,0.9981689453125,-306.0,87.0,-4.0,101942.0,-5.124000072479248,0,0
1882.110996,-0.8082275390625,0.03076171875,0.046173095703125,0.586212158203125,0.1220703125,0.67138671875,0.06103515625,0.114013671875,0.005859375,0.9981689453125,-306.0,87.0,-4.0,101942.0,-5.125000476837158,0,0
1882.117996,-0.8082275390625,0.03076171875,0.046142578125,0.586212158203125,-0.1220703125,0.06103515625,0.1220703125,0.1094970703125,0.00390625,0.99609375,-306.0,87.0,-4.0,101942.0,-5.125000476837158,0,0
1882.125021,-0.8082275390625,0.03076171875,0.046142578125,0.586212158203125,0.06103515625,0.3662109375,-0.244140625,0.1109619140625,0.0040283203125,0.9976806640625,-306.0,87.0,-4.0,101942.0,-5.125000476837158,0,0
1882.132001,-0.8082275390625,0.03076171875,0.046142578125,0.586212158203125,-0.06103515625,0.3662109375,0.06103515625,0.1109619140625,0.0076904296875,0.9976806640625,-306.0,87.0,-4.0,101942.0,-5.125000476837158,0,0
1882.139015,-0.8082275390625,0.03076171875,0.046173095703125,0.586212158203125,-0.06103515625,0.1220703125,0.18310546875,0.112060546875,0.00439453125,0.9952392578125,-306.0,87.0,-4.0,101942.0,-5.125000476837158,0,0
1882.145999,-0.8082275390625,0.03076171875,0.046142578125,0.586212158203125,-0.1220703125,0.3662109375,0.18310546875,0.111328125,0.006591796875,0.998779296875,-306.0,87.0,-4.0,101942.0,-5.125000476837158,0,0
1882.152032,-0.8082275390625,0.03076171875,0.046142578125,0.586212158203125,-0.1220703125,0.3662109375,0.18310546875,0.111328125,0.006591796875,0.998779296875,-306.0,87.0,-4.0,101942.0,-5.125000476837158,0,0
1882.159018,-0.8082275390625,0.03076171875,0.046142578125,0.586212158203125,0.1220703125,0.18310546875,0.18310546875,0.1102294921875,0.004150390625,0.99560546875,-306.0,87.0,-4.0,101942.0,-5.125000476837158,0,0
1882.165999,-0.80767822265625,0.030792236328125,0.046112060546875,0.58697509765625,-0.1220703125,0.244140625,-0.06103515625,0.109375,0.0057373046875,0.9970703125,-306.0,85.0,-3.0,101942.0,-5.125000476837158,0,0
1882.172999,-0.80767822265625,0.030792236328125,0.046112060546875,0.58697509765625,0.0,0.244140625,0.18310546875,0.1107177734375,0.004150390625,0.997802734375,-306.0,85.0,-3.0,101942.0,-5.125000476837158,0,0
1882.18002,-0.80767822265625,0.030792236328125,0.046112060546875,0.58697509765625,-0.06103515625,0.30517578125,0.06103515625,0.1104736328125,0.00537109375,0.9976806640625,-306.0,85.0,-3.0,101942.0,-5.125000476837158,0,0
1882.186998,-0.80767822265625,0.030792236328125,0.046142578125,0.58697509765625,0.1220703125,0.30517578125,0.244140625,0.1119384765625,0.0057373046875,0.9954833984375,-306.0,85.0,-3.0,101942.0,-5.125000476837158,0,0
1882.194018,-0.80767822265625,0.030792236328125,0.046142578125,0.58697509765625,-0.06103515625,0.06103515625,0.18310546875,0.1099853515625,0.0050048828125,0.9954833984375,-306.0,85.0,-3.0,101942.0,-5.125000476837158,0,0
1882.200996,-0.80767822265625,0.030792236328125,0.046142578125,0.58697509765625,0.06103515625,0.42724609375,0.18310546875,0.111328125,0.00537109375,0.9971923828125,-306.0,85.0,-3.0,101942.0,-5.125000476837158,0,0
1882.207996,-0.80767822265625,0.030792236328125,0.046142578125,0.58697509765625,0.0,0.3662109375,0.1220703125,0.1099853515625,0.0052490234375,0.9964599609375,-306.0,85.0,-3.0,101942.0,-5.125000476837158,0,0
1882.215021,-0.80767822265625,0.030792236328125,0.046142578125,0.58697509765625,0.18310546875,0.30517578125,-0.06103515625,0.109619140625,0.0025634765625,0.9990234375,-306.0,85.0,-3.0,101942.0,-5.124000072479248,0,0
1882.222001,-0.80767822265625,0.030792236328125,0.046142578125,0.58697509765625,-0.1220703125,0.18310546875,0.06103515625,0.111083984375,0.0035400390625,0.9971923828125,-306.0,85.0,-3.0,101942.0,-5.124000072479248,0,0
1882.229015,-0.80767822265625,0.030792236328125,0.046142578125,0.58697509765625,0.06103515625,0.18310546875,0.1220703125,0.1099853515625,0.004150390625,0.9976806640625,-306.0,85.0,-3.0,101942.0,-5.124000072479248,0,0
1882.235994,-0.80767822265625,0.030792236328125,0.046142578125,0.58697509765625,0.18310546875,0.244140625,0.0,0.1112060546875,0.00341796875,0.9969482421875,-306.0,85.0,-3.0,101942.0,-5.124000072479248,0,0
1882.242026,-0.80767822265625,0.030792236328125,0.046142578125,0.58697509765625,0.18310546875,0.244140625,0.0,0.1112060546875,0.00341796875,0.9969482421875,-306.0,85.0,-3.0,101942.0,-5.124000072479248,0,0
1882.249018,-0.80767822265625,0.030792236328125,0.046112060546875,0.58697509765625,0.0,0.244140625,-0.1220703125,0.1099853515625,0.006103515625,0.9971923828125,-306.0,85.0,-3.0,101942.0,-5.124000072479248,0,0
1882.270019,-0.80712890625,0.03082275390625,0.046112060546875,0.587738037109375,-0.18310546875,0.1220703125,-0.06103515625,0.11083984375,0.005859375,0.998291015625,-305.0,85.0,-3.0,101942.0,-5.124000072479248,0,0
1882.276998,-0.80712890625,0.03082275390625,0.046112060546875,0.587738037109375,0.1220703125,0.1220703125,0.06103515625,0.111572265625,0.0054931640625,0.9981689453125,-305.0,85.0,-3.0,101942.0,-5.124000072479248,0,0
1882.284018,-0.80712890625,0.03082275390625,0.046112060546875,0.587738037109375,0.18310546875,0.30517578125,0.06103515625,0.109130859375,0.002685546875,0.9969482421875,-305.0,85.0,-3.0,101942.0,-5.124000072479248,0,0
1882.290996,-0.80712890625,0.030792236328125,0.046112060546875,0.587738037109375,0.1220703125,0.1220703125,0.1220703125,0.1104736328125,0.004150390625,0.9986572265625,-305.0,85.0,-3.0,101942.0,-5.124000072479248,0,0
1882.297996,-0.80712890625,0.030792236328125,0.046112060546875,0.587738037109375,-0.06103515625,0.18310546875,0.0,0.110595703125,0.0047607421875,0.9990234375,-305.0,85.0,-3.0,101942.0,-5.124000072479248,0,0
1882.305021,-0.80712890625,0.030792236328125,0.046112060546875,0.587738037109375,0.0,0.244140625,0.244140625,0.1102294921875,0.00244140625,0.9981689453125,-305.0,85.0,-3.0,101942.0,-5.124000072479248,0,0
1882.312001,-0.80712890625,0.030792236328125,0.046112060546875,0.587738037109375,0.06103515625,0.48828125,0.06103515625,0.1114501953125,0.00634765625,0.9971923828125,-305.0,85.0,-3.0,101942.0,-5.12600040435791,0,0
1882.319015,-0.80712890625,0.030792236328125,0.046112060546875,0.587738037109375,-0.244140625,0.06103515625,0.30517578125,0.111083984375,0.004150390625,0.99658203125,-305.0,85.0,-3.0,101942.0,-5.12600040435791,0,0
1882.325994,-0.80712890625,0.030792236328125,0.046112060546875,0.587738037109375,-0.18310546875,0.18310546875,0.06103515625,0.11328125,0.0042724609375,0.996826171875,-305.0,85.0,-3.0,101942.0,-5.12600040435791,0,0
1882.332998,-0.80712890625,0.030792236328125,0.046112060546875,0.587738037109375,0.0,0.30517578125,0.06103515625,0.1092529296875,0.0062255859375,0.9969482421875,-305.0,85.0,-3.0,101942.0,-5.12600040435791,0,0
1882.339026,-0.80712890625,0.030792236328125,0.046112060546875,0.587738037109375,0.0,0.30517578125,0.06103515625,0.1092529296875,0.0062255859375,0.9969482421875,-305.0,85.0,-3.0,101942.0,-5.12600040435791,0,0
1882.360019,-0.80712890625,0.030792236328125,0.046112060546875,0.587738037109375,-0.18310546875,0.30517578125,-0.06103515625,0.112060546875,0.0042724609375,0.9957275390625,-305.0,85.0,-3.0,101942.0,-5.12600040435791,0,0
1882.366998,-0.806640625,0.03082275390625,0.046112060546875,0.58837890625,-0.3662109375,0.67138671875,-0.1220703125,0.114990234375,0.00439453125,0.99755859375,-304.0,85.0,-3.0,101942.0,-5.12600040435791,0,0
1882.374018,-0.806640625,0.03082275390625,0.046112060546875,0.58837890625,-0.1220703125,0.42724609375,0.06103515625,0.1094970703125,0.004638671875,0.998291015625,-304.0,85.0,-3.0,101942.0,-5.12600040435791,0,0
1882.380996,-0.806640625,0.03082275390625,0.046112060546875,0.58837890625,-0.06103515625,0.3662109375,0.0,0.113037109375,0.0018310546875,0.996337890625,-304.0,85.0,-3.0,101942.0,-5.12600040435791,0,0
1882.387996,-0.806640625,0.03082275390625,0.04608154296875,0.58837890625,0.0,0.1220703125,-0.1220703125,0.1119384765625,0.0052490234375,0.996337890625,-304.0,85.0,-3.0,101942.0,-5.12600040435791,0,0
1882.395021,-0.806640625,0.03082275390625,0.04608154296875,0.58837890625,-0.1220703125,0.18310546875,-0.244140625,0.1097412109375,0.0037841796875,0.9959716796875,-304.0,85.0,-3.0,101942.0,-5.12600040435791,0,0
1882.402001,-0.806640625,0.03082275390625,0.04608154296875,0.58837890625,-0.06103515625,0.42724609375,0.06103515625,0.111083984375,0.0040283203125,0.9970703125,-304.0,85.0,-3.0,101942.0,-5.12600040435791,0,0
1882.409015,-0.806640625,0.03082275390625,0.04608154296875,0.58837890625,0.1220703125,0.1220703125,0.244140625,0.1103515625,0.005126953125,0.998291015625,-304.0,85.0,-3.0,101942.0,-5.124000072479248,0,0
1882.415999,-0.806640625,0.03082275390625,0.04608154296875,0.58837890625,0.30517578125,0.18310546875,0.30517578125,0.111328125,0.00439453125,0.997802734375,-304.0,85.0,-3.0,101942.0,-5.124000072479248,0,0
1882.422998,-0.806640625,0.03082275390625,0.04608154296875,0.58837890625,-0.06103515625,0.244140625,0.1220703125,0.10986328125,0.00390625,0.99609375,-304.0,85.0,-3.0,101942.0,-5.124000072479248,0,0
1882.429031,-0.806640625,0.03082275390625,0.04608154296875,0.58837890625,-0.06103515625,0.244140625,0.1220703125,0.10986328125,0.00390625,0.99609375,-304.0,85.0,-3.0,101942.0,-5.124000072479248,0,0
1882.435999,-0.806640625,0.03082275390625,0.04608154296875,0.58837890625,0.0,0.3662109375,-0.1220703125,0.110595703125,0.0054931640625,0.996826171875,-304.0,85.0,-3.0,101942.0,-5.124000072479248,0,0
1882.442999,-0.806640625,0.03082275390625,0.04608154296875,0.58837890625,-0.06103515625,0.3662109375,0.0,0.109619140625,0.0045166015625,0.9976806640625,-304.0,85.0,-3.0,101942.0,-5.124000072479248,0,0
1882.45002,-0.806640625,0.03082275390625,0.04608154296875,0.58837890625,0.244140625,0.0,0.06103515625,0.1114501953125,0.0045166015625,0.998046875,-304.0,85.0,-3.0,101942.0,-5.124000072479248,0,0
1882.456998,-0.806640625,0.03082275390625,0.04608154296875,0.58837890625,0.0,0.18310546875,-0.1220703125,0.112548828125,0.0040283203125,0.997314453125,-304.0,85.0,-3.0,101942.0,-5.124000072479248,0,0
1882.464018,-0.806182861328125,0.030853271484375,0.046051025390625,0.589019775390625,-0.1220703125,0.3662109375,0.1220703125,0.1119384765625,0.0050048828125,0.99658203125,-305.0,85.0,-4.0,101942.0,-5.124000072479248,0,0
1882.470996,-0.806182861328125,0.030853271484375,0.046051025390625,0.589019775390625,0.06103515625,0.1220703125,0.18310546875,0.11083984375,0.0050048828125,0.9971923828125,-305.0,85.0,-4.0,101942.0,-5.124000072479248,0,0
1882.477996,-0.806182861328125,0.030853271484375,0.046051025390625,0.589019775390625,-0.244140625,0.244140625,0.1220703125,0.1090087890625,0.00341796875,0.99755859375,-305.0,85.0,-4.0,101942.0,-5.124000072479248,0,0
1882.485021,-0.806182861328125,0.030853271484375,0.046051025390625,0.589019775390625,0.06103515625,0.30517578125,-0.06103515625,0.1119384765625,0.005615234375,0.99658203125,-305.0,85.0,-4.0,101942.0,-5.124000072479248,0,0
1882.492001,-0.806182861328125,0.030853271484375,0.04608154296875,0.589019775390625,0.06103515625,0.244140625,-0.1220703125,0.1119384765625,0.0064697265625,0.9969482421875,-305.0,85.0,-4.0,101942.0,-5.124000072479248,0,0
1882.499015,-0.806182861328125,0.030853271484375,0.046051025390625,0.589019775390625,-0.06103515625,0.3662109375,0.1220703125,0.1099853515625,0.00341796875,0.997314453125,-305.0,85.0,-4.0,101942.0,-5.124000072479248,0,0
1882.505994,-0.806182861328125,0.030853271484375,0.046051025390625,0.589019775390625,0.18310546875,0.54931640625,-0.06103515625,0.109619140625,0.0029296875,0.9962158203125,-305.0,85.0,-4.0,101942.0,-5.12600040435791,0,0
1882.512998,-0.806182861328125,0.030853271484375,0.046051025390625,0.589019775390625,0.0,0.244140625,0.18310546875,0.111328125,0.0023193359375,0.9971923828125,-305.0,85.0,-4.0,101942.0,-5.12600040435791,0,0
1882.532994,-0.806182861328125,0.030853271484375,0.046051025390625,0.589019775390625,0.06103515625,0.30517578125,0.1220703125,0.11181640625,0.0057373046875,0.9952392578125,-305.0,85.0,-4.0,101942.0,-5.12600040435791,0,0
1882.540019,-0.806182861328125,0.030853271484375,0.046051025390625,0.589019775390625,-0.06103515625,0.1220703125,0.06103515625,0.1102294921875,0.0067138671875,0.998291015625,-305.0,85.0,-4.0,101942.0,-5.12600040435791,0,0
1882.546998,-0.806182861328125,0.030853271484375,0.046051025390625,0.589019775390625,0.0,0.3662109375,0.0,0.109619140625,0.0048828125,0.9957275390625,-305.0,85.0,-4.0,101942.0,-5.12600040435791,0,0
1882.554018,-0.806182861328125,0.030853271484375,0.046051025390625,0.589019775390625,-0.18310546875,0.18310546875,0.1220703125,0.1126708984375,0.0029296875,0.9970703125,-305.0,85.0,-4.0,101942.0,-5.12600040435791,0,0
1882.560996,-0.806182861328125,0.030853271484375,0.046051025390625,0.589019775390625,-0.06103515625,0.42724609375,-0.1220703125,0.1099853515625,0.004638671875,0.998291015625,-304.0,87.0,-3.0,101942.0,-5.12600040435791,0,0
1882.567996,-0.80584716796875,0.0308837890625,0.0460205078125,0.5894775390625,0.0,0.48828125,0.18310546875,0.109130859375,0.007080078125,0.996337890625,-304.0,87.0,-3.0,101942.0,-5.12600040435791,0,0
1882.575021,-0.80584716796875,0.0308837890625,0.0460205078125,0.5894775390625,0.1220703125,0.1220703125,0.0,0.1102294921875,0.0028076171875,0.99658203125,-304.0,87.0,-3.0,101942.0,-5.12600040435791,0,0
1882.582001,-0.80584716796875,0.0308837890625,0.046051025390625,0.5894775390625,-0.06103515625,0.244140625,0.1220703125,0.1126708984375,0.004150390625,0.9969482421875,-304.0,87.0,-3.0,101942.0,-5.12600040435791,0,0
1882.589015,-0.80584716796875,0.0308837890625,0.0460205078125,0.5894775390625,0.244140625,0.06103515625,0.18310546875,0.1092529296875,0.005615234375,0.997802734375,-304.0,87.0,-3.0,101942.0,-5.12600040435791,0,0
1882.595994,-0.80584716796875,0.030853271484375,0.0460205078125,0.5894775390625,0.06103515625,0.18310546875,0.18310546875,0.1094970703125,0.00634765625,0.9962158203125,-304.0,87.0,-3.0,101942.0,-5.12600040435791,0,0
1882.602998,-0.80584716796875,0.0308837890625,0.0460205078125,0.5894775390625,0.0,0.244140625,-0.18310546875,0.112548828125,0.0032958984375,0.9954833984375,-304.0,87.0,-3.0,101942.0,-5.12600040435791,0,0
1882.622994,-0.80584716796875,0.0308837890625,0.046051025390625,0.5894775390625,-0.06103515625,-0.1220703125,0.1220703125,0.112060546875,0.0045166015625,0.995361328125,-304.0,87.0,-3.0,101942.0,-5.124000072479248,0,0
1882.630019,-0.80584716796875,0.0308837890625,0.046051025390625,0.5894775390625,-0.06103515625,0.244140625,0.0,0.1114501953125,0.00537109375,0.9984130859375,-304.0,87.0,-3.0,101942.0,-5.124000072479248,0,0
1882.636998,-0.80584716796875,0.0308837890625,0.046051025390625,0.5894775390625,-0.06103515625,0.244140625,-0.06103515625,0.1083984375,0.0050048828125,0.9984130859375,-304.0,87.0,-3.0,101942.0,-5.124000072479248,0,0
1882.644018,-0.80584716796875,0.0308837890625,0.046051025390625,0.5894775390625,-0.06103515625,0.54931640625,-0.06103515625,0.1123046875,0.0057373046875,0.999267578125,-304.0,87.0,-3.0,101942.0,-5.124000072479248,0,0
1882.650996,-0.80584716796875,0.0308837890625,0.046051025390625,0.5894775390625,-0.06103515625,0.1220703125,0.0,0.112548828125,0.0018310546875,0.9976806640625,-304.0,87.0,-3.0,101942.0,-5.124000072479248,0,0
1882.657996,-0.80584716796875,0.0308837890625,0.046051025390625,0.5894775390625,0.244140625,0.1220703125,0.06103515625,0.1103515625,0.004150390625,0.9971923828125,-304.0,86.0,-3.0,101942.0,-5.124000072479248,0,0
1882.665021,-0.80548095703125,0.0308837890625,0.0460205078125,0.589996337890625,0.0,0.1220703125,0.06103515625,0.1112060546875,0.0048828125,0.9974365234375,-304.0,86.0,-3.0,101942.0,-5.124000072479248,0,0
1882.672001,-0.80548095703125,0.0308837890625,0.0460205078125,0.589996337890625,0.18310546875,0.30517578125,0.1220703125,0.110595703125,0.0047607421875,0.9976806640625,-304.0,86.0,-3.0,101942.0,-5.124000072479248,0,0
1882.679015,-0.80548095703125,0.0308837890625,0.0460205078125,0.589996337890625,-0.1220703125,0.30517578125,0.06103515625,0.112548828125,0.005126953125,0.9969482421875,-304.0,86.0,-3.0,101942.0,-5.124000072479248,0,0
1882.685995,-0.80548095703125,0.0308837890625,0.0460205078125,0.589996337890625,0.0,0.1220703125,0.1220703125,0.109130859375,0.0059814453125,0.9962158203125,-304.0,86.0,-3.0,101942.0,-5.124000072479248,0,0
1882.692998,-0.80548095703125,0.0308837890625,0.0460205078125,0.589996337890625,0.1220703125,0.244140625,-0.06103515625,0.1114501953125,0.0040283203125,0.9971923828125,-304.0,86.0,-3.0,101942.0,-5.124000072479248,0,0
1882.700023,-0.80548095703125,0.0308837890625,0.0460205078125,0.589996337890625,-0.18310546875,0.48828125,0.06103515625,0.111572265625,0.004638671875,0.997314453125,-304.0,86.0,-3.0,101942.0,-5.124000072479248,0,0
1882.707002,-0.80548095703125,0.0308837890625,0.0460205078125,0.589996337890625,-0.1220703125,0.1220703125,0.1220703125,0.111083984375,0.004150390625,0.9969482421875,-304.0,86.0,-3.0,101942.0,-5.125000476837158,0,0
1882.713035,-0.80548095703125,0.0308837890625,0.0460205078125,0.589996337890625,-0.1220703125,0.1220703125,0.1220703125,0.111083984375,0.004150390625,0.9969482421875,-304.0,86.0,-3.0,101942.0,-5.125000476837158,0,0
1882.72002,-0.80548095703125,0.0308837890625,0.0460205078125,0.589996337890625,-0.06103515625,0.18310546875,-0.1220703125,0.1109619140625,0.0064697265625,0.99658203125,-304.0,86.0,-3.0,101942.0,-5.125000476837158,0,0
1882.726998,-0.80548095703125,0.0308837890625,0.0460205078125,0.589996337890625,0.1220703125,0.42724609375,0.244140625,0.1102294921875,0.0032958984375,0.99658203125,-304.0,86.0,-3.0,101942.0,-5.125000476837158,0,0
1882.734018,-0.80548095703125,0.0308837890625,0.0460205078125,0.589996337890625,-0.1220703125,0.18310546875,0.06103515625,0.10986328125,0.0042724609375,0.9974365234375,-304.0,86.0,-3.0,101942.0,-5.125000476837158,0,0
1882.740996,-0.80548095703125,0.0308837890625,0.0460205078125,0.589996337890625,0.244140625,0.18310546875,-0.1220703125,0.1124267578125,0.0052490234375,0.997314453125,-304.0,86.0,-3.0,101942.0,-5.125000476837158,0,0
1882.747996,-0.80548095703125,0.0308837890625,0.0460205078125,0.589996337890625,-0.18310546875,0.42724609375,0.0,0.1126708984375,0.0050048828125,0.9976806640625,-304.0,86.0,-3.0,101942.0,-5.125000476837158,0,0
1882.755021,-0.80548095703125,0.0308837890625,0.0460205078125,0.589996337890625,0.06103515625,0.18310546875,0.1220703125,0.1103515625,0.00390625,0.9991455078125,-304.0,86.0,-3.0,101942.0,-5.125000476837158,0,0
1882.762001,-0.80548095703125,0.0308837890625,0.045989990234375,0.589996337890625,0.06103515625,0.244140625,-0.244140625,0.1077880859375,0.0045166015625,0.9970703125,-304.0,88.0,-4.0,101942.0,-5.125000476837158,0,0
1882.769015,-0.805206298828125,0.0308837890625,0.045989990234375,0.590362548828125,-0.06103515625,0.18310546875,-0.06103515625,0.1112060546875,0.005126953125,0.9984130859375,-304.0,88.0,-4.0,101942.0,-5.125000476837158,0,0
1882.775999,-0.805206298828125,0.0308837890625,0.045989990234375,0.590362548828125,0.18310546875,0.30517578125,0.1220703125,0.1094970703125,0.0072021484375,0.995849609375,-304.0,88.0,-4.0,101942.0,-5.125000476837158,0,0
1882.797002,-0.805206298828125,0.0308837890625,0.045989990234375,0.590362548828125,-0.18310546875,0.06103515625,0.06103515625,0.1107177734375,0.0040283203125,0.996826171875,-304.0,88.0,-4.0,101942.0,-5.125000476837158,0,0
1882.80303,-0.805206298828125,0.0308837890625,0.045989990234375,0.590362548828125,-0.18310546875,0.06103515625,0.06103515625,0.1107177734375,0.0040283203125,0.996826171875,-304.0,88.0,-4.0,101942.0,-5.125000476837158,0,0
1882.810019,-0.805206298828125,0.0308837890625,0.045989990234375,0.590362548828125,0.18310546875,0.1220703125,-0.06103515625,0.111328125,0.005126953125,0.99853515625,-304.0,88.0,-4.0,101942.0,-5.124000072479248,0,0
1882.816998,-0.805206298828125,0.0308837890625,0.045989990234375,0.590362548828125,0.06103515625,0.18310546875,-0.1220703125,0.111328125,0.005126953125,0.9974365234375,-304.0,88.0,-4.0,101942.0,-5.124000072479248,0,0
1882.824018,-0.805206298828125,0.0308837890625,0.045989990234375,0.590362548828125,0.244140625,0.30517578125,0.06103515625,0.111572265625,0.00439453125,0.998291015625,-304.0,88.0,-4.0,101942.0,-5.124000072479248,0,0
1882.830996,-0.805206298828125,0.0308837890625,0.045989990234375,0.590362548828125,-0.06103515625,0.18310546875,-0.18310546875,0.1104736328125,0.001953125,0.998046875,-304.0,88.0,-4.0,101942.0,-5.124000072479248,0,0
1882.837996,-0.805206298828125,0.0308837890625,0.04595947265625,0.590362548828125,0.1220703125,0.30517578125,-0.244140625,0.1099853515625,0.005615234375,0.9967041015625,-304.0,88.0,-4.0,101942.0,-5.124000072479248,0,0
1882.845021,-0.805206298828125,0.0308837890625,0.04595947265625,0.590362548828125,-0.1220703125,0.30517578125,-0.06103515625,0.1107177734375,0.0045166015625,0.9962158203125,-304.0,88.0,-4.0,101942.0,-5.124000072479248,0,0
1882.852001,-0.805206298828125,0.030853271484375,0.04595947265625,0.590362548828125,0.1220703125,0.42724609375,0.18310546875,0.1099853515625,0.0072021484375,0.996337890625,-304.0,88.0,-4.0,101942.0,-5.124000072479248,0,0
1882.859015,-0.805206298828125,0.0308837890625,0.04595947265625,0.590362548828125,-0.1220703125,0.30517578125,0.06103515625,0.111083984375,0.0029296875,0.998046875,-305.0,89.0,-3.0,101942.0,-5.124000072479248,0,0
1882.880018,-0.805023193359375,0.030914306640625,0.04595947265625,0.59063720703125,-0.244140625,0.1220703125,0.0,0.1090087890625,0.0047607421875,0.9976806640625,-305.0,89.0,-3.0,101942.0,-5.124000072479248,0,0
1882.887002,-0.805023193359375,0.030914306640625,0.04595947265625,0.59063720703125,-0.1220703125,0.06103515625,0.30517578125,0.111083984375,0.00390625,0.9981689453125,-305.0,89.0,-3.0,101942.0,-5.124000072479248,0,0
1882.89303,-0.805023193359375,0.030914306640625,0.04595947265625,0.59063720703125,-0.1220703125,0.06103515625,0.30517578125,0.111083984375,0.00390625,0.9981689453125,-305.0,89.0,-3.0,101942.0,-5.124000072479248,0,0
1882.900019,-0.805023193359375,0.030914306640625,0.045928955078125,0.59063720703125,0.0,0.30517578125,0.0,0.11083984375,0.001953125,0.9949951171875,-305.0,89.0,-3.0,101942.0,-5.124000072479248,0,0
1882.906998,-0.805023193359375,0.030914306640625,0.045928955078125,0.59063720703125,0.18310546875,0.30517578125,0.0,0.1107177734375,0.0035400390625,0.996826171875,-305.0,89.0,-3.0,101942.0,-5.124000072479248,0,0
1882.914018,-0.805023193359375,0.030914306640625,0.045928955078125,0.59063720703125,-0.18310546875,0.1220703125,0.0,0.1092529296875,0.0020751953125,0.996826171875,-305.0,89.0,-3.0,101942.0,-5.124000072479248,0,0
1882.920996,-0.805023193359375,0.030914306640625,0.045928955078125,0.59063720703125,-0.18310546875,0.30517578125,0.0,0.1099853515625,0.0032958984375,0.9962158203125,-305.0,89.0,-3.0,101942.0,-5.124000072479248,0,0
1882.927996,-0.805023193359375,0.030914306640625,0.0458984375,0.59063720703125,-0.06103515625,0.18310546875,0.18310546875,0.1099853515625,0.004150390625,0.9974365234375,-305.0,89.0,-3.0,101942.0,-5.124000072479248,0,0
1882.935021,-0.805023193359375,0.030914306640625,0.0458984375,0.59063720703125,0.0,0.18310546875,0.0,0.110107421875,0.0048828125,0.99853515625,-305.0,89.0,-3.0,101942.0,-5.124000072479248,0,0
1882.942001,-0.805023193359375,0.030914306640625,0.0458984375,0.59063720703125,-0.1220703125,0.0,-0.244140625,0.1103515625,0.0057373046875,0.998779296875,-305.0,89.0,-3.0,101942.0,-5.124000072479248,0,0
1882.949015,-0.805023193359375,0.030914306640625,0.0458984375,0.59063720703125,0.30517578125,0.1220703125,-0.1220703125,0.1104736328125,0.002197265625,0.9959716796875,-305.0,89.0,-3.0,101942.0,-5.124000072479248,0,0
1882.955994,-0.805023193359375,0.0308837890625,0.0458984375,0.59063720703125,0.0,0.30517578125,0.1220703125,0.11083984375,0.005126953125,0.998291015625,-305.0,89.0,-3.0,101942.0,-5.124000072479248,0,0
1882.962998,-0.805023193359375,0.0308837890625,0.0458984375,0.59063720703125,-0.1220703125,0.18310546875,0.0,0.111328125,0.00390625,0.9967041015625,-305.0,89.0,-4.0,101942.0,-5.124000072479248,0,0
1882.970018,-0.804840087890625,0.030914306640625,0.0458984375,0.59088134765625,0.0,0.244140625,0.18310546875,0.111572265625,0.0037841796875,0.99658203125,-305.0,89.0,-4.0,101942.0,-5.124000072479248,0,0
1882.977002,-0.804840087890625,0.030914306640625,0.0458984375,0.59088134765625,0.0,0.18310546875,0.1220703125,0.1102294921875,0.00439453125,0.9993896484375,-305.0,89.0,-4.0,101942.0,-5.124000072479248,0,0
1882.984018,-0.804840087890625,0.030914306640625,0.0458984375,0.59088134765625,0.1220703125,0.42724609375,0.06103515625,0.1107177734375,0.0052490234375,0.998046875,-305.0,89.0,-4.0,101942.0,-5.124000072479248,0,0
1882.990049,-0.804840087890625,0.030914306640625,0.0458984375,0.59088134765625,0.1220703125,0.42724609375,0.06103515625,0.1107177734375,0.0052490234375,0.998046875,-305.0,89.0,-4.0,101942.0,-5.124000072479248,0,0
1882.996998,-0.804840087890625,0.030914306640625,0.0458984375,0.59088134765625,0.06103515625,0.30517578125,0.244140625,0.1112060546875,0.0047607421875,0.9967041015625,-305.0,89.0,-4.0,101942.0,-5.124000072479248,0,0
1883.004018,-0.804840087890625,0.030914306640625,0.0458984375,0.59088134765625,-0.18310546875,0.3662109375,0.0,0.110107421875,0.0052490234375,0.9971923828125,-305.0,89.0,-4.0,101942.0,-5.124000072479248,0,0
1883.010996,-0.804840087890625,0.030914306640625,0.0458984375,0.59088134765625,0.0,0.1220703125,-0.06103515625,0.1134033203125,0.005126953125,0.996337890625,-305.0,89.0,-4.0,101942.0,-5.12600040435791,0,0
1883.017996,-0.804840087890625,0.030914306640625,0.0458984375,0.59088134765625,-0.06103515625,0.06103515625,-0.1220703125,0.110107421875,0.0040283203125,0.9970703125,-305.0,89.0,-4.0,101942.0,-5.12600040435791,0,0
1883.025021,-0.804840087890625,0.030914306640625,0.0458984375,0.59088134765625,0.06103515625,0.244140625,-0.244140625,0.1103515625,0.0059814453125,1.0001220703125,-305.0,89.0,-4.0,101942.0,-5.12600040435791,0,0
1883.032001,-0.804840087890625,0.0308837890625,0.0458984375,0.59088134765625,-0.06103515625,0.30517578125,-0.1220703125,0.108154296875,0.00537109375,0.9962158203125,-305.0,89.0,-4.0,101942.0,-5.12600040435791,0,0
1883.039015,-0.804840087890625,0.030914306640625,0.0458984375,0.59088134765625,-0.06103515625,0.244140625,0.3662109375,0.112060546875,0.004638671875,0.9986572265625,-305.0,89.0,-4.0,101942.0,-5.12600040435791,0,0
1883.060023,-0.804840087890625,0.0308837890625,0.045928955078125,0.59088134765625,-0.18310546875,0.30517578125,-0.244140625,0.111328125,0.005859375,0.9969482421875,-305.0,88.0,-3.0,101942.0,-5.12600040435791,0,0
1883.067002,-0.804595947265625,0.030914306640625,0.0458984375,0.591217041015625,0.18310546875,0.18310546875,0.18310546875,0.111328125,0.00390625,0.9976806640625,-305.0,88.0,-3.0,101942.0,-5.12600040435791,0,0
1883.074018,-0.804595947265625,0.030914306640625,0.0458984375,0.591217041015625,-0.1220703125,0.3662109375,0.0,0.109619140625,0.004638671875,0.9967041015625,-305.0,88.0,-3.0,101942.0,-5.12600040435791,0,0
1883.080049,-0.804595947265625,0.030914306640625,0.0458984375,0.591217041015625,-0.1220703125,0.3662109375,0.0,0.109619140625,0.004638671875,0.9967041015625,-305.0,88.0,-3.0,101942.0,-5.12600040435791,0,0
1883.086998,-0.804595947265625,0.030914306640625,0.0458984375,0.591217041015625,0.06103515625,0.30517578125,-0.06103515625,0.1090087890625,0.001953125,0.9984130859375,-305.0,88.0,-3.0,101942.0,-5.12600040435791,0,0
1883.094018,-0.804595947265625,0.030914306640625,0.045867919921875,0.591217041015625,0.0,0.244140625,-0.06103515625,0.109619140625,0.0048828125,0.998779296875,-305.0,88.0,-3.0,101942.0,-5.12600040435791,0,0
1883.100996,-0.804595947265625,0.030914306640625,0.045867919921875,0.591217041015625,0.0,0.1220703125,0.0,0.109375,0.0057373046875,0.9971923828125,-305.0,88.0,-3.0,101942.0,-5.12600040435791,0,0
1883.107996,-0.804595947265625,0.030914306640625,0.045867919921875,0.591217041015625,0.06103515625,0.42724609375,0.06103515625,0.110595703125,0.004638671875,0.9969482421875,-305.0,88.0,-3.0,101941.0,-5.123000144958496,0,0
1883.115021,-0.804595947265625,0.030914306640625,0.0458984375,0.591217041015625,0.30517578125,0.30517578125,-0.1220703125,0.1121826171875,0.004638671875,0.998046875,-305.0,88.0,-3.0,101941.0,-5.123000144958496,0,0
1883.122001,-0.804595947265625,0.030914306640625,0.0458984375,0.591217041015625,-0.18310546875,0.30517578125,0.0,0.11181640625,0.0057373046875,0.998779296875,-305.0,88.0,-3.0,101941.0,-5.123000144958496,0,0
1883.142998,-0.804595947265625,0.030914306640625,0.0458984375,0.591217041015625,-0.42724609375,0.30517578125,0.0,0.110595703125,0.003173828125,0.99755859375,-305.0,88.0,-3.0,101941.0,-5.123000144958496,0,0
1883.150018,-0.804595947265625,0.030914306640625,0.0458984375,0.591217041015625,0.1220703125,0.3662109375,-0.06103515625,0.109375,0.0042724609375,0.9969482421875,-305.0,88.0,-3.0,101941.0,-5.123000144958496,0,0
1883.157002,-0.804595947265625,0.030914306640625,0.0458984375,0.591217041015625,0.18310546875,0.244140625,-0.1220703125,0.1104736328125,0.0040283203125,0.9969482421875,-305.0,88.0,-3.0,101941.0,-5.123000144958496,0,0
1883.164018,-0.804595947265625,0.030914306640625,0.0458984375,0.591217041015625,0.06103515625,0.1220703125,0.06103515625,0.11328125,0.00634765625,0.996826171875,-305.0,88.0,-3.0,101941.0,-5.123000144958496,0,0
1883.170996,-0.804412841796875,0.030914306640625,0.0458984375,0.591461181640625,0.18310546875,0.3662109375,0.06103515625,0.11083984375,0.006103515625,0.9981689453125,-305.0,88.0,-3.0,101941.0,-5.123000144958496,0,0
1883.177028,-0.804412841796875,0.030914306640625,0.0458984375,0.591461181640625,0.18310546875,0.3662109375,0.06103515625,0.11083984375,0.006103515625,0.9981689453125,-305.0,88.0,-3.0,101941.0,-5.123000144958496,0,0
1883.184018,-0.804412841796875,0.030914306640625,0.0458984375,0.591461181640625,-0.1220703125,0.06103515625,0.244140625,0.1121826171875,0.006103515625,0.998291015625,-305.0,88.0,-3.0,101941.0,-5.123000144958496,0,0
1883.190996,-0.804412841796875,0.030914306640625,0.0458984375,0.591461181640625,-0.18310546875,0.244140625,0.244140625,0.11083984375,0.004638671875,0.998291015625,-305.0,88.0,-3.0,101941.0,-5.123000144958496,0,0
1883.197996,-0.804412841796875,0.030914306640625,0.0458984375,0.591461181640625,-0.244140625,0.3662109375,-0.244140625,0.1112060546875,0.0057373046875,0.999267578125,-305.0,88.0,-3.0,101941.0,-5.123000144958496,0,0
1883.205021,-0.804412841796875,0.030914306640625,0.0458984375,0.591461181640625,0.0,0.42724609375,0.06103515625,0.111083984375,0.00244140625,0.997314453125,-305.0,88.0,-3.0,101941.0,-5.123000144958496,0,0
1883.212001,-0.804412841796875,0.030914306640625,0.0458984375,0.591461181640625,0.1220703125,0.30517578125,0.06103515625,0.1090087890625,0.00341796875,0.998046875,-305.0,88.0,-3.0,101942.0,-5.124000072479248,0,0
1883.219015,-0.804412841796875,0.030914306640625,0.0458984375,0.591461181640625,0.0,0.244140625,0.18310546875,0.1104736328125,0.0050048828125,0.99560546875,-305.0,88.0,-3.0,101942.0,-5.124000072479248,0,0
1883.225994,-0.804412841796875,0.030914306640625,0.0458984375,0.591461181640625,0.1220703125,0.1220703125,0.0,0.11181640625,0.0050048828125,0.9979248046875,-305.0,88.0,-3.0,101942.0,-5.124000072479248,0,0
1883.232998,-0.804412841796875,0.030914306640625,0.045867919921875,0.591461181640625,-0.18310546875,0.18310546875,0.18310546875,0.110595703125,0.0023193359375,0.9991455078125,-305.0,88.0,-3.0,101942.0,-5.124000072479248,0,0
1883.240018,-0.804412841796875,0.030914306640625,0.045867919921875,0.591461181640625,-0.244140625,0.0,-0.244140625,0.1102294921875,0.0035400390625,0.9967041015625,-305.0,88.0,-3.0,101942.0,-5.124000072479248,0,0
1883.247002,-0.804412841796875,0.030914306640625,0.045867919921875,0.591461181640625,0.1220703125,0.18310546875,-0.06103515625,0.1129150390625,0.00390625,0.9979248046875,-305.0,88.0,-3.0,101942.0,-5.124000072479248,0,0
1883.254018,-0.804412841796875,0.030914306640625,0.045867919921875,0.591461181640625,0.0,0.06103515625,0.1220703125,0.1099853515625,0.0018310546875,0.9986572265625,-305.0,88.0,-3.0,101942.0,-5.124000072479248,0,0
1883.260996,-0.804412841796875,0.030914306640625,0.045867919921875,0.591461181640625,0.18310546875,0.30517578125,0.0,0.109130859375,0.0047607421875,0.99658203125,-306.0,88.0,-3.0,101942.0,-5.124000072479248,0,0
1883.267028,-0.804412841796875,0.030914306640625,0.045867919921875,0.591461181640625,0.18310546875,0.30517578125,0.0,0.109130859375,0.0047607421875,0.99658203125,-306.0,88.0,-3.0,101942.0,-5.124000072479248,0,0
1883.274018,-0.804168701171875,0.03094482421875,0.04583740234375,0.591796875,-0.1220703125,0.18310546875,0.0,0.1104736328125,0.0023193359375,0.998779296875,-306.0,88.0,-3.0,101942.0,-5.124000072479248,0,0
1883.280996,-0.804168701171875,0.03094482421875,0.04583740234375,0.591796875,-0.3662109375,0.30517578125,0.0,0.1112060546875,0.0042724609375,0.998046875,-306.0,88.0,-3.0,101942.0,-5.124000072479248,0,0
1883.287996,-0.804168701171875,0.03094482421875,0.045867919921875,0.591796875,0.1220703125,0.18310546875,-0.06103515625,0.1121826171875,0.0032958984375,0.998046875,-306.0,88.0,-3.0,101942.0,-5.124000072479248,0,0
1883.295021,-0.804168701171875,0.03094482421875,0.045867919921875,0.591796875,0.18310546875,0.1220703125,0.06103515625,0.110107421875,0.004638671875,0.9993896484375,-306.0,88.0,-3.0,101942.0,-5.124000072479248,0,0
1883.315999,-0.804168701171875,0.030975341796875,0.04583740234375,0.591766357421875,0.06103515625,0.1220703125,-0.18310546875,0.112060546875,0.00439453125,0.998046875,-306.0,88.0,-3.0,101941.0,-5.123000144958496,0,0
1883.322998,-0.804168701171875,0.030975341796875,0.045867919921875,0.591766357421875,0.06103515625,0.30517578125,0.1220703125,0.11181640625,0.00341796875,0.997314453125,-306.0,88.0,-3.0,101941.0,-5.123000144958496,0,0
1883.330023,-0.804168701171875,0.03094482421875,0.045867919921875,0.591796875,0.06103515625,0.42724609375,0.0,0.109619140625,0.005615234375,0.9984130859375,-306.0,88.0,-3.0,101941.0,-5.123000144958496,0,0
1883.337002,-0.804168701171875,0.03094482421875,0.045867919921875,0.591796875,-0.1220703125,0.18310546875,0.06103515625,0.1114501953125,0.0048828125,0.99951171875,-306.0,88.0,-3.0,101941.0,-5.123000144958496,0,0
1883.344018,-0.804168701171875,0.03094482421875,0.045867919921875,0.591796875,-0.18310546875,0.3662109375,0.1220703125,0.110595703125,0.005615234375,0.996826171875,-306.0,88.0,-3.0,101941.0,-5.123000144958496,0,0
1883.350996,-0.804168701171875,0.03094482421875,0.04583740234375,0.591796875,-0.06103515625,0.3662109375,0.18310546875,0.10986328125,0.004150390625,0.9971923828125,-306.0,88.0,-3.0,101941.0,-5.123000144958496,0,0
1883.357996,-0.804168701171875,0.03094482421875,0.045867919921875,0.591796875,0.18310546875,0.1220703125,-0.244140625,0.110595703125,0.0054931640625,0.9990234375,-307.0,88.0,-4.0,101941.0,-5.123000144958496,0,0
1883.364029,-0.804168701171875,0.03094482421875,0.045867919921875,0.591796875,0.18310546875,0.1220703125,-0.244140625,0.110595703125,0.0054931640625,0.9990234375,-307.0,88.0,-4.0,101941.0,-5.123000144958496,0,0
1883.370996,-0.803924560546875,0.03094482421875,0.04583740234375,0.59210205078125,-0.1220703125,0.244140625,0.18310546875,0.1112060546875,0.004638671875,0.9998779296875,-307.0,88.0,-4.0,101941.0,-5.123000144958496,0,0
1883.377996,-0.803924560546875,0.030975341796875,0.04583740234375,0.59210205078125,0.06103515625,0.3662109375,0.18310546875,0.1104736328125,0.0037841796875,0.999267578125,-307.0,88.0,-4.0,101941.0,-5.123000144958496,0,0
1883.385021,-0.803924560546875,0.030975341796875,0.04583740234375,0.59210205078125,0.0,0.1220703125,0.18310546875,0.111328125,0.00439453125,0.9976806640625,-307.0,88.0,-4.0,101941.0,-5.123000144958496,0,0
1883.405994,-0.803924560546875,0.030975341796875,0.04583740234375,0.59210205078125,0.06103515625,0.1220703125,0.30517578125,0.1109619140625,0.00439453125,0.999755859375,-307.0,88.0,-4.0,101941.0,-5.123000144958496,0,0
1883.412998,-0.803924560546875,0.030975341796875,0.04583740234375,0.59210205078125,0.1220703125,0.42724609375,0.06103515625,0.1114501953125,0.003662109375,0.9998779296875,-307.0,88.0,-4.0,101941.0,-5.123000144958496,0,0
1883.420018,-0.803924560546875,0.030975341796875,0.04583740234375,0.59210205078125,0.0,0.06103515625,0.244140625,0.1109619140625,0.0030517578125,0.998779296875,-307.0,88.0,-4.0,101941.0,-5.123000144958496,0,0
1883.427002,-0.803924560546875,0.030975341796875,0.04583740234375,0.59210205078125,-0.1220703125,0.244140625,0.1220703125,0.111328125,0.005859375,0.9998779296875,-307.0,88.0,-4.0,101941.0,-5.123000144958496,0,0
1883.434018,-0.803924560546875,0.030975341796875,0.04583740234375,0.59210205078125,0.06103515625,0.1220703125,-0.1220703125,0.1103515625,0.005126953125,0.9979248046875,-307.0,88.0,-4.0,101941.0,-5.123000144958496,0,0
1883.440996,-0.803924560546875,0.030975341796875,0.04583740234375,0.59210205078125,0.244140625,0.3662109375,0.0,0.1097412109375,0.002685546875,0.9984130859375,-307.0,88.0,-4.0,101941.0,-5.123000144958496,0,0
1883.447995,-0.803924560546875,0.030975341796875,0.045806884765625,0.59210205078125,-0.1220703125,0.48828125,-0.06103515625,0.110107421875,0.004638671875,0.9993896484375,-307.0,88.0,-4.0,101941.0,-5.123000144958496,0,0
1883.454028,-0.803924560546875,0.030975341796875,0.045806884765625,0.59210205078125,-0.1220703125,0.48828125,-0.06103515625,0.110107421875,0.004638671875,0.9993896484375,-307.0,88.0,-4.0,101941.0,-5.123000144958496,0,0
1883.460996,-0.803924560546875,0.030975341796875,0.045806884765625,0.59210205078125,-0.1220703125,0.42724609375,-0.06103515625,0.1097412109375,0.00634765625,0.9974365234375,-307.0,88.0,-4.0,101941.0,-5.123000144958496,0,0
1883.467996,-0.8037109375,0.031005859375,0.045806884765625,0.5924072265625,-0.06103515625,0.244140625,-0.42724609375,0.1116943359375,0.0032958984375,0.9981689453125,-307.0,88.0,-4.0,101941.0,-5.123000144958496,0,0
1883.475021,-0.8037109375,0.030975341796875,0.0457763671875,0.5924072265625,0.0,0.6103515625,0.0,0.1075439453125,0.0062255859375,0.9990234375,-307.0,88.0,-4.0,101941.0,-5.123000144958496,0,0
1883.482001,-0.8037109375,0.030975341796875,0.0457763671875,0.5924072265625,-0.06103515625,0.18310546875,-0.1220703125,0.111083984375,0.0035400390625,0.9998779296875,-307.0,88.0,-4.0,101941.0,-5.123000144958496,0,0
1883.489015,-0.8037109375,0.030975341796875,0.0457763671875,0.5924072265625,0.06103515625,0.0,0.1220703125,0.10986328125,0.00537109375,0.998291015625,-307.0,88.0,-4.0,101941.0,-5.123000144958496,0,0
1883.495994,-0.8037109375,0.030975341796875,0.045806884765625,0.5924072265625,0.06103515625,0.244140625,0.0,0.1103515625,0.004638671875,0.9974365234375,-307.0,88.0,-4.0,101941.0,-5.123000144958496,0,0
1883.502998,-0.8037109375,0.030975341796875,0.045806884765625,0.5924072265625,-0.1220703125,0.06103515625,-0.244140625,0.108642578125,0.004150390625,1.0,-307.0,88.0,-4.0,101941.0,-5.123000144958496,0,0
1883.510018,-0.8037109375,0.030975341796875,0.045806884765625,0.5924072265625,0.0,0.18310546875,0.06103515625,0.111083984375,0.008056640625,0.9990234375,-307.0,88.0,-4.0,101941.0,-5.123000144958496,0,0
1883.517002,-0.8037109375,0.030975341796875,0.045806884765625,0.5924072265625,0.18310546875,0.30517578125,-0.18310546875,0.1103515625,0.0045166015625,0.9990234375,-307.0,88.0,-4.0,101941.0,-5.123000144958496,0,0
1883.524018,-0.8037109375,0.03094482421875,0.045806884765625,0.5924072265625,0.1220703125,0.3662109375,0.0,0.1097412109375,0.005859375,1.0,-307.0,88.0,-4.0,101941.0,-5.123000144958496,0,0
1883.530996,-0.8037109375,0.03094482421875,0.045806884765625,0.5924072265625,-0.06103515625,0.18310546875,0.1220703125,0.1119384765625,0.0048828125,0.9986572265625,-307.0,88.0,-4.0,101941.0,-5.123000144958496,0,0
1883.537995,-0.8037109375,0.030975341796875,0.045806884765625,0.5924072265625,0.06103515625,0.48828125,0.06103515625,0.113037109375,0.0057373046875,0.9984130859375,-307.0,88.0,-4.0,101941.0,-5.123000144958496,0,0
1883.545016,-0.8037109375,0.03094482421875,0.045806884765625,0.5924072265625,0.06103515625,0.1220703125,0.0,0.1092529296875,0.0047607421875,0.9969482421875,-307.0,88.0,-4.0,101941.0,-5.123000144958496,0,0
1883.551048,-0.8037109375,0.03094482421875,0.045806884765625,0.5924072265625,0.06103515625,0.1220703125,0.0,0.1092529296875,0.0047607421875,0.9969482421875,-307.0,88.0,-4.0,101941.0,-5.123000144958496,0,0
1883.557996,-0.8037109375,0.03094482421875,0.045806884765625,0.5924072265625,-0.1220703125,0.30517578125,0.30517578125,0.1107177734375,0.0045166015625,0.9979248046875,-308.0,88.0,-4.0,101941.0,-5.123000144958496,0,0
1883.579015,-0.803466796875,0.030975341796875,0.0457763671875,0.592742919921875,0.0,0.244140625,0.18310546875,0.10986328125,0.0045166015625,0.9979248046875,-308.0,88.0,-4.0,101941.0,-5.123000144958496,0,0
1883.585999,-0.803466796875,0.030975341796875,0.0457763671875,0.592742919921875,0.18310546875,0.244140625,0.30517578125,0.110595703125,0.0040283203125,0.998291015625,-308.0,88.0,-4.0,101941.0,-5.123000144958496,0,0
1883.592998,-0.803466796875,0.030975341796875,0.0457763671875,0.592742919921875,0.0,-0.06103515625,-0.244140625,0.10986328125,0.00537109375,0.998046875,-308.0,88.0,-4.0,101941.0,-5.123000144958496,0,0
1883.600023,-0.803466796875,0.030975341796875,0.0457763671875,0.592742919921875,0.06103515625,0.18310546875,0.06103515625,0.110107421875,0.00146484375,0.9974365234375,-308.0,88.0,-4.0,101941.0,-5.123000144958496,0,0
1883.607002,-0.803466796875,0.030975341796875,0.0457763671875,0.592742919921875,-0.06103515625,0.30517578125,0.06103515625,0.1094970703125,0.0035400390625,1.00048828125,-308.0,88.0,-4.0,101941.0,-5.123000144958496,0,0
1883.614018,-0.803466796875,0.03094482421875,0.0457763671875,0.592742919921875,-0.06103515625,0.18310546875,-0.06103515625,0.111083984375,0.0042724609375,0.9991455078125,-308.0,88.0,-4.0,101941.0,-5.123000144958496,0,0
1883.620996,-0.803466796875,0.030975341796875,0.0457763671875,0.592742919921875,-0.18310546875,0.18310546875,0.06103515625,0.1142578125,0.0032958984375,0.9989013671875,-308.0,88.0,-4.0,101941.0,-5.123000144958496,0,0
1883.627996,-0.803466796875,0.030975341796875,0.0457763671875,0.592742919921875,-0.18310546875,0.3662109375,-0.30517578125,0.109619140625,0.0045166015625,0.9989013671875,-308.0,88.0,-4.0,101941.0,-5.123000144958496,0,0
1883.63502,-0.803466796875,0.030975341796875,0.0457763671875,0.592742919921875,-0.1220703125,0.18310546875,-0.1220703125,0.111328125,0.00634765625,1.000244140625,-308.0,88.0,-4.0,101941.0,-5.123000144958496,0,0
1883.641053,-0.803466796875,0.030975341796875,0.0457763671875,0.592742919921875,-0.1220703125,0.18310546875,-0.1220703125,0.111328125,0.00634765625,1.000244140625,-308.0,88.0,-4.0,101941.0,-5.123000144958496,0,0
1883.647996,-0.803466796875,0.030975341796875,0.0457763671875,0.592742919921875,0.0,0.3662109375,0.0,0.112060546875,0.0054931640625,0.997802734375,-308.0,88.0,-4.0,101941.0,-5.123000144958496,0,0
1883.669015,-0.80328369140625,0.031005859375,0.0457763671875,0.592987060546875,-0.18310546875,0.30517578125,0.06103515625,0.1126708984375,0.004638671875,0.998291015625,-309.0,89.0,-4.0,101941.0,-5.122000217437744,0,0
1883.675999,-0.80328369140625,0.031005859375,0.0457763671875,0.592987060546875,0.18310546875,0.30517578125,0.1220703125,0.109375,0.004150390625,0.9979248046875,-309.0,89.0,-4.0,101941.0,-5.122000217437744,0,0
1883.682998,-0.80328369140625,0.031005859375,0.0457763671875,0.592987060546875,-0.1220703125,0.244140625,-0.1220703125,0.110107421875,0.0028076171875,0.998779296875,-309.0,89.0,-4.0,101941.0,-5.122000217437744,0,0
1883.690018,-0.80328369140625,0.031005859375,0.0457763671875,0.592987060546875,-0.1220703125,0.06103515625,0.06103515625,0.111083984375,0.0048828125,0.99755859375,-309.0,89.0,-4.0,101941.0,-5.122000217437744,0,0
1883.697002,-0.80328369140625,0.031005859375,0.0457763671875,0.592987060546875,0.1220703125,0.244140625,0.0,0.1123046875,0.0025634765625,0.9974365234375,-309.0,89.0,-4.0,101941.0,-5.122000217437744,0,0
1883.704018,-0.80328369140625,0.031005859375,0.0457763671875,0.592987060546875,-0.1220703125,0.1220703125,0.06103515625,0.112060546875,0.004150390625,0.99951171875,-309.0,89.0,-4.0,101941.0,-5.122000217437744,0,0
1883.710996,-0.80328369140625,0.031005859375,0.0457763671875,0.592987060546875,-0.06103515625,0.244140625,0.06103515625,0.1099853515625,0.0040283203125,0.9990234375,-309.0,89.0,-4.0,101941.0,-5.122000217437744,0,0
1883.717995,-0.80328369140625,0.031005859375,0.045806884765625,0.592987060546875,0.0,0.3662109375,0.30517578125,0.1123046875,0.005615234375,0.99853515625,-309.0,89.0,-4.0,101941.0,-5.122000217437744,0,0
1883.72502,-0.80328369140625,0.031005859375,0.045806884765625,0.592987060546875,-0.18310546875,0.3662109375,0.06103515625,0.112060546875,0.004150390625,0.9974365234375,-309.0,89.0,-4.0,101941.0,-5.122000217437744,0,0
1883.732004,-0.80328369140625,0.031005859375,0.045806884765625,0.592987060546875,-0.18310546875,0.244140625,-0.06103515625,0.11083984375,0.005615234375,0.999755859375,-309.0,89.0,-4.0,101941.0,-5.122000217437744,0,0
1883.738037,-0.80328369140625,0.031005859375,0.045806884765625,0.592987060546875,-0.18310546875,0.244140625,-0.06103515625,0.11083984375,0.005615234375,0.999755859375,-309.0,89.0,-4.0,101941.0,-5.122000217437744,0,0
1883.745021,-0.80328369140625,0.030975341796875,0.045806884765625,0.592987060546875,0.06103515625,0.0,-0.06103515625,0.1123046875,0.0047607421875,0.998779296875,-309.0,89.0,-4.0,101941.0,-5.122000217437744,0,0
1883.752001,-0.80328369140625,0.030975341796875,0.045806884765625,0.592987060546875,0.1220703125,0.3662109375,-0.06103515625,0.109619140625,0.005615234375,0.998046875,-309.0,89.0,-4.0,101941.0,-5.122000217437744,0,0
1883.759015,-0.80328369140625,0.030975341796875,0.0457763671875,0.592987060546875,0.1220703125,0.30517578125,0.0,0.10791015625,0.003662109375,0.9990234375,-310.0,88.0,-5.0,101941.0,-5.122000217437744,0,0
1883.765994,-0.80303955078125,0.030975341796875,0.0457763671875,0.593292236328125,-0.3662109375,0.48828125,-0.1220703125,0.109130859375,0.0062255859375,0.997314453125,-310.0,88.0,-5.0,101941.0,-5.122000217437744,0,0
1883.772998,-0.80303955078125,0.030975341796875,0.0457763671875,0.593292236328125,0.0,0.30517578125,0.0,0.109375,0.0035400390625,0.997802734375,-310.0,88.0,-5.0,101941.0,-5.122000217437744,0,0
1883.780018,-0.80303955078125,0.030975341796875,0.0457763671875,0.593292236328125,0.18310546875,0.244140625,0.0,0.109619140625,0.0035400390625,0.99853515625,-310.0,88.0,-5.0,101941.0,-5.122000217437744,0,0
1883.787002,-0.80303955078125,0.030975341796875,0.045745849609375,0.593292236328125,0.0,0.18310546875,-0.1220703125,0.110595703125,0.004150390625,0.999267578125,-310.0,88.0,-5.0,101941.0,-5.122000217437744,0,0
1883.794018,-0.80303955078125,0.030975341796875,0.045745849609375,0.593292236328125,0.0,0.18310546875,0.0,0.108642578125,0.005615234375,0.99755859375,-310.0,88.0,-5.0,101941.0,-5.122000217437744,0,0
1883.800996,-0.80303955078125,0.030975341796875,0.045745849609375,0.593292236328125,0.06103515625,0.244140625,-0.1220703125,0.1123046875,0.0045166015625,0.9981689453125,-310.0,88.0,-5.0,101941.0,-5.122000217437744,0,0
1883.807995,-0.80303955078125,0.030975341796875,0.045745849609375,0.593292236328125,0.0,0.06103515625,0.06103515625,0.1131591796875,0.0023193359375,0.9996337890625,-310.0,88.0,-5.0,101941.0,-5.122000217437744,0,0
1883.815016,-0.80303955078125,0.030975341796875,0.0457763671875,0.593292236328125,-0.1220703125,0.06103515625,0.0,0.1114501953125,0.0040283203125,1.0006103515625,-310.0,88.0,-5.0,101941.0,-5.122000217437744,0,0
1883.822004,-0.80303955078125,0.030975341796875,0.0457763671875,0.593292236328125,0.0,0.3662109375,0.06103515625,0.111083984375,0.00439453125,0.9974365234375,-310.0,88.0,-5.0,101941.0,-5.122000217437744,0,0
1883.842001,-0.80303955078125,0.030975341796875,0.045745849609375,0.593292236328125,0.06103515625,0.244140625,-0.06103515625,0.110595703125,0.005615234375,0.9989013671875,-310.0,88.0,-5.0,101941.0,-5.122000217437744,0,0
1883.849015,-0.80303955078125,0.030975341796875,0.045745849609375,0.593292236328125,0.1220703125,0.244140625,0.0,0.109375,0.00390625,0.9993896484375,-310.0,88.0,-5.0,101941.0,-5.122000217437744,0,0
1883.855994,-0.80303955078125,0.030975341796875,0.045745849609375,0.593292236328125,-0.06103515625,0.06103515625,-0.1220703125,0.1109619140625,0.0029296875,0.9974365234375,-310.0,88.0,-5.0,101941.0,-5.122000217437744,0,0
1883.862998,-0.80303955078125,0.030975341796875,0.045745849609375,0.593292236328125,0.1220703125,0.18310546875,0.18310546875,0.1104736328125,0.0037841796875,0.999267578125,-310.0,88.0,-5.0,101941.0,-5.121000289916992,0,0
1883.870018,-0.802825927734375,0.030975341796875,0.045745849609375,0.5936279296875,-0.06103515625,0.244140625,0.1220703125,0.1116943359375,0.0057373046875,0.9993896484375,-310.0,88.0,-5.0,101941.0,-5.121000289916992,0,0
1883.877002,-0.802825927734375,0.030975341796875,0.045745849609375,0.5936279296875,0.1220703125,0.244140625,-0.06103515625,0.110107421875,0.004150390625,0.9981689453125,-310.0,88.0,-5.0,101941.0,-5.121000289916992,0,0
1883.884018,-0.802825927734375,0.030975341796875,0.045745849609375,0.5936279296875,0.1220703125,0.30517578125,-0.06103515625,0.110595703125,0.0064697265625,0.9984130859375,-310.0,88.0,-5.0,101941.0,-5.121000289916992,0,0
1883.890996,-0.802825927734375,0.030975341796875,0.045745849609375,0.5936279296875,0.06103515625,0.3662109375,0.06103515625,0.1116943359375,0.005615234375,0.9974365234375,-310.0,88.0,-5.0,101941.0,-5.121000289916992,0,0
1883.897996,-0.802825927734375,0.030975341796875,0.045745849609375,0.5936279296875,-0.1220703125,0.1220703125,0.0,0.1109619140625,0.0030517578125,0.999267578125,-310.0,88.0,-5.0,101941.0,-5.121000289916992,0,0
1883.90502,-0.802825927734375,0.030975341796875,0.045745849609375,0.5936279296875,0.1220703125,0.1220703125,-0.06103515625,0.1114501953125,0.00537109375,0.9981689453125,-310.0,88.0,-5.0,101941.0,-5.121000289916992,0,0
1883.912004,-0.802825927734375,0.030975341796875,0.045745849609375,0.5936279296875,-0.06103515625,0.1220703125,-0.1220703125,0.11083984375,0.00341796875,0.9990234375,-310.0,88.0,-5.0,101941.0,-5.121000289916992,0,0
1883.932001,-0.802825927734375,0.030975341796875,0.045745849609375,0.5936279296875,-0.244140625,0.30517578125,-0.1220703125,0.1104736328125,0.0050048828125,0.99951171875,-310.0,88.0,-5.0,101941.0,-5.121000289916992,0,0
1883.939015,-0.802825927734375,0.030975341796875,0.045745849609375,0.5936279296875,-0.1220703125,0.244140625,-0.1220703125,0.1099853515625,0.00341796875,1.0001220703125,-310.0,88.0,-5.0,101941.0,-5.121000289916992,0,0
1883.945999,-0.802825927734375,0.030975341796875,0.045745849609375,0.5936279296875,0.244140625,0.244140625,-0.1220703125,0.110107421875,0.0054931640625,1.0,-310.0,88.0,-5.0,101941.0,-5.121000289916992,0,0
1883.952998,-0.802825927734375,0.030975341796875,0.045745849609375,0.5936279296875,-0.06103515625,0.42724609375,-0.06103515625,0.107666015625,0.00439453125,0.9990234375,-310.0,88.0,-5.0,101941.0,-5.121000289916992,0,0
1883.960023,-0.802825927734375,0.030975341796875,0.04571533203125,0.5936279296875,-0.18310546875,0.30517578125,0.0,0.1097412109375,0.001708984375,0.99951171875,-309.0,88.0,-4.0,101941.0,-5.123000144958496,0,0
1883.967002,-0.802642822265625,0.031005859375,0.04571533203125,0.5938720703125,-0.18310546875,0.0,0.3662109375,0.11083984375,0.0025634765625,0.999267578125,-309.0,88.0,-4.0,101941.0,-5.123000144958496,0,0
1883.974018,-0.802642822265625,0.031005859375,0.04571533203125,0.5938720703125,0.0,0.48828125,0.0,0.1114501953125,0.003173828125,0.9986572265625,-309.0,88.0,-4.0,101941.0,-5.123000144958496,0,0
1883.980996,-0.802642822265625,0.031005859375,0.04571533203125,0.5938720703125,-0.06103515625,0.30517578125,-0.1220703125,0.110107421875,0.005859375,0.999755859375,-309.0,88.0,-4.0,101941.0,-5.123000144958496,0,0
1883.987995,-0.802642822265625,0.031005859375,0.04571533203125,0.5938720703125,0.18310546875,0.244140625,0.0,0.112548828125,0.0052490234375,0.9986572265625,-309.0,88.0,-4.0,101941.0,-5.123000144958496,0,0
1883.99502,-0.802642822265625,0.031005859375,0.04571533203125,0.5938720703125,-0.06103515625,0.30517578125,-0.06103515625,0.111572265625,0.005126953125,1.000732421875,-309.0,88.0,-4.0,101941.0,-5.123000144958496,0,0
1884.002004,-0.802642822265625,0.031005859375,0.04571533203125,0.5938720703125,-0.1220703125,0.18310546875,0.06103515625,0.1102294921875,0.003662109375,1.000732421875,-309.0,88.0,-4.0,101941.0,-5.123000144958496,0,0
1884.009018,-0.802642822265625,0.031005859375,0.04571533203125,0.5938720703125,-0.06103515625,0.30517578125,0.244140625,0.1116943359375,0.0067138671875,0.9993896484375,-309.0,88.0,-4.0,101941.0,-5.123000144958496,0,0
1884.015052,-0.802642822265625,0.031005859375,0.04571533203125,0.5938720703125,-0.06103515625,0.30517578125,0.244140625,0.1116943359375,0.0067138671875,0.9993896484375,-309.0,88.0,-4.0,101941.0,-5.123000144958496,0,0
1884.022001,-0.802642822265625,0.031005859375,0.04571533203125,0.5938720703125,0.06103515625,0.244140625,0.244140625,0.112060546875,0.001708984375,0.9989013671875,-309.0,88.0,-4.0,101941.0,-5.123000144958496,0,0
1884.029015,-0.802642822265625,0.031005859375,0.04571533203125,0.5938720703125,0.1220703125,0.18310546875,0.06103515625,0.1094970703125,0.0052490234375,0.999267578125,-309.0,88.0,-4.0,101941.0,-5.123000144958496,0,0
1884.035994,-0.802642822265625,0.031005859375,0.04571533203125,0.5938720703125,0.0,0.244140625,0.1220703125,0.1121826171875,0.006103515625,1.00048828125,-309.0,88.0,-4.0,101941.0,-5.123000144958496,0,0
1884.042998,-0.802642822265625,0.031005859375,0.04571533203125,0.5938720703125,-0.18310546875,0.18310546875,0.0,0.1131591796875,0.0020751953125,1.00146484375,-309.0,88.0,-4.0,101941.0,-5.123000144958496,0,0
1884.050018,-0.802642822265625,0.031005859375,0.04571533203125,0.5938720703125,-0.06103515625,0.1220703125,0.06103515625,0.1097412109375,0.00341796875,0.9991455078125,-309.0,88.0,-4.0,101941.0,-5.123000144958496,0,0
1884.057002,-0.802642822265625,0.031005859375,0.04571533203125,0.5938720703125,0.244140625,0.244140625,-0.18310546875,0.1109619140625,0.0047607421875,0.99951171875,-309.0,88.0,-4.0,101941.0,-5.123000144958496,0,0
1884.064018,-0.802642822265625,0.031005859375,0.04571533203125,0.5938720703125,-0.06103515625,0.30517578125,0.244140625,0.11181640625,0.0035400390625,0.996337890625,-309.0,89.0,-5.0,101941.0,-5.122000217437744,0,0
1884.070996,-0.802490234375,0.031005859375,0.04571533203125,0.59405517578125,-0.06103515625,0.30517578125,0.0,0.1102294921875,0.00537109375,0.999267578125,-309.0,89.0,-5.0,101941.0,-5.122000217437744,0,0
1884.077995,-0.802490234375,0.031005859375,0.04571533203125,0.59405517578125,-0.06103515625,0.48828125,0.0,0.1119384765625,0.00634765625,0.9984130859375,-309.0,89.0,-5.0,101941.0,-5.122000217437744,0,0
1884.08502,-0.802490234375,0.031005859375,0.04571533203125,0.59405517578125,-0.18310546875,0.30517578125,-0.1220703125,0.1099853515625,0.0054931640625,0.998046875,-309.0,89.0,-5.0,101941.0,-5.122000217437744,0,0
1884.105998,-0.802490234375,0.030975341796875,0.045745849609375,0.59405517578125,-0.18310546875,0.30517578125,0.1220703125,0.1112060546875,0.0045166015625,0.9984130859375,-309.0,89.0,-5.0,101941.0,-5.122000217437744,0,0
1884.112026,-0.802490234375,0.030975341796875,0.045745849609375,0.59405517578125,-0.18310546875,0.30517578125,0.1220703125,0.1112060546875,0.0045166015625,0.9984130859375,-309.0,89.0,-5.0,101941.0,-5.122000217437744,0,0
1884.119015,-0.802490234375,0.030975341796875,0.045745849609375,0.59405517578125,-0.42724609375,0.3662109375,0.0,0.1123046875,0.0037841796875,0.9991455078125,-309.0,89.0,-5.0,101941.0,-5.122000217437744,0,0
1884.125994,-0.802490234375,0.030975341796875,0.045745849609375,0.59405517578125,-0.1220703125,0.1220703125,-0.06103515625,0.109375,0.0052490234375,1.0001220703125,-309.0,89.0,-5.0,101941.0,-5.122000217437744,0,0
1884.132998,-0.802490234375,0.030975341796875,0.045745849609375,0.59405517578125,-0.06103515625,0.30517578125,-0.18310546875,0.1126708984375,0.0042724609375,0.9984130859375,-309.0,89.0,-5.0,101941.0,-5.122000217437744,0,0
1884.140018,-0.802490234375,0.030975341796875,0.045745849609375,0.59405517578125,0.06103515625,0.244140625,0.0,0.1131591796875,0.0062255859375,1.000244140625,-309.0,89.0,-5.0,101941.0,-5.122000217437744,0,0
1884.147002,-0.802490234375,0.030975341796875,0.045745849609375,0.59405517578125,-0.06103515625,0.1220703125,0.0,0.1099853515625,0.004150390625,1.0,-309.0,89.0,-5.0,101941.0,-5.122000217437744,0,0
1884.154018,-0.802490234375,0.030975341796875,0.045745849609375,0.59405517578125,0.1220703125,0.30517578125,-0.30517578125,0.1109619140625,0.0057373046875,1.0001220703125,-309.0,89.0,-5.0,101941.0,-5.122000217437744,0,0
1884.160996,-0.802490234375,0.030975341796875,0.045745849609375,0.59405517578125,0.1220703125,0.30517578125,0.0,0.111572265625,0.0048828125,0.999755859375,-309.0,88.0,-5.0,101941.0,-5.121000289916992,0,0
1884.167995,-0.80230712890625,0.031005859375,0.045745849609375,0.59429931640625,0.1220703125,0.3662109375,0.244140625,0.1121826171875,0.00537109375,0.99951171875,-309.0,88.0,-5.0,101941.0,-5.121000289916992,0,0
1884.175016,-0.80230712890625,0.030975341796875,0.045745849609375,0.59429931640625,-0.06103515625,0.18310546875,-0.06103515625,0.111572265625,0.0045166015625,0.9998779296875,-309.0,88.0,-5.0,101941.0,-5.121000289916992,0,0
1884.189019,-0.80230712890625,0.030975341796875,0.04571533203125,0.59429931640625,-0.06103515625,0.06103515625,0.18310546875,0.10986328125,0.0035400390625,0.997314453125,-309.0,88.0,-5.0,101941.0,-5.121000289916992,0,0
1884.195998,-0.80230712890625,0.030975341796875,0.04571533203125,0.59429931640625,-0.1220703125,0.18310546875,-0.06103515625,0.1116943359375,0.004638671875,1.000732421875,-309.0,88.0,-5.0,101941.0,-5.121000289916992,0,0
1884.202031,-0.80230712890625,0.030975341796875,0.04571533203125,0.59429931640625,-0.1220703125,0.18310546875,-0.06103515625,0.1116943359375,0.004638671875,1.000732421875,-309.0,88.0,-5.0,101941.0,-5.121000289916992,0,0
1884.209015,-0.80230712890625,0.030975341796875,0.04571533203125,0.59429931640625,-0.06103515625,0.3662109375,0.244140625,0.11083984375,0.0062255859375,0.9967041015625,-309.0,88.0,-5.0,101941.0,-5.121000289916992,0,0
1884.215999,-0.80230712890625,0.030975341796875,0.04571533203125,0.59429931640625,0.1220703125,0.18310546875,-0.18310546875,0.1102294921875,0.00341796875,0.998046875,-309.0,88.0,-5.0,101941.0,-5.121000289916992,0,0
1884.222998,-0.80230712890625,0.030975341796875,0.04571533203125,0.59429931640625,-0.06103515625,0.06103515625,0.0,0.111328125,0.0048828125,0.998779296875,-309.0,88.0,-5.0,101941.0,-5.121000289916992,0,0
1884.230023,-0.80230712890625,0.030975341796875,0.04571533203125,0.59429931640625,0.06103515625,0.30517578125,-0.18310546875,0.110107421875,0.004638671875,1.0006103515625,-309.0,88.0,-5.0,101941.0,-5.121000289916992,0,0
1884.237002,-0.80230712890625,0.030975341796875,0.04571533203125,0.59429931640625,0.1220703125,0.30517578125,-0.18310546875,0.1102294921875,0.00390625,0.9984130859375,-309.0,88.0,-5.0,101941.0,-5.121000289916992,0,0
1884.244018,-0.80230712890625,0.030975341796875,0.04571533203125,0.59429931640625,0.0,0.30517578125,-0.18310546875,0.110107421875,0.0042724609375,0.998779296875,-309.0,88.0,-5.0,101941.0,-5.121000289916992,0,0
1884.250996,-0.80230712890625,0.030975341796875,0.04571533203125,0.59429931640625,0.1220703125,0.18310546875,-0.3662109375,0.1094970703125,0.00537109375,1.0006103515625,-309.0,88.0,-5.0,101941.0,-5.121000289916992,0,0
1884.257996,-0.80230712890625,0.030975341796875,0.04571533203125,0.59429931640625,0.0,0.30517578125,0.0,0.1103515625,0.005615234375,0.9981689453125,-309.0,88.0,-5.0,101941.0,-5.121000289916992,0,0
1884.26502,-0.80218505859375,0.030975341796875,0.045684814453125,0.594512939453125,0.06103515625,0.3662109375,-0.06103515625,0.1102294921875,0.0047607421875,1.0009765625,-309.0,89.0,-6.0,101941.0,-5.121000289916992,0,0
1884.272004,-0.80218505859375,0.030975341796875,0.045684814453125,0.594512939453125,0.18310546875,0.3662109375,0.244140625,0.1104736328125,0.0037841796875,0.9986572265625,-309.0,89.0,-6.0,101941.0,-5.121000289916992,0,0
1884.279018,-0.80218505859375,0.030975341796875,0.045684814453125,0.594512939453125,0.06103515625,0.244140625,-0.1220703125,0.1112060546875,0.00390625,0.9989013671875,-309.0,89.0,-6.0,101941.0,-5.121000289916992,0,0
1884.285998,-0.80218505859375,0.030975341796875,0.045684814453125,0.594512939453125,-0.06103515625,0.30517578125,-0.244140625,0.1109619140625,0.005859375,0.9998779296875,-309.0,89.0,-6.0,101941.0,-5.121000289916992,0,0
1884.292998,-0.80218505859375,0.030975341796875,0.045684814453125,0.594512939453125,0.0,0.30517578125,-0.1220703125,0.11083984375,0.0050048828125,0.999755859375,-309.0,89.0,-6.0,101941.0,-5.121000289916992,0,0
1884.29903,-0.80218505859375,0.030975341796875,0.045684814453125,0.594512939453125,0.0,0.30517578125,-0.1220703125,0.11083984375,0.0050048828125,0.999755859375,-309.0,89.0,-6.0,101941.0,-5.121000289916992,0,0
1884.305994,-0.80218505859375,0.030975341796875,0.045684814453125,0.594512939453125,-0.06103515625,0.18310546875,0.06103515625,0.1112060546875,0.0059814453125,1.0009765625,-309.0,89.0,-6.0,101941.0,-5.121000289916992,0,0
1884.312998,-0.80218505859375,0.030975341796875,0.045684814453125,0.594512939453125,-0.1220703125,0.48828125,-0.1220703125,0.109619140625,0.0047607421875,0.99951171875,-309.0,89.0,-6.0,101941.0,-5.121000289916992,0,0
1884.320018,-0.80218505859375,0.030975341796875,0.045684814453125,0.594512939453125,-0.06103515625,0.1220703125,-0.06103515625,0.1099853515625,0.005126953125,1.0008544921875,-309.0,89.0,-6.0,101941.0,-5.121000289916992,0,0
1884.327002,-0.80218505859375,0.030975341796875,0.045684814453125,0.594512939453125,-0.06103515625,0.30517578125,0.0,0.1083984375,0.00634765625,0.9989013671875,-309.0,89.0,-6.0,101941.0,-5.121000289916992,0,0
1884.334018,-0.80218505859375,0.030975341796875,0.045684814453125,0.594512939453125,0.06103515625,0.244140625,0.06103515625,0.111572265625,0.0035400390625,0.9993896484375,-309.0,89.0,-6.0,101941.0,-5.121000289916992,0,0
1884.340996,-0.80218505859375,0.030975341796875,0.045684814453125,0.594512939453125,0.1220703125,0.244140625,0.06103515625,0.1099853515625,0.007080078125,0.999267578125,-309.0,89.0,-6.0,101941.0,-5.121000289916992,0,0
1884.347995,-0.80218505859375,0.03094482421875,0.045684814453125,0.594512939453125,-0.1220703125,0.18310546875,-0.1220703125,0.110107421875,0.004638671875,1.0006103515625,-309.0,89.0,-6.0,101941.0,-5.121000289916992,0,0
1884.369018,-0.80206298828125,0.030975341796875,0.045684814453125,0.594635009765625,-0.18310546875,0.06103515625,-0.1220703125,0.1114501953125,0.0045166015625,0.9990234375,-308.0,89.0,-5.0,101941.0,-5.123000144958496,0,0
1884.375998,-0.80206298828125,0.030975341796875,0.045684814453125,0.594635009765625,0.1220703125,0.18310546875,0.06103515625,0.108642578125,0.005126953125,1.0008544921875,-308.0,89.0,-5.0,101941.0,-5.123000144958496,0,0
1884.382998,-0.80206298828125,0.030975341796875,0.045684814453125,0.594635009765625,-0.06103515625,0.1220703125,0.244140625,0.111083984375,0.005126953125,1.001220703125,-308.0,89.0,-5.0,101941.0,-5.123000144958496,0,0
1884.38903,-0.80206298828125,0.030975341796875,0.045684814453125,0.594635009765625,-0.06103515625,0.1220703125,0.244140625,0.111083984375,0.005126953125,1.001220703125,-308.0,89.0,-5.0,101941.0,-5.123000144958496,0,0
1884.395994,-0.80206298828125,0.030975341796875,0.045684814453125,0.594635009765625,-0.18310546875,0.3662109375,-0.1220703125,0.111328125,0.0062255859375,1.0008544921875,-308.0,89.0,-5.0,101941.0,-5.123000144958496,0,0
1884.402998,-0.80206298828125,0.03094482421875,0.04571533203125,0.594635009765625,0.06103515625,0.3662109375,-0.18310546875,0.1126708984375,0.0047607421875,0.9996337890625,-308.0,89.0,-5.0,101941.0,-5.123000144958496,0,0
1884.410018,-0.80206298828125,0.03094482421875,0.045684814453125,0.594635009765625,-0.1220703125,0.3662109375,0.06103515625,0.1092529296875,0.006591796875,1.0020751953125,-308.0,89.0,-5.0,101941.0,-5.123000144958496,0,0
1884.417002,-0.80206298828125,0.03094482421875,0.04571533203125,0.594635009765625,0.0,0.244140625,-0.18310546875,0.1109619140625,0.006591796875,0.9996337890625,-308.0,89.0,-5.0,101941.0,-5.123000144958496,0,0
1884.424018,-0.80206298828125,0.03094482421875,0.04571533203125,0.594635009765625,0.18310546875,0.1220703125,-0.1220703125,0.109130859375,0.0040283203125,0.9998779296875,-308.0,89.0,-5.0,101941.0,-5.123000144958496,0,0
1884.430996,-0.80206298828125,0.030975341796875,0.045684814453125,0.594635009765625,0.1220703125,0.3662109375,0.18310546875,0.1109619140625,0.003662109375,1.00146484375,-308.0,89.0,-5.0,101941.0,-5.123000144958496,0,0
1884.452004,-0.802093505859375,0.030975341796875,0.045684814453125,0.594635009765625,0.0,0.30517578125,0.06103515625,0.1102294921875,0.0037841796875,0.99951171875,-308.0,89.0,-5.0,101941.0,-5.123000144958496,0,0
1884.459018,-0.802093505859375,0.030975341796875,0.045684814453125,0.594635009765625,0.1220703125,0.1220703125,-0.06103515625,0.1102294921875,0.005126953125,1.0009765625,-308.0,89.0,-5.0,101942.0,-5.124000072479248,0,0
1884.465998,-0.801971435546875,0.030975341796875,0.045684814453125,0.594757080078125,-0.1220703125,0.18310546875,0.1220703125,0.1103515625,0.004638671875,1.00048828125,-308.0,90.0,-4.0,101942.0,-5.124000072479248,0,0
1884.472997,-0.801971435546875,0.030975341796875,0.045684814453125,0.594757080078125,-0.06103515625,0.244140625,0.18310546875,0.1126708984375,0.00244140625,0.999267578125,-308.0,90.0,-4.0,101942.0,-5.124000072479248,0,0
1884.480018,-0.801971435546875,0.031005859375,0.045654296875,0.594757080078125,0.0,0.18310546875,0.06103515625,0.10888671875,0.0050048828125,1.000732421875,-308.0,90.0,-4.0,101942.0,-5.124000072479248,0,0
1884.486051,-0.801971435546875,0.031005859375,0.045654296875,0.594757080078125,0.0,0.18310546875,0.06103515625,0.10888671875,0.0050048828125,1.000732421875,-308.0,90.0,-4.0,101942.0,-5.124000072479248,0,0
1884.492998,-0.801971435546875,0.031005859375,0.045654296875,0.594757080078125,0.06103515625,0.3662109375,0.0,0.1109619140625,0.0042724609375,0.9993896484375,-308.0,90.0,-4.0,101942.0,-5.124000072479248,0,0
1884.500023,-0.801971435546875,0.030975341796875,0.045654296875,0.594757080078125,0.0,0.30517578125,-0.1220703125,0.109619140625,0.004638671875,1.0006103515625,-308.0,90.0,-4.0,101942.0,-5.124000072479248,0,0
1884.507002,-0.802001953125,0.030975341796875,0.045623779296875,0.594757080078125,-0.06103515625,0.18310546875,0.18310546875,0.1082763671875,0.00244140625,1.0009765625,-308.0,90.0,-4.0,101942.0,-5.124000072479248,0,0
1884.514018,-0.802001953125,0.030975341796875,0.045623779296875,0.594757080078125,0.18310546875,0.30517578125,0.1220703125,0.1087646484375,0.0059814453125,1.0006103515625,-308.0,90.0,-4.0,101942.0,-5.124000072479248,0,0
1884.53502,-0.802001953125,0.030975341796875,0.045654296875,0.594757080078125,0.1220703125,0.18310546875,-0.1220703125,0.11181640625,0.00439453125,0.9998779296875,-308.0,90.0,-4.0,101942.0,-5.124000072479248,0,0
1884.542004,-0.802001953125,0.030975341796875,0.045623779296875,0.594757080078125,0.0,0.3662109375,-0.18310546875,0.1109619140625,0.00341796875,1.0008544921875,-308.0,90.0,-4.0,101942.0,-5.124000072479248,0,0
1884.549019,-0.802001953125,0.031005859375,0.045623779296875,0.594757080078125,0.18310546875,0.3662109375,0.0,0.1104736328125,0.00244140625,1.00048828125,-308.0,90.0,-4.0,101942.0,-5.124000072479248,0,0
1884.555998,-0.802001953125,0.030975341796875,0.045623779296875,0.594757080078125,0.06103515625,0.244140625,0.06103515625,0.1092529296875,0.0048828125,0.99951171875,-308.0,90.0,-4.0,101941.0,-5.122000217437744,0,0
1884.562998,-0.80194091796875,0.031005859375,0.045623779296875,0.594818115234375,0.0,0.06103515625,0.0,0.109130859375,0.0020751953125,0.9996337890625,-307.0,90.0,-4.0,101941.0,-5.122000217437744,0,0
1884.570018,-0.80194091796875,0.031005859375,0.04559326171875,0.594818115234375,0.0,0.42724609375,0.30517578125,0.109619140625,0.0037841796875,1.00048828125,-307.0,90.0,-4.0,101941.0,-5.122000217437744,0,0
1884.576051,-0.80194091796875,0.031005859375,0.04559326171875,0.594818115234375,0.0,0.42724609375,0.30517578125,0.109619140625,0.0037841796875,1.00048828125,-307.0,90.0,-4.0,101941.0,-5.122000217437744,0,0
1884.582998,-0.80194091796875,0.030975341796875,0.04559326171875,0.594818115234375,-0.1220703125,0.3662109375,-0.18310546875,0.1103515625,0.0037841796875,0.9993896484375,-307.0,90.0,-4.0,101941.0,-5.122000217437744,0,0
1884.590018,-0.80194091796875,0.030975341796875,0.04559326171875,0.594818115234375,-0.1220703125,0.06103515625,0.244140625,0.1102294921875,0.00537109375,1.001953125,-307.0,90.0,-4.0,101941.0,-5.122000217437744,0,0
1884.597002,-0.80194091796875,0.030975341796875,0.04559326171875,0.594818115234375,-0.06103515625,0.42724609375,0.06103515625,0.111083984375,0.003662109375,0.9996337890625,-307.0,90.0,-4.0,101941.0,-5.122000217437744,0,0
1884.604018,-0.80194091796875,0.030975341796875,0.04559326171875,0.594818115234375,0.1220703125,0.244140625,0.18310546875,0.1103515625,0.00634765625,0.9996337890625,-307.0,90.0,-4.0,101941.0,-5.122000217437744,0,0
1884.625016,-0.80194091796875,0.030975341796875,0.04559326171875,0.594818115234375,0.06103515625,0.1220703125,0.06103515625,0.10986328125,0.0048828125,1.0015869140625,-307.0,90.0,-4.0,101941.0,-5.122000217437744,0,0
1884.632004,-0.80194091796875,0.030975341796875,0.04559326171875,0.594818115234375,-0.18310546875,0.30517578125,0.18310546875,0.1114501953125,0.0040283203125,1.0009765625,-307.0,90.0,-4.0,101941.0,-5.122000217437744,0,0
1884.639018,-0.80194091796875,0.030975341796875,0.04559326171875,0.594818115234375,-0.06103515625,0.244140625,0.0,0.1094970703125,0.0045166015625,1.0009765625,-307.0,90.0,-4.0,101941.0,-5.122000217437744,0,0
1884.645998,-0.80194091796875,0.030975341796875,0.04559326171875,0.594818115234375,-0.06103515625,0.3662109375,0.06103515625,0.1104736328125,0.005126953125,1.0015869140625,-307.0,90.0,-4.0,101941.0,-5.122000217437744,0,0
1884.652997,-0.80194091796875,0.030975341796875,0.04559326171875,0.594818115234375,0.0,0.1220703125,0.06103515625,0.112548828125,0.0047607421875,0.9991455078125,-307.0,90.0,-4.0,101941.0,-5.122000217437744,0,0
1884.660018,-0.80194091796875,0.031005859375,0.04559326171875,0.594818115234375,-0.06103515625,0.18310546875,-0.06103515625,0.1131591796875,0.0032958984375,0.999755859375,-306.0,89.0,-4.0,101941.0,-5.122000217437744,0,0
1884.66605,-0.80194091796875,0.031005859375,0.04559326171875,0.594818115234375,-0.06103515625,0.18310546875,-0.06103515625,0.1131591796875,0.0032958984375,0.999755859375,-306.0,89.0,-4.0,101941.0,-5.122000217437744,0,0
1884.672998,-0.801849365234375,0.031005859375,0.04559326171875,0.594940185546875,0.0,0.06103515625,0.42724609375,0.1119384765625,0.0035400390625,0.9991455078125,-306.0,89.0,-4.0,101941.0,-5.122000217437744,0,0
1884.680018,-0.801849365234375,0.031005859375,0.04559326171875,0.594940185546875,-0.244140625,0.42724609375,-0.06103515625,0.109375,0.0059814453125,0.999267578125,-306.0,89.0,-4.0,101941.0,-5.122000217437744,0,0
1884.687002,-0.801849365234375,0.031005859375,0.04559326171875,0.594940185546875,-0.1220703125,0.42724609375,-0.06103515625,0.1112060546875,0.0048828125,1.00048828125,-306.0,89.0,-4.0,101941.0,-5.122000217437744,0,0
1884.694018,-0.801849365234375,0.031005859375,0.04559326171875,0.594940185546875,0.06103515625,0.30517578125,-0.1220703125,0.111328125,0.0020751953125,0.9984130859375,-306.0,89.0,-4.0,101941.0,-5.122000217437744,0,0
1884.700996,-0.801849365234375,0.031005859375,0.04559326171875,0.594940185546875,-0.06103515625,0.30517578125,0.0,0.11083984375,0.004150390625,1.0,-306.0,89.0,-4.0,101941.0,-5.122000217437744,0,0
1884.707995,-0.801849365234375,0.031005859375,0.04559326171875,0.594940185546875,-0.06103515625,0.30517578125,0.18310546875,0.1103515625,0.003662109375,1.000732421875,-306.0,89.0,-4.0,101941.0,-5.122000217437744,0,0
1884.715016,-0.801849365234375,0.031005859375,0.04559326171875,0.594940185546875,-0.06103515625,0.18310546875,0.18310546875,0.111328125,0.0050048828125,1.0006103515625,-306.0,89.0,-4.0,101941.0,-5.122000217437744,0,0
1884.722004,-0.801849365234375,0.031005859375,0.04559326171875,0.594940185546875,0.06103515625,0.244140625,0.0,0.1107177734375,0.0059814453125,0.9998779296875,-306.0,89.0,-4.0,101941.0,-5.122000217437744,0,0
1884.729019,-0.801849365234375,0.031005859375,0.04559326171875,0.594940185546875,0.1220703125,0.1220703125,0.1220703125,0.111328125,0.0045166015625,1.0001220703125,-306.0,89.0,-4.0,101941.0,-5.122000217437744,0,0
1884.735998,-0.801849365234375,0.031005859375,0.04559326171875,0.594940185546875,0.0,0.30517578125,0.1220703125,0.110107421875,0.0047607421875,0.9989013671875,-306.0,89.0,-4.0,101941.0,-5.122000217437744,0,0
1884.742997,-0.801849365234375,0.030975341796875,0.04559326171875,0.594940185546875,0.18310546875,0.244140625,-0.18310546875,0.1090087890625,0.006103515625,1.000244140625,-306.0,89.0,-4.0,101941.0,-5.122000217437744,0,0
1884.750018,-0.801849365234375,0.030975341796875,0.04559326171875,0.594940185546875,0.06103515625,0.06103515625,-0.1220703125,0.1077880859375,0.00732421875,0.9990234375,-306.0,89.0,-4.0,101941.0,-5.122000217437744,0,0
1884.757001,-0.801849365234375,0.030975341796875,0.04559326171875,0.594940185546875,0.18310546875,0.244140625,0.244140625,0.110107421875,0.0040283203125,1.000244140625,-305.0,89.0,-3.0,101941.0,-5.122000217437744,0,0
1884.763034,-0.801849365234375,0.030975341796875,0.04559326171875,0.594940185546875,0.18310546875,0.244140625,0.244140625,0.110107421875,0.0040283203125,1.000244140625,-305.0,89.0,-3.0,101941.0,-5.122000217437744,0,0
1884.770018,-0.801788330078125,0.030975341796875,0.04559326171875,0.595001220703125,0.30517578125,0.3662109375,0.0,0.1097412109375,0.0057373046875,1.0003662109375,-305.0,89.0,-3.0,101941.0,-5.122000217437744,0,0
1884.777002,-0.801788330078125,0.03094482421875,0.04559326171875,0.595001220703125,0.18310546875,0.244140625,0.0,0.1097412109375,0.0050048828125,1.0010986328125,-305.0,89.0,-3.0,101941.0,-5.122000217437744,0,0
1884.797996,-0.801788330078125,0.03094482421875,0.04559326171875,0.595001220703125,0.06103515625,0.42724609375,0.0,0.1102294921875,0.0050048828125,0.9993896484375,-305.0,89.0,-3.0,101941.0,-5.122000217437744,0,0
1884.80502,-0.801788330078125,0.030975341796875,0.04559326171875,0.595001220703125,0.244140625,0.244140625,-0.1220703125,0.111572265625,0.0030517578125,1.000244140625,-305.0,89.0,-3.0,101941.0,-5.122000217437744,0,0
1884.812004,-0.801788330078125,0.030975341796875,0.04559326171875,0.595001220703125,0.06103515625,0.30517578125,0.0,0.1116943359375,0.0042724609375,0.997802734375,-305.0,89.0,-3.0,101941.0,-5.123000144958496,0,0
1884.819018,-0.801788330078125,0.03094482421875,0.04559326171875,0.595001220703125,-0.06103515625,0.42724609375,0.1220703125,0.1116943359375,0.008056640625,0.9981689453125,-305.0,89.0,-3.0,101941.0,-5.123000144958496,0,0
1884.825998,-0.801788330078125,0.03094482421875,0.045623779296875,0.595001220703125,0.1220703125,0.18310546875,0.06103515625,0.1104736328125,0.00537109375,0.9990234375,-305.0,89.0,-3.0,101941.0,-5.123000144958496,0,0
1884.832998,-0.801788330078125,0.03094482421875,0.04559326171875,0.595001220703125,0.06103515625,0.18310546875,-0.06103515625,0.1103515625,0.0042724609375,1.00048828125,-305.0,89.0,-3.0,101941.0,-5.123000144958496,0,0
1884.840018,-0.801788330078125,0.03094482421875,0.04559326171875,0.595001220703125,-0.244140625,0.1220703125,0.06103515625,0.1107177734375,0.00537109375,1.00146484375,-305.0,89.0,-3.0,101941.0,-5.123000144958496,0,0
1884.847001,-0.801788330078125,0.03094482421875,0.04559326171875,0.595001220703125,0.0,0.30517578125,0.06103515625,0.11083984375,0.0048828125,0.9991455078125,-305.0,89.0,-3.0,101941.0,-5.123000144958496,0,0
1884.853034,-0.801788330078125,0.03094482421875,0.04559326171875,0.595001220703125,0.0,0.30517578125,0.06103515625,0.11083984375,0.0048828125,0.9991455078125,-305.0,89.0,-3.0,101941.0,-5.123000144958496,0,0
1884.860023,-0.801849365234375,0.03094482421875,0.04559326171875,0.594940185546875,-0.244140625,0.1220703125,-0.1220703125,0.1103515625,0.0047607421875,1.0020751953125,-305.0,90.0,-4.0,101941.0,-5.123000144958496,0,0
1884.867002,-0.801849365234375,0.03094482421875,0.04559326171875,0.594940185546875,0.06103515625,0.244140625,0.18310546875,0.109130859375,0.004638671875,0.9990234375,-305.0,90.0,-4.0,101941.0,-5.123000144958496,0,0
1884.887995,-0.801849365234375,0.030914306640625,0.04559326171875,0.594940185546875,0.18310546875,0.0,0.06103515625,0.1099853515625,0.005126953125,0.999755859375,-305.0,90.0,-4.0,101941.0,-5.123000144958496,0,0
1884.89502,-0.801849365234375,0.030914306640625,0.04559326171875,0.594940185546875,0.18310546875,0.30517578125,0.18310546875,0.1097412109375,0.0052490234375,1.0003662109375,-305.0,90.0,-4.0,101941.0,-5.123000144958496,0,0
1884.902004,-0.801849365234375,0.030914306640625,0.04559326171875,0.594940185546875,0.06103515625,0.1220703125,-0.3662109375,0.1094970703125,0.0059814453125,1.0,-305.0,90.0,-4.0,101941.0,-5.123000144958496,0,0
1884.909018,-0.801849365234375,0.030914306640625,0.04559326171875,0.594940185546875,0.0,0.244140625,-0.06103515625,0.11083984375,0.0042724609375,0.999267578125,-305.0,90.0,-4.0,101941.0,-5.122000217437744,0,0
1884.915998,-0.801849365234375,0.030914306640625,0.04559326171875,0.594940185546875,0.0,0.244140625,0.06103515625,0.109375,0.0048828125,1.0010986328125,-305.0,90.0,-4.0,101941.0,-5.122000217437744,0,0
1884.922997,-0.801849365234375,0.030914306640625,0.04559326171875,0.594940185546875,0.1220703125,0.244140625,-0.06103515625,0.1104736328125,0.0069580078125,0.999267578125,-305.0,90.0,-4.0,101941.0,-5.122000217437744,0,0
1884.930018,-0.801849365234375,0.030914306640625,0.04559326171875,0.594940185546875,0.1220703125,0.3662109375,0.1220703125,0.1126708984375,0.00390625,1.0025634765625,-305.0,90.0,-4.0,101941.0,-5.122000217437744,0,0
1884.937001,-0.801849365234375,0.030914306640625,0.04559326171875,0.594940185546875,0.06103515625,0.244140625,-0.06103515625,0.1112060546875,0.00439453125,1.0,-305.0,90.0,-4.0,101941.0,-5.122000217437744,0,0
1884.944018,-0.801849365234375,0.030914306640625,0.04559326171875,0.594940185546875,0.1220703125,0.244140625,-0.1220703125,0.111572265625,0.0050048828125,0.9990234375,-305.0,90.0,-4.0,101941.0,-5.122000217437744,0,0
1884.95005,-0.801849365234375,0.030914306640625,0.04559326171875,0.594940185546875,0.1220703125,0.244140625,-0.1220703125,0.111572265625,0.0050048828125,0.9990234375,-305.0,90.0,-4.0,101941.0,-5.122000217437744,0,0
1884.957002,-0.801849365234375,0.030914306640625,0.04559326171875,0.594940185546875,-0.18310546875,0.30517578125,0.06103515625,0.1099853515625,0.0067138671875,1.0006103515625,-305.0,90.0,-4.0,101941.0,-5.122000217437744,0,0
1884.964018,-0.8017578125,0.030914306640625,0.04559326171875,0.595062255859375,-0.42724609375,0.3662109375,-0.18310546875,0.1104736328125,0.0045166015625,0.999755859375,-304.0,89.0,-5.0,101941.0,-5.122000217437744,0,0
1884.970996,-0.8017578125,0.030914306640625,0.04559326171875,0.595062255859375,-0.244140625,0.30517578125,0.06103515625,0.1121826171875,0.0052490234375,1.0009765625,-304.0,89.0,-5.0,101941.0,-5.122000217437744,0,0
1884.977995,-0.8017578125,0.030914306640625,0.04559326171875,0.595062255859375,-0.1220703125,0.1220703125,0.06103515625,0.111572265625,0.0035400390625,1.0,-304.0,89.0,-5.0,101941.0,-5.122000217437744,0,0
1884.985016,-0.8017578125,0.03094482421875,0.04559326171875,0.595062255859375,-0.1220703125,0.244140625,-0.18310546875,0.1121826171875,0.0040283203125,0.9981689453125,-304.0,89.0,-5.0,101941.0,-5.122000217437744,0,0
1884.992004,-0.8017578125,0.030914306640625,0.04559326171875,0.595062255859375,0.06103515625,0.3662109375,-0.06103515625,0.108642578125,0.004150390625,1.00146484375,-304.0,89.0,-5.0,101941.0,-5.122000217437744,0,0
1884.999018,-0.8017578125,0.030914306640625,0.04559326171875,0.595062255859375,-0.06103515625,0.18310546875,0.0,0.111572265625,0.0064697265625,0.999267578125,-304.0,89.0,-5.0,101941.0,-5.122000217437744,0,0
1885.005998,-0.8017578125,0.030914306640625,0.04559326171875,0.595062255859375,0.1220703125,0.18310546875,0.18310546875,0.1104736328125,0.0050048828125,0.9991455078125,-304.0,89.0,-5.0,101941.0,-5.122000217437744,0,0
1885.012998,-0.8017578125,0.030914306640625,0.04559326171875,0.595062255859375,-0.30517578125,0.1220703125,-0.06103515625,0.112060546875,0.0067138671875,1.0006103515625,-304.0,89.0,-5.0,101941.0,-5.123000144958496,0,0
1885.020018,-0.8017578125,0.030914306640625,0.04559326171875,0.595062255859375,0.1220703125,0.18310546875,0.1220703125,0.111328125,0.0047607421875,0.999755859375,-304.0,89.0,-5.0,101941.0,-5.123000144958496,0,0
1885.027001,-0.8017578125,0.030914306640625,0.04559326171875,0.595062255859375,0.0,0.18310546875,0.06103515625,0.1097412109375,0.0048828125,1.000732421875,-304.0,89.0,-5.0,101941.0,-5.123000144958496,0,0
1885.034018,-0.8017578125,0.030914306640625,0.04559326171875,0.595062255859375,0.06103515625,0.18310546875,-0.244140625,0.1087646484375,0.00537109375,1.0018310546875,-304.0,89.0,-5.0,101941.0,-5.123000144958496,0,0
1885.040049,-0.8017578125,0.030914306640625,0.04559326171875,0.595062255859375,0.06103515625,0.18310546875,-0.244140625,0.1087646484375,0.00537109375,1.0018310546875,-304.0,89.0,-5.0,101941.0,-5.123000144958496,0,0
1885.060996,-0.801666259765625,0.030914306640625,0.04559326171875,0.59521484375,0.18310546875,0.30517578125,0.1220703125,0.10888671875,0.0057373046875,1.0,-304.0,89.0,-4.0,101941.0,-5.123000144958496,0,0
1885.067995,-0.801666259765625,0.0308837890625,0.04559326171875,0.59521484375,-0.1220703125,0.30517578125,-0.244140625,0.111083984375,0.00634765625,0.9981689453125,-304.0,89.0,-4.0,101941.0,-5.123000144958496,0,0
1885.075016,-0.801666259765625,0.0308837890625,0.04559326171875,0.59521484375,0.0,0.18310546875,0.1220703125,0.1109619140625,0.0050048828125,0.9998779296875,-304.0,89.0,-4.0,101941.0,-5.123000144958496,0,0
1885.082004,-0.801666259765625,0.0308837890625,0.04559326171875,0.59521484375,0.0,0.244140625,-0.06103515625,0.112060546875,0.0050048828125,1.00146484375,-304.0,89.0,-4.0,101941.0,-5.123000144958496,0,0
1885.089018,-0.801666259765625,0.0308837890625,0.04559326171875,0.59521484375,-0.1220703125,0.3662109375,-0.1220703125,0.1102294921875,0.0045166015625,0.999267578125,-304.0,89.0,-4.0,101941.0,-5.123000144958496,0,0
1885.095998,-0.801666259765625,0.0308837890625,0.04559326171875,0.59521484375,-0.1220703125,0.30517578125,0.18310546875,0.109619140625,0.0064697265625,1.0008544921875,-304.0,89.0,-4.0,101941.0,-5.123000144958496,0,0
1885.102998,-0.801666259765625,0.0308837890625,0.04559326171875,0.59521484375,0.3662109375,0.30517578125,-0.244140625,0.10986328125,0.006103515625,1.001220703125,-304.0,89.0,-4.0,101941.0,-5.123000144958496,0,0
1885.110018,-0.801666259765625,0.0308837890625,0.04559326171875,0.59521484375,-0.1220703125,0.06103515625,0.0,0.1109619140625,0.0042724609375,1.0003662109375,-304.0,89.0,-4.0,101941.0,-5.123000144958496,0,0
1885.117001,-0.801666259765625,0.0308837890625,0.04559326171875,0.59521484375,-0.1220703125,0.42724609375,-0.06103515625,0.1104736328125,0.0059814453125,1.0009765625,-304.0,89.0,-4.0,101941.0,-5.123000144958496,0,0
1885.124018,-0.801666259765625,0.0308837890625,0.04559326171875,0.59521484375,-0.1220703125,0.0,-0.06103515625,0.11083984375,0.00244140625,1.0,-304.0,89.0,-4.0,101941.0,-5.123000144958496,0,0
1885.130996,-0.801666259765625,0.0308837890625,0.04559326171875,0.59521484375,-0.30517578125,0.244140625,0.0,0.1102294921875,0.005615234375,0.999755859375,-304.0,89.0,-4.0,101941.0,-5.123000144958496,0,0
1885.150996,-0.801666259765625,0.030914306640625,0.04559326171875,0.59521484375,0.06103515625,0.1220703125,-0.06103515625,0.1123046875,0.0020751953125,0.9998779296875,-304.0,89.0,-4.0,101941.0,-5.123000144958496,0,0
1885.157996,-0.801666259765625,0.030914306640625,0.04559326171875,0.59521484375,-0.3662109375,0.1220703125,0.06103515625,0.1112060546875,0.0052490234375,1.0009765625,-304.0,89.0,-3.0,101941.0,-5.123000144958496,0,0
1885.16502,-0.80157470703125,0.030914306640625,0.04559326171875,0.5953369140625,0.30517578125,0.42724609375,0.06103515625,0.110595703125,0.0057373046875,0.999267578125,-304.0,89.0,-3.0,101941.0,-5.123000144958496,0,0
1885.172004,-0.80157470703125,0.030914306640625,0.04559326171875,0.5953369140625,0.244140625,0.30517578125,0.06103515625,0.1116943359375,0.0015869140625,0.997802734375,-304.0,89.0,-3.0,101941.0,-5.123000144958496,0,0
1885.179018,-0.80157470703125,0.030914306640625,0.04559326171875,0.5953369140625,0.3662109375,0.244140625,-0.1220703125,0.1107177734375,0.004638671875,1.0015869140625,-304.0,89.0,-3.0,101941.0,-5.123000144958496,0,0
1885.185998,-0.80157470703125,0.030914306640625,0.04559326171875,0.5953369140625,0.18310546875,0.30517578125,0.06103515625,0.111083984375,0.0054931640625,0.9989013671875,-304.0,89.0,-3.0,101941.0,-5.123000144958496,0,0
1885.192997,-0.80157470703125,0.030914306640625,0.04559326171875,0.5953369140625,-0.30517578125,0.18310546875,0.0,0.1092529296875,0.006103515625,0.99853515625,-304.0,89.0,-3.0,101941.0,-5.123000144958496,0,0
1885.200018,-0.80157470703125,0.030914306640625,0.045623779296875,0.5953369140625,0.1220703125,0.244140625,0.06103515625,0.112548828125,0.0032958984375,1.00146484375,-304.0,89.0,-3.0,101941.0,-5.123000144958496,0,0
1885.207001,-0.80157470703125,0.030914306640625,0.04559326171875,0.5953369140625,-0.06103515625,0.3662109375,-0.244140625,0.1102294921875,0.0050048828125,1.002685546875,-304.0,89.0,-3.0,101941.0,-5.122000217437744,0,0
1885.214018,-0.80157470703125,0.03094482421875,0.045623779296875,0.5953369140625,0.1220703125,0.48828125,0.1220703125,0.1131591796875,0.0050048828125,1.001953125,-304.0,89.0,-3.0,101941.0,-5.122000217437744,0,0
1885.220995,-0.80157470703125,0.03094482421875,0.045623779296875,0.5953369140625,-0.06103515625,0.06103515625,0.0,0.1129150390625,0.003662109375,0.99951171875,-304.0,89.0,-3.0,101941.0,-5.122000217437744,0,0
1885.227028,-0.80157470703125,0.03094482421875,0.045623779296875,0.5953369140625,-0.06103515625,0.06103515625,0.0,0.1129150390625,0.003662109375,0.99951171875,-304.0,89.0,-3.0,101941.0,-5.122000217437744,0,0
1885.234018,-0.80157470703125,0.03094482421875,0.045623779296875,0.5953369140625,0.1220703125,0.42724609375,-0.06103515625,0.1097412109375,0.00390625,1.0003662109375,-304.0,89.0,-3.0,101941.0,-5.122000217437744,0,0
1885.240996,-0.80157470703125,0.03094482421875,0.04559326171875,0.5953369140625,0.18310546875,0.244140625,-0.1220703125,0.1097412109375,0.0057373046875,1.0020751953125,-304.0,89.0,-3.0,101941.0,-5.122000217437744,0,0
1885.247995,-0.80157470703125,0.030914306640625,0.045623779296875,0.5953369140625,0.18310546875,0.30517578125,0.06103515625,0.1119384765625,0.00732421875,0.998779296875,-304.0,89.0,-3.0,101941.0,-5.122000217437744,0,0
1885.25502,-0.80157470703125,0.030914306640625,0.045623779296875,0.5953369140625,-0.1220703125,0.1220703125,-0.06103515625,0.1107177734375,0.005859375,0.999267578125,-304.0,89.0,-3.0,101941.0,-5.122000217437744,0,0
1885.262004,-0.801513671875,0.03094482421875,0.04559326171875,0.59539794921875,-0.1220703125,0.42724609375,-0.06103515625,0.110595703125,0.0040283203125,1.0006103515625,-305.0,89.0,-3.0,101941.0,-5.122000217437744,0,0
1885.269018,-0.801513671875,0.03094482421875,0.04559326171875,0.59539794921875,0.06103515625,0.244140625,0.06103515625,0.1103515625,0.0035400390625,1.0015869140625,-305.0,89.0,-3.0,101941.0,-5.122000217437744,0,0
1885.275998,-0.801513671875,0.03094482421875,0.04559326171875,0.59539794921875,-0.1220703125,0.30517578125,0.06103515625,0.1124267578125,0.0035400390625,1.0015869140625,-305.0,89.0,-3.0,101941.0,-5.122000217437744,0,0
1885.282998,-0.801513671875,0.03094482421875,0.04559326171875,0.59539794921875,0.0,0.30517578125,0.0,0.110595703125,0.004150390625,0.9991455078125,-305.0,89.0,-3.0,101941.0,-5.122000217437744,0,0
1885.290018,-0.801513671875,0.03094482421875,0.04559326171875,0.59539794921875,0.0,0.244140625,-0.18310546875,0.1104736328125,0.0042724609375,1.0010986328125,-305.0,89.0,-3.0,101941.0,-5.122000217437744,0,0
1885.297001,-0.801513671875,0.03094482421875,0.04559326171875,0.59539794921875,0.06103515625,0.244140625,-0.1220703125,0.1103515625,0.0050048828125,1.0,-305.0,89.0,-3.0,101941.0,-5.122000217437744,0,0
1885.304018,-0.801513671875,0.030975341796875,0.04559326171875,0.59539794921875,0.06103515625,0.06103515625,-0.1220703125,0.111328125,0.0029296875,1.0003662109375,-305.0,89.0,-3.0,101941.0,-5.122000217437744,0,0
1885.352004,-0.801513671875,0.03094482421875,0.045623779296875,0.59539794921875,0.0,0.18310546875,0.18310546875,0.10888671875,0.00439453125,1.0010986328125,-305.0,89.0,-3.0,101941.0,-5.122000217437744,0,0
1885.359018,-0.801513671875,0.03094482421875,0.045623779296875,0.59539794921875,-0.06103515625,0.30517578125,0.06103515625,0.1109619140625,0.005615234375,1.001953125,-305.0,88.0,-3.0,101941.0,-5.122000217437744,0,0
1885.365998,-0.801483154296875,0.03094482421875,0.045623779296875,0.595458984375,0.244140625,0.3662109375,0.0,0.1099853515625,0.005615234375,1.0015869140625,-305.0,88.0,-3.0,101941.0,-5.122000217437744,0,0
1885.372997,-0.801483154296875,0.03094482421875,0.045623779296875,0.595458984375,0.0,0.18310546875,0.06103515625,0.1080322265625,0.005615234375,1.0010986328125,-305.0,88.0,-3.0,101941.0,-5.122000217437744,0,0
1885.380018,-0.801483154296875,0.03094482421875,0.045623779296875,0.595458984375,0.06103515625,0.18310546875,0.3662109375,0.1097412109375,0.006591796875,1.0023193359375,-305.0,88.0,-3.0,101941.0,-5.122000217437744,0,0
1885.387001,-0.801483154296875,0.03094482421875,0.045623779296875,0.595458984375,-0.06103515625,0.30517578125,-0.1220703125,0.1104736328125,0.005615234375,0.999267578125,-305.0,88.0,-3.0,101941.0,-5.122000217437744,0,0
1885.394018,-0.801483154296875,0.03094482421875,0.045623779296875,0.595458984375,0.06103515625,0.18310546875,-0.244140625,0.111083984375,0.005126953125,1.0013427734375,-305.0,88.0,-3.0,101941.0,-5.122000217437744,0,0
1885.414033,-0.801483154296875,0.03094482421875,0.04559326171875,0.595458984375,0.1220703125,0.244140625,-0.06103515625,0.1083984375,0.003662109375,1.00048828125,-305.0,88.0,-3.0,101941.0,-5.123000144958496,0,0
1885.420996,-0.801483154296875,0.03094482421875,0.04559326171875,0.595458984375,0.30517578125,0.3662109375,0.0,0.1090087890625,0.005126953125,0.9996337890625,-305.0,88.0,-3.0,101941.0,-5.123000144958496,0,0
1885.427996,-0.801483154296875,0.03094482421875,0.04559326171875,0.595458984375,-0.06103515625,0.30517578125,0.0,0.109130859375,0.0048828125,1.0001220703125,-305.0,88.0,-3.0,101941.0,-5.123000144958496,0,0
1885.43502,-0.801483154296875,0.03094482421875,0.045562744140625,0.595458984375,-0.1220703125,0.244140625,-0.06103515625,0.110595703125,0.0023193359375,0.9996337890625,-305.0,88.0,-3.0,101941.0,-5.123000144958496,0,0
1885.442004,-0.801483154296875,0.03094482421875,0.045562744140625,0.595458984375,0.06103515625,0.18310546875,0.1220703125,0.111083984375,0.00390625,1.0029296875,-305.0,88.0,-3.0,101941.0,-5.123000144958496,0,0
1885.449018,-0.801483154296875,0.03094482421875,0.045562744140625,0.595458984375,0.0,0.244140625,-0.18310546875,0.109130859375,0.00439453125,0.999755859375,-305.0,88.0,-3.0,101941.0,-5.123000144958496,0,0
1885.455998,-0.801483154296875,0.030914306640625,0.045562744140625,0.595458984375,-0.18310546875,0.3662109375,0.18310546875,0.1083984375,0.00634765625,1.000732421875,-304.0,88.0,-3.0,101941.0,-5.123000144958496,0,0
1885.462998,-0.8013916015625,0.03094482421875,0.045562744140625,0.5955810546875,-0.30517578125,0.30517578125,-0.42724609375,0.11083984375,0.0062255859375,0.998779296875,-304.0,88.0,-3.0,101941.0,-5.123000144958496,0,0
1885.470018,-0.8013916015625,0.03094482421875,0.045562744140625,0.5955810546875,0.1220703125,0.244140625,0.0,0.109130859375,0.004638671875,1.0,-304.0,88.0,-3.0,101941.0,-5.123000144958496,0,0
1885.477001,-0.8013916015625,0.03094482421875,0.045562744140625,0.5955810546875,0.18310546875,0.18310546875,0.0,0.112548828125,0.0040283203125,0.998779296875,-304.0,88.0,-3.0,101941.0,-5.123000144958496,0,0
1885.484018,-0.8013916015625,0.03094482421875,0.045562744140625,0.5955810546875,0.0,0.244140625,0.06103515625,0.10888671875,0.0045166015625,1.0003662109375,-304.0,88.0,-3.0,101941.0,-5.123000144958496,0,0
1885.490995,-0.8013916015625,0.03094482421875,0.045562744140625,0.5955810546875,0.0,0.30517578125,0.244140625,0.1104736328125,0.0029296875,1.0008544921875,-304.0,88.0,-3.0,101941.0,-5.123000144958496,0,0
1885.497995,-0.8013916015625,0.03094482421875,0.045562744140625,0.5955810546875,0.06103515625,0.30517578125,-0.06103515625,0.1097412109375,0.001953125,0.9996337890625,-304.0,88.0,-3.0,101941.0,-5.123000144958496,0,0
1885.50502,-0.8013916015625,0.03094482421875,0.0455322265625,0.5955810546875,0.0,0.18310546875,0.0,0.109375,0.005126953125,0.999755859375,-304.0,88.0,-3.0,101941.0,-5.122000217437744,0,0
1885.511052,-0.8013916015625,0.03094482421875,0.0455322265625,0.5955810546875,0.0,0.18310546875,0.0,0.109375,0.005126953125,0.999755859375,-304.0,88.0,-3.0,101941.0,-5.122000217437744,0,0
1885.517995,-0.8013916015625,0.03094482421875,0.045562744140625,0.5955810546875,-0.244140625,-0.06103515625,0.0,0.1085205078125,0.006103515625,1.0009765625,-304.0,88.0,-3.0,101941.0,-5.122000217437744,0,0
1885.52502,-0.8013916015625,0.03094482421875,0.045562744140625,0.5955810546875,-0.1220703125,0.244140625,0.0,0.1099853515625,0.0032958984375,1.000244140625,-304.0,88.0,-3.0,101941.0,-5.122000217437744,0,0
1885.532004,-0.8013916015625,0.030975341796875,0.045562744140625,0.5955810546875,0.06103515625,0.18310546875,0.1220703125,0.1126708984375,0.0028076171875,1.0013427734375,-304.0,88.0,-3.0,101941.0,-5.122000217437744,0,0
1885.539018,-0.8013916015625,0.030975341796875,0.0455322265625,0.5955810546875,-0.06103515625,0.06103515625,0.1220703125,0.109375,0.0042724609375,1.00048828125,-304.0,88.0,-3.0,101941.0,-5.122000217437744,0,0
1885.545998,-0.8013916015625,0.030975341796875,0.045562744140625,0.5955810546875,0.0,0.3662109375,0.1220703125,0.1131591796875,0.00439453125,1.0003662109375,-304.0,88.0,-3.0,101941.0,-5.122000217437744,0,0
1885.552997,-0.8013916015625,0.030975341796875,0.0455322265625,0.5955810546875,-0.06103515625,0.18310546875,0.1220703125,0.1112060546875,0.0035400390625,0.9998779296875,-304.0,88.0,-3.0,101941.0,-5.122000217437744,0,0
1885.560018,-0.8013916015625,0.030975341796875,0.0455322265625,0.5955810546875,-0.18310546875,0.18310546875,0.0,0.1092529296875,0.0035400390625,1.0013427734375,-304.0,88.0,-4.0,101941.0,-5.122000217437744,0,0
1885.567001,-0.80126953125,0.030975341796875,0.0455322265625,0.595703125,0.0,0.244140625,-0.1220703125,0.107421875,0.0059814453125,1.0010986328125,-304.0,88.0,-4.0,101941.0,-5.122000217437744,0,0
1885.587996,-0.80126953125,0.030975341796875,0.0455322265625,0.595703125,0.18310546875,0.244140625,0.0,0.1112060546875,0.00390625,1.0013427734375,-304.0,88.0,-4.0,101941.0,-5.122000217437744,0,0
1885.59502,-0.80126953125,0.030975341796875,0.0455322265625,0.595703125,-0.06103515625,0.30517578125,0.18310546875,0.1126708984375,0.0037841796875,1.0023193359375,-304.0,88.0,-4.0,101941.0,-5.122000217437744,0,0
1885.601052,-0.80126953125,0.030975341796875,0.0455322265625,0.595703125,-0.06103515625,0.30517578125,0.18310546875,0.1126708984375,0.0037841796875,1.0023193359375,-304.0,88.0,-4.0,101941.0,-5.122000217437744,0,0
1885.607995,-0.80126953125,0.031005859375,0.0455322265625,0.595703125,0.1220703125,0.0,0.0,0.1123046875,0.0045166015625,1.0025634765625,-304.0,88.0,-4.0,101941.0,-5.122000217437744,0,0
1885.61502,-0.80126953125,0.031005859375,0.0455322265625,0.595703125,0.1220703125,0.1220703125,0.18310546875,0.1094970703125,0.002197265625,0.9998779296875,-304.0,88.0,-4.0,101941.0,-5.122000217437744,0,0
1885.622004,-0.80126953125,0.031005859375,0.0455322265625,0.595703125,0.06103515625,0.18310546875,0.1220703125,0.109619140625,0.0025634765625,1.0010986328125,-304.0,88.0,-4.0,101941.0,-5.122000217437744,0,0
1885.629018,-0.80126953125,0.031005859375,0.0455322265625,0.595703125,0.1220703125,0.244140625,-0.06103515625,0.10888671875,0.00390625,1.00048828125,-304.0,88.0,-4.0,101941.0,-5.122000217437744,0,0
1885.635998,-0.801300048828125,0.031005859375,0.0455322265625,0.595703125,0.18310546875,0.244140625,0.244140625,0.1097412109375,0.0025634765625,1.0010986328125,-304.0,88.0,-4.0,101941.0,-5.122000217437744,0,0
1885.642997,-0.801300048828125,0.031005859375,0.0455322265625,0.595703125,0.18310546875,0.18310546875,0.06103515625,0.1114501953125,0.00244140625,1.0028076171875,-304.0,88.0,-4.0,101941.0,-5.122000217437744,0,0
1885.650018,-0.801300048828125,0.031036376953125,0.0455322265625,0.595703125,0.18310546875,0.1220703125,-0.18310546875,0.1109619140625,0.00341796875,1.0008544921875,-304.0,88.0,-4.0,101941.0,-5.122000217437744,0,0
1885.670995,-0.80126953125,0.031005859375,0.0455322265625,0.595703125,-0.06103515625,0.18310546875,0.18310546875,0.1121826171875,0.0067138671875,1.00244140625,-305.0,89.0,-5.0,101941.0,-5.122000217437744,0,0
1885.677996,-0.80126953125,0.031005859375,0.0455322265625,0.595703125,0.0,0.42724609375,0.06103515625,0.1094970703125,0.005859375,1.0015869140625,-305.0,89.0,-5.0,101941.0,-5.122000217437744,0,0
1885.68502,-0.80126953125,0.031005859375,0.0455322265625,0.595703125,0.0,0.30517578125,0.0,0.111328125,0.003173828125,1.0006103515625,-305.0,89.0,-5.0,101941.0,-5.122000217437744,0,0
1885.691999,-0.80126953125,0.031005859375,0.0455322265625,0.595703125,0.06103515625,0.3662109375,0.06103515625,0.1094970703125,0.0037841796875,0.9998779296875,-305.0,89.0,-5.0,101941.0,-5.122000217437744,0,0
1885.698032,-0.80126953125,0.031005859375,0.0455322265625,0.595703125,0.06103515625,0.3662109375,0.06103515625,0.1094970703125,0.0037841796875,0.9998779296875,-305.0,89.0,-5.0,101941.0,-5.122000217437744,0,0
1885.70502,-0.80126953125,0.031005859375,0.0455322265625,0.595703125,-0.18310546875,0.30517578125,-0.06103515625,0.1107177734375,0.0035400390625,1.0018310546875,-305.0,89.0,-5.0,101941.0,-5.121000289916992,0,0
1885.712004,-0.80126953125,0.030975341796875,0.0455322265625,0.595703125,-0.30517578125,0.1220703125,0.1220703125,0.1123046875,0.0059814453125,1.0010986328125,-305.0,89.0,-5.0,101941.0,-5.121000289916992,0,0
1885.719018,-0.80126953125,0.030975341796875,0.0455322265625,0.595703125,0.244140625,0.30517578125,0.0,0.110107421875,0.0040283203125,1.0028076171875,-305.0,89.0,-5.0,101941.0,-5.121000289916992,0,0
1885.725998,-0.80126953125,0.030975341796875,0.0455322265625,0.595703125,-0.18310546875,0.3662109375,0.1220703125,0.110107421875,0.0062255859375,1.00146484375,-305.0,89.0,-5.0,101941.0,-5.121000289916992,0,0
1885.732998,-0.80126953125,0.031005859375,0.0455322265625,0.595703125,0.0,0.30517578125,0.0,0.1121826171875,0.00439453125,1.0008544921875,-305.0,89.0,-5.0,101941.0,-5.121000289916992,0,0
1885.781999,-0.80126953125,0.031005859375,0.0455322265625,0.595703125,-0.06103515625,0.1220703125,0.18310546875,0.11181640625,0.004638671875,1.00146484375,-306.0,89.0,-5.0,101941.0,-5.121000289916992,0,0
1885.788031,-0.80126953125,0.031005859375,0.0455322265625,0.595703125,-0.06103515625,0.1220703125,0.18310546875,0.11181640625,0.004638671875,1.00146484375,-306.0,89.0,-5.0,101941.0,-5.121000289916992,0,0
1885.795016,-0.80126953125,0.031005859375,0.045562744140625,0.595703125,0.0,0.42724609375,0.1220703125,0.1104736328125,0.004638671875,1.0025634765625,-306.0,89.0,-5.0,101941.0,-5.121000289916992,0,0
1885.802004,-0.80126953125,0.031005859375,0.0455322265625,0.595703125,0.06103515625,0.18310546875,0.30517578125,0.1099853515625,0.004150390625,1.0015869140625,-306.0,89.0,-5.0,101941.0,-5.121000289916992,0,0
1885.809018,-0.80126953125,0.031005859375,0.0455322265625,0.595703125,0.0,0.18310546875,-0.244140625,0.1114501953125,0.0048828125,1.0030517578125,-306.0,89.0,-5.0,101941.0,-5.122000217437744,0,0
1885.815998,-0.80126953125,0.031005859375,0.0455322265625,0.595703125,0.06103515625,0.244140625,-0.06103515625,0.1102294921875,0.00341796875,1.001220703125,-306.0,89.0,-5.0,101941.0,-5.122000217437744,0,0
1885.822997,-0.80126953125,0.031005859375,0.0455322265625,0.595703125,0.1220703125,0.30517578125,0.06103515625,0.1103515625,0.0037841796875,1.0006103515625,-306.0,89.0,-5.0,101941.0,-5.122000217437744,0,0
1885.844018,-0.80126953125,0.031005859375,0.0455322265625,0.595703125,0.06103515625,0.18310546875,0.06103515625,0.1097412109375,0.00341796875,0.9998779296875,-306.0,89.0,-5.0,101941.0,-5.122000217437744,0,0
1885.850995,-0.80126953125,0.031005859375,0.0455322265625,0.595703125,-0.06103515625,0.48828125,-0.244140625,0.1109619140625,0.0025634765625,1.0023193359375,-306.0,89.0,-5.0,101941.0,-5.122000217437744,0,0
1885.857995,-0.80126953125,0.031005859375,0.0455322265625,0.595703125,-0.18310546875,0.30517578125,0.0,0.109619140625,0.0054931640625,1.003173828125,-305.0,89.0,-6.0,101941.0,-5.122000217437744,0,0
1885.86502,-0.80126953125,0.031005859375,0.0455322265625,0.595703125,0.0,0.30517578125,0.1220703125,0.1109619140625,0.00537109375,1.0015869140625,-305.0,89.0,-6.0,101941.0,-5.122000217437744,0,0
1885.871999,-0.80126953125,0.031005859375,0.0455322265625,0.595703125,-0.06103515625,0.18310546875,-0.18310546875,0.1116943359375,0.0057373046875,1.0013427734375,-305.0,89.0,-6.0,101941.0,-5.122000217437744,0,0
1885.879016,-0.80126953125,0.031005859375,0.0455322265625,0.595703125,0.0,0.18310546875,-0.06103515625,0.1082763671875,0.003662109375,1.00341796875,-305.0,89.0,-6.0,101941.0,-5.122000217437744,0,0
1885.885047,-0.80126953125,0.031005859375,0.0455322265625,0.595703125,0.0,0.18310546875,-0.06103515625,0.1082763671875,0.003662109375,1.00341796875,-305.0,89.0,-6.0,101941.0,-5.122000217437744,0,0
1885.892004,-0.80126953125,0.030975341796875,0.0455322265625,0.595703125,0.0,0.1220703125,-0.1220703125,0.1114501953125,0.0042724609375,1.0025634765625,-305.0,89.0,-6.0,101941.0,-5.122000217437744,0,0
1885.899018,-0.80126953125,0.030975341796875,0.0455322265625,0.595703125,0.06103515625,0.1220703125,-0.06103515625,0.110107421875,0.0052490234375,1.0006103515625,-305.0,89.0,-6.0,101941.0,-5.122000217437744,0,0
1885.905998,-0.80126953125,0.030975341796875,0.0455322265625,0.595703125,-0.1220703125,0.3662109375,0.18310546875,0.1104736328125,0.00537109375,1.00244140625,-305.0,89.0,-6.0,101941.0,-5.122000217437744,0,0
1885.912998,-0.80126953125,0.030975341796875,0.0455322265625,0.595703125,0.1220703125,0.244140625,-0.1220703125,0.109375,0.0052490234375,1.0,-305.0,89.0,-6.0,101941.0,-5.122000217437744,0,0
1885.920018,-0.80126953125,0.030975341796875,0.0455322265625,0.595703125,-0.1220703125,0.244140625,-0.06103515625,0.112060546875,0.0064697265625,1.00146484375,-305.0,89.0,-6.0,101941.0,-5.122000217437744,0,0
1885.927001,-0.80126953125,0.030975341796875,0.0455322265625,0.595703125,-0.06103515625,0.42724609375,0.18310546875,0.1090087890625,0.00390625,1.00146484375,-305.0,89.0,-6.0,101941.0,-5.122000217437744,0,0
1885.934018,-0.80126953125,0.030975341796875,0.0455322265625,0.595703125,0.1220703125,0.30517578125,0.06103515625,0.1131591796875,0.005615234375,1.0013427734375,-305.0,89.0,-6.0,101941.0,-5.122000217437744,0,0
1885.940995,-0.80126953125,0.030975341796875,0.0455322265625,0.595703125,0.06103515625,0.42724609375,0.06103515625,0.1107177734375,0.00439453125,1.004150390625,-305.0,89.0,-6.0,101941.0,-5.122000217437744,0,0
1885.947995,-0.80126953125,0.030975341796875,0.0455322265625,0.595703125,0.0,0.244140625,-0.18310546875,0.1112060546875,0.0037841796875,1.0015869140625,-305.0,89.0,-6.0,101941.0,-5.122000217437744,0,0
1885.95502,-0.80126953125,0.030975341796875,0.0455322265625,0.595703125,0.18310546875,0.244140625,0.06103515625,0.1107177734375,0.0059814453125,1.001708984375,-305.0,89.0,-6.0,101941.0,-5.122000217437744,0,0
1885.961999,-0.80126953125,0.030975341796875,0.0455322265625,0.595703125,-0.06103515625,0.244140625,-0.06103515625,0.10986328125,0.00439453125,0.999267578125,-306.0,89.0,-4.0,101941.0,-5.122000217437744,0,0
1885.969016,-0.80126953125,0.030975341796875,0.0455322265625,0.595703125,0.0,0.3662109375,-0.18310546875,0.1112060546875,0.001953125,1.0028076171875,-306.0,89.0,-4.0,101941.0,-5.122000217437744,0,0
1885.975051,-0.80126953125,0.030975341796875,0.0455322265625,0.595703125,0.0,0.3662109375,-0.18310546875,0.1112060546875,0.001953125,1.0028076171875,-306.0,89.0,-4.0,101941.0,-5.122000217437744,0,0
1885.982004,-0.80126953125,0.030975341796875,0.0455322265625,0.595703125,-0.18310546875,0.3662109375,0.06103515625,0.11083984375,0.0048828125,1.001953125,-306.0,89.0,-4.0,101941.0,-5.122000217437744,0,0
1885.989018,-0.80126953125,0.030975341796875,0.0455322265625,0.595703125,0.06103515625,0.244140625,-0.1220703125,0.11181640625,0.003173828125,1.00146484375,-306.0,89.0,-4.0,101941.0,-5.122000217437744,0,0
1885.995998,-0.80126953125,0.030975341796875,0.0455322265625,0.595703125,-0.06103515625,0.42724609375,0.06103515625,0.112060546875,0.00634765625,1.0015869140625,-306.0,89.0,-4.0,101941.0,-5.122000217437744,0,0
1886.017001,-0.80126953125,0.030975341796875,0.0455322265625,0.595703125,-0.18310546875,0.18310546875,-0.18310546875,0.1104736328125,0.0059814453125,1.001708984375,-306.0,89.0,-4.0,101941.0,-5.123000144958496,0,0
1886.024018,-0.80126953125,0.030975341796875,0.0455322265625,0.595703125,0.06103515625,0.1220703125,-0.06103515625,0.1107177734375,0.004638671875,1.0018310546875,-306.0,89.0,-4.0,101941.0,-5.123000144958496,0,0
1886.030996,-0.80126953125,0.030975341796875,0.0455322265625,0.595703125,-0.06103515625,0.244140625,0.1220703125,0.1114501953125,0.0064697265625,1.0020751953125,-306.0,89.0,-4.0,101941.0,-5.123000144958496,0,0
1886.038,-0.80126953125,0.030975341796875,0.0455322265625,0.595703125,0.18310546875,0.3662109375,0.18310546875,0.1094970703125,0.0028076171875,1.001953125,-306.0,89.0,-4.0,101941.0,-5.123000144958496,0,0
1886.04502,-0.80126953125,0.030975341796875,0.0455322265625,0.595703125,-0.1220703125,0.244140625,0.0,0.11083984375,0.00390625,1.0037841796875,-306.0,89.0,-4.0,101941.0,-5.123000144958496,0,0
1886.051999,-0.80126953125,0.030975341796875,0.0455322265625,0.595703125,-0.18310546875,0.06103515625,0.1220703125,0.112060546875,0.0040283203125,1.003173828125,-306.0,89.0,-4.0,101941.0,-5.123000144958496,0,0
1886.059016,-0.80126953125,0.030975341796875,0.0455322265625,0.595703125,-0.06103515625,0.244140625,-0.18310546875,0.108154296875,0.0035400390625,1.00146484375,-305.0,89.0,-4.0,101941.0,-5.123000144958496,0,0
1886.065998,-0.80126953125,0.030975341796875,0.0455322265625,0.595703125,0.06103515625,0.18310546875,-0.06103515625,0.1094970703125,0.0050048828125,1.00244140625,-305.0,89.0,-4.0,101941.0,-5.123000144958496,0,0
1886.072031,-0.80126953125,0.030975341796875,0.0455322265625,0.595703125,0.06103515625,0.18310546875,-0.06103515625,0.1094970703125,0.0050048828125,1.00244140625,-305.0,89.0,-4.0,101941.0,-5.123000144958496,0,0
1886.079018,-0.80126953125,0.030975341796875,0.0455322265625,0.595703125,-0.1220703125,0.42724609375,-0.18310546875,0.109130859375,0.0048828125,1.001708984375,-305.0,89.0,-4.0,101941.0,-5.123000144958496,0,0
1886.085998,-0.801300048828125,0.030975341796875,0.0455322265625,0.595703125,0.0,0.18310546875,-0.06103515625,0.10888671875,0.00634765625,1.0030517578125,-305.0,89.0,-4.0,101941.0,-5.123000144958496,0,0
1886.107001,-0.801300048828125,0.030975341796875,0.0455322265625,0.595703125,-0.06103515625,0.244140625,-0.06103515625,0.1094970703125,0.0057373046875,1.0018310546875,-305.0,89.0,-4.0,101941.0,-5.123000144958496,0,0
1886.114018,-0.801300048828125,0.030975341796875,0.0455322265625,0.595703125,0.06103515625,0.06103515625,-0.06103515625,0.1109619140625,0.0054931640625,1.0009765625,-305.0,89.0,-4.0,101941.0,-5.123000144958496,0,0
1886.120995,-0.801300048828125,0.03094482421875,0.045501708984375,0.595703125,-0.06103515625,0.244140625,0.0,0.10595703125,0.005615234375,1.0020751953125,-305.0,89.0,-4.0,101941.0,-5.123000144958496,0,0
1886.127995,-0.801300048828125,0.03094482421875,0.045501708984375,0.595703125,0.1220703125,0.18310546875,-0.18310546875,0.1103515625,0.005126953125,1.0013427734375,-305.0,89.0,-4.0,101941.0,-5.123000144958496,0,0
1886.13502,-0.801300048828125,0.03094482421875,0.045501708984375,0.595703125,0.0,0.48828125,0.0,0.1107177734375,0.0042724609375,1.0037841796875,-305.0,89.0,-4.0,101941.0,-5.123000144958496,0,0
1886.141999,-0.801300048828125,0.03094482421875,0.045501708984375,0.595703125,0.244140625,0.42724609375,0.06103515625,0.1080322265625,0.005126953125,1.001220703125,-305.0,89.0,-4.0,101941.0,-5.123000144958496,0,0
1886.149016,-0.801300048828125,0.03094482421875,0.045501708984375,0.595703125,-0.06103515625,0.244140625,-0.06103515625,0.1112060546875,0.00439453125,1.00048828125,-305.0,89.0,-4.0,101941.0,-5.123000144958496,0,0
1886.155998,-0.801300048828125,0.03094482421875,0.045501708984375,0.595703125,0.06103515625,0.30517578125,0.30517578125,0.110107421875,0.0023193359375,1.0023193359375,-304.0,90.0,-4.0,101942.0,-5.124000072479248,0,0
1886.16203,-0.801300048828125,0.03094482421875,0.045501708984375,0.595703125,0.06103515625,0.30517578125,0.30517578125,0.110107421875,0.0023193359375,1.0023193359375,-304.0,90.0,-4.0,101942.0,-5.124000072479248,0,0
1886.169018,-0.80133056640625,0.030914306640625,0.045501708984375,0.59564208984375,-0.1220703125,0.48828125,0.0,0.1085205078125,0.0057373046875,0.9991455078125,-304.0,90.0,-4.0,101942.0,-5.124000072479248,0,0
1886.175998,-0.80133056640625,0.03094482421875,0.045501708984375,0.59564208984375,0.06103515625,0.0,0.18310546875,0.1129150390625,0.0057373046875,0.9998779296875,-304.0,90.0,-4.0,101942.0,-5.124000072479248,0,0
1886.239016,-0.80133056640625,0.03094482421875,0.045501708984375,0.59564208984375,0.06103515625,0.06103515625,-0.06103515625,0.110595703125,0.0030517578125,1.001953125,-304.0,90.0,-4.0,101942.0,-5.124000072479248,0,0
1886.245998,-0.80133056640625,0.03094482421875,0.045501708984375,0.59564208984375,-0.06103515625,0.3662109375,0.0,0.10986328125,0.0037841796875,1.00146484375,-304.0,90.0,-4.0,101942.0,-5.124000072479248,0,0
1886.252997,-0.80133056640625,0.03094482421875,0.045501708984375,0.59564208984375,-0.1220703125,0.18310546875,0.0,0.109375,0.0062255859375,1.0013427734375,-304.0,90.0,-4.0,101942.0,-5.124000072479248,0,0
