Time stamp(sec),quaternion_x,quaternion_y,quaternion_z,quaternion_w,roll_angular_rate,pitch_angular_rate,yaw_angular_rate,acc_X,acc_Y,acc_Z,mag_X,mag_Y,mag_Z,pressure,altitude
183.022998,-0.3599483370780945,-0.007971248589456081,0.03726867958903313,0.9321689009666443,-0.3662109375,-0.244140625,0.18310546875,0.062744140625,-0.0279541015625,-0.9775390625,-34.0,-278.0,474.0,102119.0,-6.593000411987305,0,0
183.030018,-0.3599483370780945,-0.007971248589456081,0.03726867958903313,0.9321689009666443,-0.244140625,-0.18310546875,0.0,0.06591796875,-0.02783203125,-0.9742431640625,-34.0,-278.0,474.0,102119.0,-6.593000411987305,0,0
183.036996,-0.35994952917099,-0.00794282928109169,0.037257660180330276,0.9321680068969727,0.244140625,0.244140625,0.06103515625,0.0634765625,-0.0281982421875,-0.9681396484375,-34.0,-278.0,474.0,102119.0,-6.593000411987305,0,0
183.043997,-0.3599483370780945,-0.007971248589456081,0.03726867958903313,0.9321689009666443,-0.1220703125,0.0,-0.18310546875,0.0650634765625,-0.0294189453125,-0.9771728515625,-34.0,-278.0,474.0,102119.0,-6.593000411987305,0,0
183.051021,-0.3599483370780945,-0.007971248589456081,0.03726867958903313,0.9321689009666443,-0.48828125,-0.54931640625,-0.30517578125,0.06591796875,-0.0294189453125,-0.9791259765625,-34.0,-278.0,474.0,102119.0,-6.593000411987305,0,0
183.058001,-0.3599483370780945,-0.007971248589456081,0.03726867958903313,0.9321689009666443,0.244140625,0.3662109375,-0.18310546875,0.0640869140625,-0.0322265625,-0.9647216796875,-34.0,-278.0,474.0,102119.0,-6.593000411987305,0,0
183.064037,-0.3599483370780945,-0.007971248589456081,0.03726867958903313,0.9321689009666443,0.244140625,0.3662109375,-0.18310546875,0.0640869140625,-0.0322265625,-0.9647216796875,-34.0,-278.0,474.0,102119.0,-6.593000411987305,0,0
183.071017,-0.35994952917099,-0.00794282928109169,0.037257660180330276,0.9321680068969727,-0.06103515625,-0.1220703125,-0.244140625,0.062744140625,-0.031982421875,-0.9779052734375,-34.0,-278.0,474.0,102119.0,-6.593000411987305,0,0
183.078,-0.35994952917099,-0.00794282928109169,0.037257660180330276,0.9321680068969727,-0.06103515625,-0.1220703125,-0.244140625,0.062744140625,-0.031982421875,-0.9779052734375,-34.0,-278.0,474.0,102119.0,-6.593000411987305,0,0
183.085019,-0.3597505986690521,-0.00793439894914627,0.037251509726047516,0.932245135307312,-0.18310546875,0.0,0.18310546875,0.0673828125,-0.028564453125,-0.9688720703125,-36.0,-276.0,475.0,102119.0,-6.593000411987305,0,0
183.091999,-0.3597505986690521,-0.00793439894914627,0.037251509726047516,0.932245135307312,0.1220703125,0.42724609375,0.1220703125,0.0655517578125,-0.0316162109375,-0.96826171875,-36.0,-276.0,475.0,102119.0,-6.593000411987305,0,0
183.098996,-0.3597505986690521,-0.00793439894914627,0.037251509726047516,0.932245135307312,-0.3662109375,-0.06103515625,-0.42724609375,0.0640869140625,-0.03076171875,-0.976806640625,-36.0,-276.0,475.0,102119.0,-6.593000411987305,0,0
183.10602,-0.3597505986690521,-0.00793439894914627,0.037251509726047516,0.932245135307312,-0.54931640625,-0.244140625,-0.1220703125,0.0648193359375,-0.030029296875,-0.9754638671875,-36.0,-276.0,475.0,102119.0,-6.593000411987305,0,0
183.112998,-0.35975146293640137,-0.007945418357849121,0.03722308948636055,0.9322463870048523,0.1220703125,0.3662109375,-0.18310546875,0.065185546875,-0.032470703125,-0.968017578125,-36.0,-276.0,475.0,102119.0,-6.593000411987305,0,0
183.120018,-0.35975146293640137,-0.007945418357849121,0.03722308948636055,0.9322463870048523,0.1220703125,0.1220703125,0.0,0.0640869140625,-0.0291748046875,-0.9677734375,-36.0,-276.0,475.0,102119.0,-6.593000411987305,0,0
183.126996,-0.3597505986690521,-0.00793439894914627,0.037251509726047516,0.932245135307312,-0.244140625,-0.18310546875,-0.18310546875,0.06591796875,-0.0286865234375,-0.975341796875,-36.0,-276.0,475.0,102119.0,-6.593000411987305,0,0
183.133996,-0.35975146293640137,-0.007945418357849121,0.03722308948636055,0.9322463870048523,0.0,0.244140625,-0.1220703125,0.0670166015625,-0.0321044921875,-0.9691162109375,-36.0,-276.0,475.0,102119.0,-6.593000411987305,0,0
183.141021,-0.35975146293640137,-0.007945418357849121,0.03722308948636055,0.9322463870048523,0.06103515625,0.3662109375,0.18310546875,0.067626953125,-0.032470703125,-0.9678955078125,-36.0,-276.0,475.0,102119.0,-6.593000411987305,0,0
183.148002,-0.35975146293640137,-0.007945418357849121,0.03722308948636055,0.9322463870048523,-0.30517578125,0.0,-0.244140625,0.0645751953125,-0.029541015625,-0.9775390625,-36.0,-276.0,475.0,102119.0,-6.593000411987305,0,0
183.155015,-0.35975146293640137,-0.007945418357849121,0.03722308948636055,0.9322463870048523,-0.06103515625,0.18310546875,-0.1220703125,0.065185546875,-0.0302734375,-0.9725341796875,-36.0,-276.0,475.0,102119.0,-6.593000411987305,0,0
183.161048,-0.35975146293640137,-0.007945418357849121,0.03722308948636055,0.9322463870048523,-0.06103515625,0.18310546875,-0.1220703125,0.065185546875,-0.0302734375,-0.9725341796875,-36.0,-276.0,475.0,102119.0,-6.593000411987305,0,0
183.168001,-0.35975146293640137,-0.007945418357849121,0.03722308948636055,0.9322463870048523,-0.3662109375,0.06103515625,-0.1220703125,0.06396484375,-0.0267333984375,-0.9765625,-36.0,-276.0,475.0,102119.0,-6.593000411987305,0,0
183.175019,-0.35975146293640137,-0.007945418357849121,0.03722308948636055,0.9322463870048523,-0.1220703125,0.42724609375,0.0,0.0653076171875,-0.0294189453125,-0.97021484375,-36.0,-276.0,475.0,102119.0,-6.593000411987305,0,0
183.196016,-0.35975268483161926,-0.00791699904948473,0.0372120700776577,0.9322454929351807,0.06103515625,-0.244140625,-0.244140625,0.064697265625,-0.032470703125,-0.9727783203125,-35.0,-276.0,474.0,102119.0,-6.593000411987305,0,0
183.202997,-0.35975268483161926,-0.00791699904948473,0.0372120700776577,0.9322454929351807,-0.06103515625,0.1220703125,-0.1220703125,0.0638427734375,-0.0296630859375,-0.9703369140625,-35.0,-276.0,474.0,102119.0,-6.593000411987305,0,0
183.210018,-0.35975268483161926,-0.00791699904948473,0.0372120700776577,0.9322454929351807,-0.06103515625,0.42724609375,-0.244140625,0.0648193359375,-0.02880859375,-0.9737548828125,-35.0,-276.0,474.0,102119.0,-6.593000411987305,0,0
183.216996,-0.35975146293640137,-0.007945418357849121,0.03722308948636055,0.9322463870048523,0.06103515625,0.30517578125,0.0,0.06689453125,-0.0289306640625,-0.966064453125,-35.0,-276.0,474.0,102119.0,-6.593000411987305,0,0
183.223996,-0.35975268483161926,-0.00791699904948473,0.0372120700776577,0.9322454929351807,-0.3662109375,0.0,-0.06103515625,0.065673828125,-0.0291748046875,-0.9696044921875,-35.0,-276.0,474.0,102119.0,-6.593000411987305,0,0
183.231021,-0.35975268483161926,-0.00791699904948473,0.0372120700776577,0.9322454929351807,-0.18310546875,-0.18310546875,-0.30517578125,0.0640869140625,-0.0294189453125,-0.9764404296875,-35.0,-276.0,474.0,102119.0,-6.593000411987305,0,0
183.238001,-0.35975268483161926,-0.00791699904948473,0.0372120700776577,0.9322454929351807,0.1220703125,0.30517578125,-0.1220703125,0.0672607421875,-0.0311279296875,-0.9677734375,-35.0,-276.0,474.0,102119.0,-6.593000411987305,0,0
183.245015,-0.35975268483161926,-0.00791699904948473,0.0372120700776577,0.9322454929351807,-0.244140625,-0.1220703125,-0.18310546875,0.065673828125,-0.0303955078125,-0.9752197265625,-35.0,-276.0,474.0,102119.0,-6.593000411987305,0,0
183.251048,-0.35975268483161926,-0.00791699904948473,0.0372120700776577,0.9322454929351807,-0.244140625,-0.1220703125,-0.18310546875,0.065673828125,-0.0303955078125,-0.9752197265625,-35.0,-276.0,474.0,102119.0,-6.593000411987305,0,0
183.258001,-0.35975268483161926,-0.00791699904948473,0.0372120700776577,0.9322454929351807,-0.3662109375,0.3662109375,0.0,0.06591796875,-0.03076171875,-0.9683837890625,-35.0,-276.0,474.0,102119.0,-6.593000411987305,0,0
183.265019,-0.359752357006073,-0.007956437766551971,0.037194669246673584,0.9322475790977478,-0.18310546875,0.42724609375,0.0,0.0670166015625,-0.0311279296875,-0.9700927734375,-35.0,-276.0,474.0,102119.0,-6.593000411987305,0,0
183.286016,-0.359752357006073,-0.007956437766551971,0.037194669246673584,0.9322475790977478,-0.6103515625,-0.244140625,-0.06103515625,0.066162109375,-0.0279541015625,-0.9752197265625,-35.0,-277.0,474.0,102119.0,-6.593000411987305,0,0
183.292997,-0.359752357006073,-0.007956437766551971,0.037194669246673584,0.9322475790977478,-0.1220703125,-0.1220703125,-0.54931640625,0.0660400390625,-0.0286865234375,-0.9774169921875,-35.0,-277.0,474.0,102119.0,-6.593000411987305,0,0
183.300018,-0.35975146293640137,-0.007945418357849121,0.03722308948636055,0.9322463870048523,-0.244140625,0.06103515625,0.06103515625,0.065185546875,-0.029541015625,-0.96875,-35.0,-277.0,474.0,102119.0,-6.593000411987305,0,0
183.306996,-0.359752357006073,-0.007956437766551971,0.037194669246673584,0.9322475790977478,-0.244140625,0.18310546875,0.1220703125,0.06591796875,-0.031005859375,-0.9664306640625,-35.0,-277.0,474.0,102119.0,-6.593000411987305,0,0
183.313997,-0.359752357006073,-0.007956437766551971,0.037194669246673584,0.9322475790977478,-0.06103515625,0.1220703125,-0.06103515625,0.06640625,-0.028564453125,-0.9765625,-35.0,-277.0,474.0,102119.0,-6.593000411987305,0,0
183.321021,-0.359752357006073,-0.007956437766551971,0.037194669246673584,0.9322475790977478,-0.54931640625,-0.1220703125,-0.06103515625,0.0628662109375,-0.0311279296875,-0.97607421875,-35.0,-277.0,474.0,102119.0,-6.593000411987305,0,0
183.328001,-0.359752357006073,-0.007956437766551971,0.037194669246673584,0.9322475790977478,-0.18310546875,0.1220703125,-0.18310546875,0.0653076171875,-0.029296875,-0.96533203125,-35.0,-277.0,474.0,102119.0,-6.593000411987305,0,0
183.335015,-0.35975146293640137,-0.007945418357849121,0.03722308948636055,0.9322463870048523,0.0,0.244140625,-0.06103515625,0.06591796875,-0.0284423828125,-0.9730224609375,-35.0,-277.0,474.0,102119.0,-6.593000411987305,0,0
183.341996,-0.35975027084350586,-0.007973837666213512,0.0372341088950634,0.9322472214698792,-0.1220703125,0.0,0.06103515625,0.0634765625,-0.031005859375,-0.9786376953125,-35.0,-277.0,474.0,102119.0,-6.593000411987305,0,0
183.348031,-0.35975027084350586,-0.007973837666213512,0.0372341088950634,0.9322472214698792,-0.1220703125,0.0,0.06103515625,0.0634765625,-0.031005859375,-0.9786376953125,-35.0,-277.0,474.0,102119.0,-6.593000411987305,0,0
183.355019,-0.35975027084350586,-0.007973837666213512,0.0372341088950634,0.9322472214698792,0.0,0.67138671875,0.0,0.065673828125,-0.0302734375,-0.968994140625,-35.0,-277.0,474.0,102119.0,-6.593000411987305,0,0
183.361999,-0.35975146293640137,-0.007945418357849121,0.03722308948636055,0.9322463870048523,-0.3662109375,0.1220703125,-0.18310546875,0.065185546875,-0.02734375,-0.9755859375,-35.0,-277.0,474.0,102119.0,-6.593000411987305,0,0
183.368995,-0.35975146293640137,-0.007945418357849121,0.03722308948636055,0.9322463870048523,-0.3662109375,0.0,0.1220703125,0.0650634765625,-0.03076171875,-0.973876953125,-35.0,-277.0,474.0,102119.0,-6.593000411987305,0,0
183.37602,-0.35975146293640137,-0.007945418357849121,0.03722308948636055,0.9322463870048523,-0.18310546875,0.0,-0.06103515625,0.064697265625,-0.028564453125,-0.975341796875,-35.0,-277.0,474.0,102119.0,-6.593000411987305,0,0
183.382999,-0.35975027084350586,-0.007973837666213512,0.0372341088950634,0.9322472214698792,-0.06103515625,0.1220703125,-0.1220703125,0.0684814453125,-0.02880859375,-0.9730224609375,-35.0,-277.0,474.0,102119.0,-6.593000411987305,0,0
183.390018,-0.35966622829437256,-0.007941806688904762,0.03722045570611954,0.9322794675827026,-0.48828125,-0.30517578125,-0.06103515625,0.063720703125,-0.0302734375,-0.9754638671875,-36.0,-278.0,473.0,102119.0,-6.593000411987305,0,0
183.396997,-0.35966622829437256,-0.007941806688904762,0.03722045570611954,0.9322794675827026,-0.06103515625,0.0,0.1220703125,0.0657958984375,-0.0302734375,-0.9765625,-36.0,-278.0,473.0,102119.0,-6.593000411987305,0,0
183.403996,-0.35966622829437256,-0.007941806688904762,0.03722045570611954,0.9322794675827026,0.06103515625,0.3662109375,-0.18310546875,0.064697265625,-0.0303955078125,-0.9703369140625,-36.0,-278.0,473.0,102119.0,-6.593000411987305,0,0
183.411021,-0.35966622829437256,-0.007941806688904762,0.03722045570611954,0.9322794675827026,-0.18310546875,0.30517578125,0.06103515625,0.06494140625,-0.0302734375,-0.96875,-36.0,-278.0,473.0,102119.0,-6.593000411987305,0,0
183.418001,-0.35966622829437256,-0.007941806688904762,0.03722045570611954,0.9322794675827026,-0.06103515625,0.0,-0.1220703125,0.0660400390625,-0.03173828125,-0.975830078125,-36.0,-278.0,473.0,102119.0,-6.593000411987305,0,0
183.425015,-0.35966500639915466,-0.007970225997269154,0.03723147511482239,0.9322803020477295,-0.06103515625,0.0,0.0,0.068603515625,-0.0291748046875,-0.96875,-36.0,-278.0,473.0,102119.0,-6.593000411987305,0,0
183.431996,-0.35966500639915466,-0.007970225997269154,0.03723147511482239,0.9322803020477295,0.06103515625,0.18310546875,0.0,0.0648193359375,-0.0302734375,-0.96435546875,-36.0,-278.0,473.0,102119.0,-6.593000411987305,0,0
183.438031,-0.35966500639915466,-0.007970225997269154,0.03723147511482239,0.9322803020477295,0.06103515625,0.18310546875,0.0,0.0648193359375,-0.0302734375,-0.96435546875,-36.0,-278.0,473.0,102119.0,-6.593000411987305,0,0
183.458994,-0.3596659004688263,-0.007981245405972004,0.03720305487513542,0.9322815537452698,0.06103515625,0.3662109375,-0.1220703125,0.065673828125,-0.0302734375,-0.9725341796875,-36.0,-278.0,473.0,102119.0,-6.593000411987305,0,0
183.466015,-0.3596659004688263,-0.007981245405972004,0.03720305487513542,0.9322815537452698,-0.30517578125,-0.06103515625,-0.244140625,0.065673828125,-0.0313720703125,-0.97509765625,-36.0,-278.0,473.0,102119.0,-6.593000411987305,0,0
183.472999,-0.3596659004688263,-0.007981245405972004,0.03720305487513542,0.9322815537452698,0.0,-0.06103515625,0.0,0.0623779296875,-0.0322265625,-0.97265625,-36.0,-278.0,473.0,102119.0,-6.593000411987305,0,0
183.480018,-0.3596659004688263,-0.007981245405972004,0.03720305487513542,0.9322815537452698,0.0,0.48828125,-0.06103515625,0.0648193359375,-0.0306396484375,-0.969970703125,-34.0,-277.0,473.0,102119.0,-6.593000411987305,0,0
183.486997,-0.359752357006073,-0.007956437766551971,0.037194669246673584,0.9322475790977478,0.1220703125,0.1220703125,-0.1220703125,0.06640625,-0.03125,-0.966796875,-34.0,-277.0,473.0,102119.0,-6.593000411987305,0,0
183.493996,-0.35975146293640137,-0.007945418357849121,0.03722308948636055,0.9322463870048523,-0.3662109375,-0.18310546875,-0.244140625,0.0640869140625,-0.0272216796875,-0.9737548828125,-34.0,-277.0,473.0,102119.0,-6.593000411987305,0,0
183.501021,-0.3597511351108551,-0.007984857074916363,0.037205688655376434,0.9322484731674194,0.06103515625,-0.18310546875,-0.244140625,0.065673828125,-0.0299072265625,-0.9774169921875,-34.0,-277.0,473.0,102119.0,-6.593000411987305,0,0
183.508001,-0.3597511351108551,-0.007984857074916363,0.037205688655376434,0.9322484731674194,-0.1220703125,0.244140625,-0.244140625,0.0645751953125,-0.030029296875,-0.970703125,-34.0,-277.0,473.0,102119.0,-6.593000411987305,0,0
183.515015,-0.3597511351108551,-0.007984857074916363,0.037205688655376434,0.9322484731674194,-0.30517578125,-0.42724609375,-0.244140625,0.065673828125,-0.0313720703125,-0.9739990234375,-34.0,-277.0,473.0,102119.0,-6.593000411987305,0,0
183.521994,-0.3597511351108551,-0.007984857074916363,0.037205688655376434,0.9322484731674194,-0.3662109375,0.0,0.0,0.0657958984375,-0.0286865234375,-0.9715576171875,-34.0,-277.0,473.0,102119.0,-6.593000411987305,0,0
183.528026,-0.3597511351108551,-0.007984857074916363,0.037205688655376434,0.9322484731674194,-0.3662109375,0.0,0.0,0.0657958984375,-0.0286865234375,-0.9715576171875,-34.0,-277.0,473.0,102119.0,-6.593000411987305,0,0
183.548994,-0.3597511351108551,-0.007984857074916363,0.037205688655376434,0.9322484731674194,0.06103515625,0.42724609375,-0.1220703125,0.063720703125,-0.0303955078125,-0.9678955078125,-34.0,-277.0,473.0,102119.0,-6.593000411987305,0,0
183.556015,-0.359752357006073,-0.007956437766551971,0.037194669246673584,0.9322475790977478,-0.42724609375,-0.244140625,-0.1220703125,0.0650634765625,-0.02783203125,-0.9783935546875,-34.0,-277.0,473.0,102119.0,-6.593000411987305,0,0
183.562998,-0.359752357006073,-0.007956437766551971,0.037194669246673584,0.9322475790977478,-0.244140625,-0.18310546875,-0.06103515625,0.065185546875,-0.02978515625,-0.97705078125,-34.0,-277.0,473.0,102119.0,-6.593000411987305,0,0
183.570018,-0.3597511351108551,-0.007984857074916363,0.037205688655376434,0.9322484731674194,0.1220703125,0.30517578125,-0.06103515625,0.0675048828125,-0.0311279296875,-0.966064453125,-34.0,-277.0,473.0,102119.0,-6.593000411987305,0,0
183.576996,-0.3597511351108551,-0.007984857074916363,0.037205688655376434,0.9322484731674194,-0.06103515625,0.30517578125,-0.1220703125,0.0675048828125,-0.0289306640625,-0.9708251953125,-34.0,-277.0,473.0,102119.0,-6.593000411987305,0,0
183.583996,-0.3597511351108551,-0.007984857074916363,0.037205688655376434,0.9322484731674194,-0.48828125,-0.42724609375,-0.30517578125,0.0650634765625,-0.0311279296875,-0.97607421875,-34.0,-278.0,473.0,102119.0,-6.593000411987305,0,0
183.591022,-0.3598079979419708,-0.007987265475094318,0.03720744699239731,0.9322264194488525,0.06103515625,0.18310546875,0.06103515625,0.0662841796875,-0.0302734375,-0.966796875,-34.0,-278.0,473.0,102119.0,-6.593000411987305,0,0
183.598001,-0.3598079979419708,-0.007987265475094318,0.03720744699239731,0.9322264194488525,-0.1220703125,0.42724609375,0.1220703125,0.0655517578125,-0.0296630859375,-0.96875,-34.0,-278.0,473.0,102119.0,-6.593000411987305,0,0
183.605015,-0.3598079979419708,-0.007987265475094318,0.03720744699239731,0.9322264194488525,-0.30517578125,-0.18310546875,0.0,0.0645751953125,-0.0284423828125,-0.9783935546875,-34.0,-278.0,473.0,102119.0,-6.593000411987305,0,0
183.611994,-0.3598079979419708,-0.007987265475094318,0.03720744699239731,0.9322264194488525,0.1220703125,0.30517578125,-0.06103515625,0.0654296875,-0.029052734375,-0.9715576171875,-34.0,-278.0,473.0,102119.0,-6.593000411987305,0,0
183.618994,-0.3598079979419708,-0.007987265475094318,0.03720744699239731,0.9322264194488525,0.0,0.48828125,-0.1220703125,0.064208984375,-0.0323486328125,-0.9683837890625,-34.0,-278.0,473.0,102119.0,-6.593000411987305,0,0
183.625026,-0.3598079979419708,-0.007987265475094318,0.03720744699239731,0.9322264194488525,0.0,0.48828125,-0.1220703125,0.064208984375,-0.0323486328125,-0.9683837890625,-34.0,-278.0,473.0,102119.0,-6.593000411987305,0,0
183.631994,-0.35980919003486633,-0.007958846166729927,0.03719642758369446,0.9322255253791809,-0.30517578125,0.1220703125,-0.244140625,0.06298828125,-0.030029296875,-0.970458984375,-34.0,-278.0,473.0,102119.0,-6.593000411987305,0,0
183.638994,-0.35980919003486633,-0.007958846166729927,0.03719642758369446,0.9322255253791809,0.1220703125,0.3662109375,-0.244140625,0.0655517578125,-0.0311279296875,-0.9671630859375,-34.0,-278.0,473.0,102119.0,-6.593000411987305,0,0
183.64602,-0.35980919003486633,-0.007958846166729927,0.03719642758369446,0.9322255253791809,-0.1220703125,0.06103515625,-0.06103515625,0.06640625,-0.0299072265625,-0.9766845703125,-34.0,-278.0,473.0,102119.0,-6.593000411987305,0,0
183.652999,-0.35980919003486633,-0.007958846166729927,0.03719642758369446,0.9322255253791809,-0.1220703125,0.18310546875,-0.30517578125,0.065673828125,-0.0322265625,-0.9681396484375,-34.0,-278.0,473.0,102119.0,-6.593000411987305,0,0
183.660018,-0.35980919003486633,-0.007958846166729927,0.03719642758369446,0.9322255253791809,0.0,0.0,-0.06103515625,0.068603515625,-0.031494140625,-0.968994140625,-34.0,-278.0,473.0,102119.0,-6.593000411987305,0,0
183.666996,-0.35980919003486633,-0.007958846166729927,0.03719642758369446,0.9322255253791809,-0.30517578125,-0.06103515625,0.0,0.065673828125,-0.030517578125,-0.971435546875,-34.0,-278.0,473.0,102119.0,-6.593000411987305,0,0
183.673996,-0.3598079979419708,-0.007987265475094318,0.03720744699239731,0.9322264194488525,0.30517578125,0.3662109375,-0.06103515625,0.0665283203125,-0.02880859375,-0.96728515625,-34.0,-278.0,473.0,102119.0,-6.593000411987305,0,0
183.681022,-0.3598079979419708,-0.007987265475094318,0.03720744699239731,0.9322264194488525,-0.30517578125,-0.1220703125,0.06103515625,0.0684814453125,-0.029541015625,-0.9718017578125,-33.0,-277.0,473.0,102119.0,-6.593000411987305,0,0
183.688002,-0.3598920404911041,-0.008019299246370792,0.03722110018134117,0.9321942329406738,-0.18310546875,0.42724609375,-0.1220703125,0.0682373046875,-0.0308837890625,-0.9725341796875,-33.0,-277.0,473.0,102119.0,-6.593000411987305,0,0
183.695015,-0.3598920404911041,-0.008019299246370792,0.03722110018134117,0.9321942329406738,0.0,0.3662109375,0.30517578125,0.0648193359375,-0.030029296875,-0.968505859375,-33.0,-277.0,473.0,102119.0,-6.593000411987305,0,0
183.701996,-0.3598920404911041,-0.008019299246370792,0.03722110018134117,0.9321942329406738,-0.3662109375,-0.18310546875,-0.1220703125,0.0645751953125,-0.0286865234375,-0.971435546875,-33.0,-277.0,473.0,102119.0,-6.593000411987305,0,0
183.722,-0.3598920404911041,-0.008019299246370792,0.03722110018134117,0.9321942329406738,-0.1220703125,0.244140625,-0.1220703125,0.064697265625,-0.0296630859375,-0.9671630859375,-33.0,-277.0,473.0,102119.0,-6.593000411987305,0,0
183.728995,-0.35989323258399963,-0.007990879006683826,0.03721008077263832,0.932193398475647,-0.30517578125,-0.1220703125,-0.244140625,0.0638427734375,-0.0306396484375,-0.9788818359375,-33.0,-277.0,473.0,102119.0,-6.593000411987305,0,0
183.73602,-0.35989323258399963,-0.007990879006683826,0.03721008077263832,0.932193398475647,-0.244140625,0.18310546875,0.244140625,0.06494140625,-0.0306396484375,-0.9691162109375,-33.0,-277.0,473.0,102119.0,-6.592000484466553,0,0
183.742998,-0.35989323258399963,-0.007990879006683826,0.03721008077263832,0.932193398475647,0.1220703125,0.3662109375,-0.06103515625,0.0657958984375,-0.03271484375,-0.96875,-33.0,-277.0,473.0,102119.0,-6.592000484466553,0,0
183.750018,-0.35989323258399963,-0.007990879006683826,0.03721008077263832,0.932193398475647,0.06103515625,0.18310546875,-0.244140625,0.065673828125,-0.0283203125,-0.9744873046875,-33.0,-277.0,473.0,102119.0,-6.592000484466553,0,0
183.756996,-0.35989323258399963,-0.007990879006683826,0.03721008077263832,0.932193398475647,-0.18310546875,-0.3662109375,-0.1220703125,0.0655517578125,-0.0294189453125,-0.9775390625,-33.0,-277.0,473.0,102119.0,-6.592000484466553,0,0
183.763997,-0.35989323258399963,-0.007990879006683826,0.03721008077263832,0.932193398475647,0.06103515625,0.30517578125,0.06103515625,0.066650390625,-0.0322265625,-0.96728515625,-33.0,-277.0,473.0,102119.0,-6.592000484466553,0,0
183.771021,-0.3598920404911041,-0.008019299246370792,0.03722110018134117,0.9321942329406738,-0.06103515625,0.06103515625,-0.1220703125,0.06689453125,-0.0311279296875,-0.977294921875,-33.0,-277.0,473.0,102119.0,-6.592000484466553,0,0
183.778001,-0.3598920404911041,-0.008019299246370792,0.03722110018134117,0.9321942329406738,-0.42724609375,-0.18310546875,-0.18310546875,0.0654296875,-0.0281982421875,-0.9764404296875,-33.0,-277.0,473.0,102119.0,-6.592000484466553,0,0
183.785015,-0.3598920404911041,-0.008019299246370792,0.03722110018134117,0.9321942329406738,-0.30517578125,0.18310546875,-0.06103515625,0.0653076171875,-0.03173828125,-0.967041015625,-33.0,-277.0,473.0,102119.0,-6.592000484466553,0,0
183.791994,-0.35995009541511536,-0.007993287406861782,0.037211839109659195,0.9321713447570801,0.1220703125,-0.06103515625,-0.06103515625,0.063232421875,-0.0286865234375,-0.9747314453125,-33.0,-277.0,473.0,102119.0,-6.592000484466553,0,0
183.812047,-0.35995009541511536,-0.007993287406861782,0.037211839109659195,0.9321713447570801,-0.244140625,0.1220703125,0.18310546875,0.0655517578125,-0.031982421875,-0.96923828125,-33.0,-277.0,473.0,102119.0,-6.592000484466553,0,0
183.818994,-0.35995009541511536,-0.007993287406861782,0.037211839109659195,0.9321713447570801,-0.3662109375,0.06103515625,-0.18310546875,0.06494140625,-0.029541015625,-0.9769287109375,-33.0,-277.0,473.0,102119.0,-6.592000484466553,0,0
183.826015,-0.35995009541511536,-0.007993287406861782,0.037211839109659195,0.9321713447570801,-0.06103515625,-0.18310546875,-0.244140625,0.065673828125,-0.0306396484375,-0.970458984375,-33.0,-277.0,473.0,102119.0,-6.592000484466553,0,0
183.832998,-0.35995009541511536,-0.007993287406861782,0.037211839109659195,0.9321713447570801,-0.3662109375,-0.30517578125,-0.18310546875,0.06689453125,-0.031005859375,-0.9755859375,-33.0,-277.0,473.0,102119.0,-6.592000484466553,0,0
183.840018,-0.35995009541511536,-0.007993287406861782,0.037211839109659195,0.9321713447570801,-0.1220703125,0.06103515625,0.0,0.0670166015625,-0.0316162109375,-0.9771728515625,-33.0,-277.0,473.0,102119.0,-6.592000484466553,0,0
183.846997,-0.3599497675895691,-0.008032727055251598,0.03719443827867508,0.9321734309196472,0.30517578125,0.42724609375,-0.06103515625,0.067626953125,-0.031494140625,-0.967529296875,-33.0,-277.0,473.0,102119.0,-6.592000484466553,0,0
183.853997,-0.3599497675895691,-0.008032727055251598,0.03719443827867508,0.9321734309196472,-0.3662109375,-0.1220703125,0.06103515625,0.0667724609375,-0.0303955078125,-0.9786376953125,-33.0,-277.0,473.0,102119.0,-6.592000484466553,0,0
183.861022,-0.3599497675895691,-0.008032727055251598,0.03719443827867508,0.9321734309196472,-0.18310546875,0.30517578125,-0.1220703125,0.067626953125,-0.0322265625,-0.9732666015625,-33.0,-277.0,473.0,102119.0,-6.592000484466553,0,0
183.868002,-0.3599497675895691,-0.008032727055251598,0.03719443827867508,0.9321734309196472,0.18310546875,0.3662109375,0.06103515625,0.06591796875,-0.029296875,-0.9659423828125,-33.0,-277.0,473.0,102119.0,-6.592000484466553,0,0
183.875015,-0.3599497675895691,-0.008032727055251598,0.03719443827867508,0.9321734309196472,-0.06103515625,0.06103515625,0.0,0.064697265625,-0.0291748046875,-0.97900390625,-33.0,-277.0,473.0,102119.0,-6.592000484466553,0,0
183.881994,-0.3599497675895691,-0.008032727055251598,0.03719443827867508,0.9321734309196472,0.18310546875,0.18310546875,-0.30517578125,0.064697265625,-0.0279541015625,-0.969482421875,-33.0,-276.0,474.0,102119.0,-6.592000484466553,0,0
183.888994,-0.3599509596824646,-0.008004306815564632,0.03718341886997223,0.9321725368499756,0.3662109375,-0.06103515625,0.244140625,0.0631103515625,-0.030029296875,-0.9664306640625,-33.0,-276.0,474.0,102119.0,-6.592000484466553,0,0
183.89602,-0.3599509596824646,-0.008004306815564632,0.03718341886997223,0.9321725368499756,-0.18310546875,0.244140625,-0.18310546875,0.062744140625,-0.02880859375,-0.9744873046875,-33.0,-276.0,474.0,102119.0,-6.592000484466553,0,0
183.902048,-0.3599509596824646,-0.008004306815564632,0.03718341886997223,0.9321725368499756,-0.18310546875,0.244140625,-0.18310546875,0.062744140625,-0.02880859375,-0.9744873046875,-33.0,-276.0,474.0,102119.0,-6.592000484466553,0,0
183.908994,-0.35995128750801086,-0.00796486809849739,0.037200819700956345,0.9321704506874084,-0.06103515625,-0.06103515625,-0.06103515625,0.061767578125,-0.0316162109375,-0.9683837890625,-33.0,-276.0,474.0,102119.0,-6.592000484466553,0,0
183.916015,-0.3599521815776825,-0.007975887507200241,0.03717240318655968,0.932171642780304,0.0,0.42724609375,0.06103515625,0.063720703125,-0.0303955078125,-0.973876953125,-33.0,-276.0,474.0,102119.0,-6.592000484466553,0,0
183.922998,-0.3599521815776825,-0.007975887507200241,0.03717240318655968,0.932171642780304,0.06103515625,-0.06103515625,0.06103515625,0.0653076171875,-0.0296630859375,-0.9742431640625,-33.0,-276.0,474.0,102119.0,-6.592000484466553,0,0
183.930018,-0.3599521815776825,-0.007975887507200241,0.03717240318655968,0.932171642780304,0.06103515625,-0.244140625,-0.06103515625,0.065673828125,-0.0308837890625,-0.9681396484375,-33.0,-276.0,474.0,102119.0,-6.593000411987305,0,0
183.936996,-0.3599521815776825,-0.007975887507200241,0.03717240318655968,0.932171642780304,0.3662109375,0.30517578125,-0.3662109375,0.0679931640625,-0.03173828125,-0.9718017578125,-33.0,-276.0,474.0,102119.0,-6.593000411987305,0,0
183.943997,-0.3599509596824646,-0.008004306815564632,0.03718341886997223,0.9321725368499756,-0.18310546875,0.30517578125,0.0,0.0673828125,-0.02880859375,-0.974365234375,-33.0,-276.0,474.0,102119.0,-6.593000411987305,0,0
183.951021,-0.3599509596824646,-0.008004306815564632,0.03718341886997223,0.9321725368499756,-0.1220703125,-0.1220703125,-0.18310546875,0.0655517578125,-0.0281982421875,-0.9708251953125,-33.0,-276.0,474.0,102119.0,-6.593000411987305,0,0
183.958001,-0.35995009541511536,-0.007993287406861782,0.037211839109659195,0.9321713447570801,0.1220703125,0.18310546875,-0.1220703125,0.06494140625,-0.0291748046875,-0.969970703125,-33.0,-276.0,474.0,102119.0,-6.593000411987305,0,0
183.965015,-0.35995009541511536,-0.007993287406861782,0.037211839109659195,0.9321713447570801,0.30517578125,0.18310546875,-0.244140625,0.0679931640625,-0.031005859375,-0.973876953125,-33.0,-276.0,474.0,102119.0,-6.593000411987305,0,0
183.986023,-0.3599509596824646,-0.008004306815564632,0.03718341886997223,0.9321725368499756,0.1220703125,0.30517578125,-0.18310546875,0.064208984375,-0.0283203125,-0.9737548828125,-35.0,-276.0,473.0,102119.0,-6.593000411987305,0,0
183.993002,-0.35980886220932007,-0.007998284883797169,0.03717902675271034,0.932227611541748,-0.1220703125,-0.48828125,-0.244140625,0.0635986328125,-0.02783203125,-0.976806640625,-35.0,-276.0,473.0,102119.0,-6.593000411987305,0,0
183.999035,-0.35980886220932007,-0.007998284883797169,0.03717902675271034,0.932227611541748,-0.1220703125,-0.48828125,-0.244140625,0.0635986328125,-0.02783203125,-0.976806640625,-35.0,-276.0,473.0,102119.0,-6.593000411987305,0,0
184.00602,-0.35981008410453796,-0.007969865575432777,0.03716801106929779,0.9322267174720764,-0.1220703125,0.244140625,-0.244140625,0.067626953125,-0.029541015625,-0.9681396484375,-35.0,-276.0,473.0,102119.0,-6.593000411987305,0,0
184.012998,-0.35980886220932007,-0.007998284883797169,0.03717902675271034,0.932227611541748,0.0,0.1220703125,0.0,0.068115234375,-0.02978515625,-0.9686279296875,-35.0,-276.0,473.0,102119.0,-6.593000411987305,0,0
184.020018,-0.35980886220932007,-0.007998284883797169,0.03717902675271034,0.932227611541748,-0.244140625,-0.1220703125,0.1220703125,0.0692138671875,-0.030517578125,-0.97412109375,-35.0,-276.0,473.0,102119.0,-6.593000411987305,0,0
184.026997,-0.35980886220932007,-0.007998284883797169,0.03717902675271034,0.932227611541748,-0.3662109375,-0.244140625,0.06103515625,0.06494140625,-0.0302734375,-0.9761962890625,-35.0,-276.0,473.0,102119.0,-6.593000411987305,0,0
184.033996,-0.35980886220932007,-0.007998284883797169,0.03717902675271034,0.932227611541748,-0.06103515625,0.0,0.18310546875,0.06396484375,-0.0316162109375,-0.9700927734375,-35.0,-276.0,473.0,102119.0,-6.593000411987305,0,0
184.041022,-0.35980886220932007,-0.007998284883797169,0.03717902675271034,0.932227611541748,-0.1220703125,-0.18310546875,-0.06103515625,0.06494140625,-0.031982421875,-0.9754638671875,-35.0,-276.0,473.0,102119.0,-6.593000411987305,0,0
184.048002,-0.35980886220932007,-0.007998284883797169,0.03717902675271034,0.932227611541748,0.06103515625,-0.06103515625,-0.18310546875,0.0628662109375,-0.0294189453125,-0.9755859375,-35.0,-276.0,473.0,102119.0,-6.593000411987305,0,0
184.068994,-0.35981008410453796,-0.007969865575432777,0.03716801106929779,0.9322267174720764,-0.18310546875,0.06103515625,-0.30517578125,0.062744140625,-0.0283203125,-0.974365234375,-35.0,-276.0,473.0,102119.0,-6.593000411987305,0,0
184.076019,-0.35980919003486633,-0.007958846166729927,0.03719642758369446,0.9322255253791809,-0.30517578125,0.0,-0.18310546875,0.0631103515625,-0.0272216796875,-0.972900390625,-35.0,-276.0,473.0,102119.0,-6.593000411987305,0,0
184.083002,-0.35980919003486633,-0.007958846166729927,0.03719642758369446,0.9322255253791809,-0.54931640625,-0.244140625,-0.1220703125,0.0655517578125,-0.0277099609375,-0.97607421875,-33.0,-277.0,472.0,102119.0,-6.593000411987305,0,0
184.08903,-0.35980919003486633,-0.007958846166729927,0.03719642758369446,0.9322255253791809,-0.54931640625,-0.244140625,-0.1220703125,0.0655517578125,-0.0277099609375,-0.97607421875,-33.0,-277.0,472.0,102119.0,-6.593000411987305,0,0
184.096015,-0.35989445447921753,-0.007962459698319435,0.03719906136393547,0.9321925044059753,-0.244140625,-0.18310546875,-0.18310546875,0.0675048828125,-0.0299072265625,-0.973388671875,-33.0,-277.0,472.0,102119.0,-6.593000411987305,0,0
184.102997,-0.35989323258399963,-0.007990879006683826,0.03721008077263832,0.932193398475647,-0.06103515625,0.0,0.06103515625,0.0660400390625,-0.0301513671875,-0.968505859375,-33.0,-277.0,472.0,102119.0,-6.593000411987305,0,0
184.110018,-0.35989323258399963,-0.007990879006683826,0.03721008077263832,0.932193398475647,0.1220703125,0.3662109375,0.30517578125,0.0670166015625,-0.03173828125,-0.97216796875,-33.0,-277.0,472.0,102119.0,-6.593000411987305,0,0
184.116996,-0.35989323258399963,-0.007990879006683826,0.03721008077263832,0.932193398475647,0.0,0.18310546875,-0.1220703125,0.0673828125,-0.0299072265625,-0.9757080078125,-33.0,-277.0,472.0,102119.0,-6.593000411987305,0,0
184.123996,-0.3598920404911041,-0.008019299246370792,0.03722110018134117,0.9321942329406738,-0.1220703125,-0.18310546875,-0.18310546875,0.066650390625,-0.0289306640625,-0.970458984375,-33.0,-277.0,472.0,102119.0,-6.593000411987305,0,0
184.131021,-0.35989293456077576,-0.008030318655073643,0.037192679941654205,0.9321954846382141,0.06103515625,0.30517578125,-0.1220703125,0.0670166015625,-0.031982421875,-0.968017578125,-33.0,-277.0,472.0,102119.0,-6.594000339508057,0,0
184.138001,-0.35989293456077576,-0.008030318655073643,0.037192679941654205,0.9321954846382141,-0.3662109375,0.244140625,0.06103515625,0.0648193359375,-0.0281982421875,-0.97509765625,-33.0,-277.0,472.0,102119.0,-6.594000339508057,0,0
184.145015,-0.35989412665367126,-0.008001898415386677,0.037181660532951355,0.9321945905685425,-0.3662109375,-0.244140625,0.0,0.063232421875,-0.0316162109375,-0.9730224609375,-33.0,-277.0,472.0,102119.0,-6.594000339508057,0,0
184.151994,-0.35989412665367126,-0.008001898415386677,0.037181660532951355,0.9321945905685425,-0.30517578125,-0.244140625,-0.6103515625,0.0618896484375,-0.0279541015625,-0.9765625,-33.0,-277.0,472.0,102119.0,-6.594000339508057,0,0
184.158994,-0.3598953187465668,-0.007973479107022285,0.0371706448495388,0.9321936964988708,0.1220703125,0.18310546875,-0.42724609375,0.0616455078125,-0.0289306640625,-0.9710693359375,-33.0,-277.0,472.0,102119.0,-6.594000339508057,0,0
184.166019,-0.35989445447921753,-0.007962459698319435,0.03719906136393547,0.9321925044059753,-0.18310546875,-0.18310546875,0.0,0.06201171875,-0.030517578125,-0.97802734375,-33.0,-277.0,472.0,102119.0,-6.594000339508057,0,0
184.173002,-0.35989445447921753,-0.007962459698319435,0.03719906136393547,0.9321925044059753,-0.18310546875,0.0,0.0,0.0650634765625,-0.029541015625,-0.9736328125,-33.0,-277.0,472.0,102119.0,-6.594000339508057,0,0
184.180019,-0.35989654064178467,-0.007945059798657894,0.03715962544083595,0.9321928024291992,-0.06103515625,0.42724609375,-0.06103515625,0.0633544921875,-0.0302734375,-0.9693603515625,-33.0,-277.0,472.0,102119.0,-6.594000339508057,0,0
184.186049,-0.35989654064178467,-0.007945059798657894,0.03715962544083595,0.9321928024291992,-0.06103515625,0.42724609375,-0.06103515625,0.0633544921875,-0.0302734375,-0.9693603515625,-33.0,-277.0,472.0,102119.0,-6.594000339508057,0,0
184.192999,-0.3598953187465668,-0.007973479107022285,0.0371706448495388,0.9321936964988708,0.0,0.06103515625,-0.18310546875,0.0692138671875,-0.032470703125,-0.9678955078125,-35.0,-277.0,473.0,102119.0,-6.594000339508057,0,0
184.200018,-0.35989412665367126,-0.008001898415386677,0.037181660532951355,0.9321945905685425,0.18310546875,0.732421875,-0.06103515625,0.0682373046875,-0.0316162109375,-0.9683837890625,-35.0,-277.0,473.0,102119.0,-6.594000339508057,0,0
184.206996,-0.35989412665367126,-0.008001898415386677,0.037181660532951355,0.9321945905685425,-0.244140625,-0.06103515625,0.1220703125,0.0682373046875,-0.0302734375,-0.978271484375,-35.0,-277.0,473.0,102119.0,-6.594000339508057,0,0
184.213996,-0.35989412665367126,-0.008001898415386677,0.037181660532951355,0.9321945905685425,-0.06103515625,0.30517578125,-0.1220703125,0.068115234375,-0.0321044921875,-0.9718017578125,-35.0,-277.0,473.0,102119.0,-6.594000339508057,0,0
184.221021,-0.359893798828125,-0.008041338063776493,0.03716425970196724,0.9321966767311096,0.06103515625,0.42724609375,0.06103515625,0.0670166015625,-0.03076171875,-0.966796875,-35.0,-277.0,473.0,102119.0,-6.594000339508057,0,0
184.241995,-0.3598949909210205,-0.008012917824089527,0.03715324029326439,0.932195782661438,-0.06103515625,0.244140625,-0.06103515625,0.061767578125,-0.0321044921875,-0.9652099609375,-35.0,-277.0,473.0,102119.0,-6.593000411987305,0,0
184.248998,-0.3598949909210205,-0.008012917824089527,0.03715324029326439,0.932195782661438,-0.48828125,-0.30517578125,-0.1220703125,0.065185546875,-0.0308837890625,-0.9703369140625,-35.0,-277.0,473.0,102119.0,-6.593000411987305,0,0
184.256023,-0.3598949909210205,-0.008012917824089527,0.03715324029326439,0.932195782661438,0.06103515625,0.48828125,-0.1220703125,0.0667724609375,-0.032470703125,-0.97021484375,-35.0,-277.0,473.0,102119.0,-6.593000411987305,0,0
184.263002,-0.3598949909210205,-0.008012917824089527,0.03715324029326439,0.932195782661438,-0.18310546875,0.18310546875,0.0,0.06494140625,-0.0302734375,-0.9725341796875,-35.0,-277.0,473.0,102119.0,-6.593000411987305,0,0
184.270018,-0.3598949909210205,-0.008012917824089527,0.03715324029326439,0.932195782661438,-0.67138671875,-0.30517578125,-0.30517578125,0.065673828125,-0.0308837890625,-0.974609375,-35.0,-277.0,473.0,102119.0,-6.593000411987305,0,0
184.276049,-0.3598949909210205,-0.008012917824089527,0.03715324029326439,0.932195782661438,-0.67138671875,-0.30517578125,-0.30517578125,0.065673828125,-0.0308837890625,-0.974609375,-35.0,-277.0,473.0,102119.0,-6.593000411987305,0,0
184.282998,-0.3598949909210205,-0.008012917824089527,0.03715324029326439,0.932195782661438,-0.1220703125,-0.06103515625,0.0,0.0653076171875,-0.0299072265625,-0.9681396484375,-35.0,-277.0,474.0,102119.0,-6.593000411987305,0,0
184.290018,-0.3598949909210205,-0.008012917824089527,0.03715324029326439,0.932195782661438,-0.30517578125,-0.42724609375,-0.1220703125,0.064453125,-0.0279541015625,-0.975830078125,-35.0,-277.0,474.0,102119.0,-6.593000411987305,0,0
184.296996,-0.3598949909210205,-0.008012917824089527,0.03715324029326439,0.932195782661438,0.0,0.244140625,0.06103515625,0.0650634765625,-0.03125,-0.9658203125,-35.0,-277.0,474.0,102119.0,-6.593000411987305,0,0
184.303996,-0.3598949909210205,-0.008012917824089527,0.03715324029326439,0.932195782661438,0.18310546875,0.54931640625,0.06103515625,0.0660400390625,-0.0306396484375,-0.97021484375,-35.0,-277.0,474.0,102119.0,-6.593000411987305,0,0
184.311021,-0.3598949909210205,-0.008012917824089527,0.03715324029326439,0.932195782661438,-0.1220703125,-0.06103515625,-0.30517578125,0.063720703125,-0.0296630859375,-0.978759765625,-35.0,-277.0,474.0,102119.0,-6.593000411987305,0,0
184.331996,-0.3598949909210205,-0.008012917824089527,0.03715324029326439,0.932195782661438,-0.42724609375,-0.18310546875,0.0,0.0635986328125,-0.0289306640625,-0.97802734375,-35.0,-277.0,474.0,102119.0,-6.594000339508057,0,0
184.338998,-0.3598949909210205,-0.008012917824089527,0.03715324029326439,0.932195782661438,-0.3662109375,-0.244140625,-0.18310546875,0.0631103515625,-0.0291748046875,-0.9754638671875,-35.0,-277.0,474.0,102119.0,-6.594000339508057,0,0
184.346019,-0.35989412665367126,-0.008001898415386677,0.037181660532951355,0.9321945905685425,-0.06103515625,0.06103515625,-0.18310546875,0.06591796875,-0.0284423828125,-0.968017578125,-35.0,-277.0,474.0,102119.0,-6.594000339508057,0,0
184.353002,-0.35989412665367126,-0.008001898415386677,0.037181660532951355,0.9321945905685425,-0.48828125,-0.1220703125,-0.1220703125,0.0679931640625,-0.0286865234375,-0.9691162109375,-35.0,-277.0,474.0,102119.0,-6.594000339508057,0,0
184.360018,-0.35989293456077576,-0.008030318655073643,0.037192679941654205,0.9321954846382141,-0.244140625,-0.30517578125,-0.30517578125,0.0689697265625,-0.0301513671875,-0.976806640625,-35.0,-277.0,474.0,102119.0,-6.594000339508057,0,0
184.366996,-0.35989293456077576,-0.008030318655073643,0.037192679941654205,0.9321954846382141,-0.244140625,0.1220703125,-0.06103515625,0.066650390625,-0.0299072265625,-0.9739990234375,-35.0,-277.0,474.0,102119.0,-6.594000339508057,0,0
184.373028,-0.35989293456077576,-0.008030318655073643,0.037192679941654205,0.9321954846382141,-0.244140625,0.1220703125,-0.06103515625,0.066650390625,-0.0299072265625,-0.9739990234375,-35.0,-277.0,474.0,102119.0,-6.594000339508057,0,0
184.380018,-0.35989293456077576,-0.008030318655073643,0.037192679941654205,0.9321954846382141,-0.30517578125,0.244140625,-0.06103515625,0.066162109375,-0.030029296875,-0.977294921875,-35.0,-277.0,474.0,102119.0,-6.594000339508057,0,0
184.386997,-0.35989171266555786,-0.008058737963438034,0.037203699350357056,0.932196319103241,0.0,0.1220703125,-0.1220703125,0.0675048828125,-0.0321044921875,-0.9676513671875,-35.0,-276.0,474.0,102119.0,-6.594000339508057,0,0
184.393996,-0.35989171266555786,-0.008058737963438034,0.037203699350357056,0.932196319103241,0.0,-0.30517578125,0.0,0.064208984375,-0.0289306640625,-0.977783203125,-35.0,-276.0,474.0,102119.0,-6.594000339508057,0,0
184.401021,-0.35989171266555786,-0.008058737963438034,0.037203699350357056,0.932196319103241,-0.244140625,-0.06103515625,0.0,0.0654296875,-0.0291748046875,-0.9766845703125,-35.0,-276.0,474.0,102119.0,-6.594000339508057,0,0
184.408001,-0.35989293456077576,-0.008030318655073643,0.037192679941654205,0.9321954846382141,-0.244140625,0.1220703125,0.0,0.062255859375,-0.02783203125,-0.9703369140625,-35.0,-276.0,474.0,102119.0,-6.594000339508057,0,0
184.415015,-0.35989293456077576,-0.008030318655073643,0.037192679941654205,0.9321954846382141,-0.06103515625,-0.18310546875,-0.1220703125,0.0633544921875,-0.0303955078125,-0.975830078125,-35.0,-276.0,474.0,102119.0,-6.594000339508057,0,0
184.421994,-0.35989293456077576,-0.008030318655073643,0.037192679941654205,0.9321954846382141,-0.1220703125,-0.18310546875,0.06103515625,0.064208984375,-0.0302734375,-0.972900390625,-35.0,-276.0,474.0,102119.0,-6.594000339508057,0,0
184.428994,-0.35989293456077576,-0.008030318655073643,0.037192679941654205,0.9321954846382141,0.1220703125,0.42724609375,0.06103515625,0.0634765625,-0.0308837890625,-0.9671630859375,-35.0,-276.0,474.0,102119.0,-6.594000339508057,0,0
184.436019,-0.35989412665367126,-0.008001898415386677,0.037181660532951355,0.9321945905685425,-0.30517578125,-0.1220703125,-0.18310546875,0.0621337890625,-0.028076171875,-0.9766845703125,-35.0,-276.0,474.0,102119.0,-6.594000339508057,0,0
184.443002,-0.35989412665367126,-0.008001898415386677,0.037181660532951355,0.9321945905685425,-0.42724609375,-0.244140625,-0.30517578125,0.063232421875,-0.0302734375,-0.9742431640625,-35.0,-276.0,474.0,102119.0,-6.594000339508057,0,0
184.450019,-0.35989412665367126,-0.008001898415386677,0.037181660532951355,0.9321945905685425,0.1220703125,0.18310546875,0.1220703125,0.0670166015625,-0.031005859375,-0.9671630859375,-35.0,-276.0,474.0,102119.0,-6.594000339508057,0,0
184.456996,-0.35989412665367126,-0.008001898415386677,0.037181660532951355,0.9321945905685425,-0.18310546875,0.54931640625,-0.1220703125,0.0665283203125,-0.02978515625,-0.970703125,-35.0,-276.0,474.0,102119.0,-6.594000339508057,0,0
184.463028,-0.35989412665367126,-0.008001898415386677,0.037181660532951355,0.9321945905685425,-0.18310546875,0.54931640625,-0.1220703125,0.0665283203125,-0.02978515625,-0.970703125,-35.0,-276.0,474.0,102119.0,-6.594000339508057,0,0
184.470018,-0.3598949909210205,-0.008012917824089527,0.03715324029326439,0.932195782661438,0.0,0.244140625,0.0,0.0667724609375,-0.031494140625,-0.965576171875,-35.0,-276.0,474.0,102119.0,-6.594000339508057,0,0
184.476996,-0.359893798828125,-0.008041338063776493,0.03716425970196724,0.9321966767311096,0.18310546875,0.30517578125,-0.1220703125,0.06689453125,-0.030517578125,-0.96826171875,-35.0,-276.0,474.0,102119.0,-6.594000339508057,0,0
184.483996,-0.3598949909210205,-0.008012917824089527,0.03715324029326439,0.932195782661438,-0.30517578125,-0.30517578125,-0.18310546875,0.0640869140625,-0.029296875,-0.9771728515625,-36.0,-276.0,474.0,102119.0,-6.594000339508057,0,0
184.505015,-0.35980767011642456,-0.008026705123484135,0.03719004616141319,0.9322285056114197,-0.3662109375,0.06103515625,0.0,0.066650390625,-0.03076171875,-0.9771728515625,-36.0,-276.0,474.0,102119.0,-6.594000339508057,0,0
184.511994,-0.35980767011642456,-0.008026705123484135,0.03719004616141319,0.9322285056114197,-0.06103515625,0.3662109375,-0.06103515625,0.064208984375,-0.0277099609375,-0.973388671875,-36.0,-276.0,474.0,102119.0,-6.594000339508057,0,0
184.518994,-0.3598085343837738,-0.008037724532186985,0.03716162592172623,0.9322296977043152,0.1220703125,0.6103515625,0.0,0.0667724609375,-0.0335693359375,-0.968017578125,-36.0,-276.0,474.0,102119.0,-6.594000339508057,0,0
184.526019,-0.3598085343837738,-0.008037724532186985,0.03716162592172623,0.9322296977043152,0.0,-0.06103515625,-0.1220703125,0.0673828125,-0.029052734375,-0.9771728515625,-36.0,-276.0,474.0,102119.0,-6.594000339508057,0,0
184.533002,-0.3598085343837738,-0.008037724532186985,0.03716162592172623,0.9322296977043152,0.0,0.30517578125,0.0,0.06640625,-0.0308837890625,-0.9705810546875,-36.0,-276.0,474.0,102119.0,-6.593000411987305,0,0
184.540019,-0.3598085343837738,-0.008037724532186985,0.03716162592172623,0.9322296977043152,0.06103515625,0.244140625,0.06103515625,0.0655517578125,-0.0299072265625,-0.9661865234375,-36.0,-276.0,474.0,102119.0,-6.593000411987305,0,0
184.546996,-0.3598085343837738,-0.008037724532186985,0.03716162592172623,0.9322296977043152,-0.48828125,-0.244140625,0.18310546875,0.0625,-0.0296630859375,-0.9752197265625,-36.0,-276.0,474.0,102119.0,-6.593000411987305,0,0
184.553996,-0.3598085343837738,-0.008037724532186985,0.03716162592172623,0.9322296977043152,0.0,0.54931640625,-0.06103515625,0.0672607421875,-0.0294189453125,-0.966796875,-36.0,-276.0,474.0,102119.0,-6.593000411987305,0,0
184.560029,-0.3598085343837738,-0.008037724532186985,0.03716162592172623,0.9322296977043152,0.0,0.54931640625,-0.06103515625,0.0672607421875,-0.0294189453125,-0.966796875,-36.0,-276.0,474.0,102119.0,-6.593000411987305,0,0
184.566997,-0.35980767011642456,-0.008026705123484135,0.03719004616141319,0.9322285056114197,-0.18310546875,0.30517578125,-0.1220703125,0.0657958984375,-0.02978515625,-0.9747314453125,-36.0,-276.0,474.0,102119.0,-6.593000411987305,0,0
184.573996,-0.35980767011642456,-0.008026705123484135,0.03719004616141319,0.9322285056114197,-0.48828125,-0.30517578125,0.06103515625,0.067138671875,-0.0283203125,-0.974609375,-36.0,-276.0,474.0,102119.0,-6.593000411987305,0,0
184.595015,-0.3597508370876312,-0.008024296723306179,0.03718828782439232,0.9322505593299866,-0.3662109375,-0.244140625,-0.06103515625,0.0635986328125,-0.0286865234375,-0.978271484375,-36.0,-276.0,472.0,102119.0,-6.593000411987305,0,0
184.601995,-0.35975202918052673,-0.007995876483619213,0.03717726841568947,0.9322496652603149,-0.06103515625,0.30517578125,-0.1220703125,0.062255859375,-0.0286865234375,-0.973876953125,-36.0,-276.0,472.0,102119.0,-6.593000411987305,0,0
184.608998,-0.35975202918052673,-0.007995876483619213,0.03717726841568947,0.9322496652603149,0.0,0.3662109375,-0.1220703125,0.06640625,-0.0283203125,-0.9681396484375,-36.0,-276.0,472.0,102119.0,-6.593000411987305,0,0
184.616023,-0.35975202918052673,-0.007995876483619213,0.03717726841568947,0.9322496652603149,-0.244140625,-0.06103515625,-0.1220703125,0.0631103515625,-0.0274658203125,-0.9766845703125,-36.0,-276.0,472.0,102119.0,-6.593000411987305,0,0
184.623002,-0.35975202918052673,-0.007995876483619213,0.03717726841568947,0.9322496652603149,-0.06103515625,-0.3662109375,-0.30517578125,0.064453125,-0.03173828125,-0.97314453125,-36.0,-276.0,472.0,102119.0,-6.593000411987305,0,0
184.630018,-0.35975202918052673,-0.007995876483619213,0.03717726841568947,0.9322496652603149,-0.1220703125,0.42724609375,0.0,0.065673828125,-0.032470703125,-0.967529296875,-36.0,-276.0,472.0,102119.0,-6.594000339508057,0,0
184.636997,-0.35975202918052673,-0.007995876483619213,0.03717726841568947,0.9322496652603149,-0.1220703125,-0.18310546875,-0.1220703125,0.0650634765625,-0.0291748046875,-0.9775390625,-36.0,-276.0,472.0,102119.0,-6.594000339508057,0,0
184.643995,-0.35975202918052673,-0.007995876483619213,0.03717726841568947,0.9322496652603149,-0.18310546875,-0.42724609375,0.18310546875,0.0655517578125,-0.0306396484375,-0.9757080078125,-36.0,-276.0,472.0,102119.0,-6.594000339508057,0,0
184.650028,-0.35975202918052673,-0.007995876483619213,0.03717726841568947,0.9322496652603149,-0.18310546875,-0.42724609375,0.18310546875,0.0655517578125,-0.0306396484375,-0.9757080078125,-36.0,-276.0,472.0,102119.0,-6.594000339508057,0,0
184.656997,-0.35975202918052673,-0.007995876483619213,0.03717726841568947,0.9322496652603149,0.244140625,0.3662109375,0.06103515625,0.067626953125,-0.029296875,-0.968994140625,-36.0,-276.0,472.0,102119.0,-6.594000339508057,0,0
184.663997,-0.35975202918052673,-0.007995876483619213,0.03717726841568947,0.9322496652603149,-0.3662109375,-0.06103515625,-0.18310546875,0.0655517578125,-0.0291748046875,-0.9775390625,-36.0,-276.0,472.0,102119.0,-6.594000339508057,0,0
184.671022,-0.35975202918052673,-0.007995876483619213,0.03717726841568947,0.9322496652603149,0.18310546875,0.42724609375,0.06103515625,0.06689453125,-0.0302734375,-0.9674072265625,-36.0,-276.0,472.0,102119.0,-6.594000339508057,0,0
184.678001,-0.3597508370876312,-0.008024296723306179,0.03718828782439232,0.9322505593299866,0.06103515625,0.48828125,-0.06103515625,0.0662841796875,-0.0303955078125,-0.9697265625,-36.0,-276.0,472.0,102119.0,-6.594000339508057,0,0
184.685015,-0.35975202918052673,-0.007995876483619213,0.03717726841568947,0.9322496652603149,-0.3662109375,-0.1220703125,-0.244140625,0.0635986328125,-0.0279541015625,-0.9788818359375,-35.0,-277.0,473.0,102119.0,-6.594000339508057,0,0
184.691995,-0.35975202918052673,-0.007995876483619213,0.03717726841568947,0.9322496652603149,0.06103515625,0.1220703125,-0.06103515625,0.0650634765625,-0.03076171875,-0.9678955078125,-35.0,-277.0,473.0,102119.0,-6.594000339508057,0,0
184.698994,-0.35975202918052673,-0.007995876483619213,0.03717726841568947,0.9322496652603149,0.244140625,0.30517578125,-0.3662109375,0.064453125,-0.031005859375,-0.966796875,-35.0,-277.0,473.0,102119.0,-6.594000339508057,0,0
184.706019,-0.35975202918052673,-0.007995876483619213,0.03717726841568947,0.9322496652603149,-0.30517578125,0.06103515625,-0.18310546875,0.064697265625,-0.0289306640625,-0.97705078125,-35.0,-277.0,473.0,102119.0,-6.594000339508057,0,0
184.713002,-0.35975202918052673,-0.007995876483619213,0.03717726841568947,0.9322496652603149,-0.18310546875,0.42724609375,-0.1220703125,0.064697265625,-0.03125,-0.970703125,-35.0,-277.0,473.0,102119.0,-6.594000339508057,0,0
184.720018,-0.35975202918052673,-0.007995876483619213,0.03717726841568947,0.9322496652603149,0.06103515625,0.3662109375,-0.244140625,0.06494140625,-0.031005859375,-0.967041015625,-35.0,-277.0,473.0,102119.0,-6.594000339508057,0,0
184.726997,-0.35975322127342224,-0.007967457175254822,0.037166252732276917,0.9322487711906433,-0.18310546875,-0.06103515625,-0.18310546875,0.06201171875,-0.0289306640625,-0.97509765625,-35.0,-277.0,473.0,102119.0,-6.594000339508057,0,0
184.733996,-0.359752357006073,-0.007956437766551971,0.037194669246673584,0.9322475790977478,-0.06103515625,0.3662109375,-0.18310546875,0.06494140625,-0.0286865234375,-0.9678955078125,-35.0,-277.0,473.0,102119.0,-6.595000267028809,0,0
184.741021,-0.359752357006073,-0.007956437766551971,0.037194669246673584,0.9322475790977478,-0.18310546875,-0.18310546875,-0.18310546875,0.06591796875,-0.0318603515625,-0.968994140625,-35.0,-277.0,473.0,102119.0,-6.595000267028809,0,0
184.747053,-0.359752357006073,-0.007956437766551971,0.037194669246673584,0.9322475790977478,-0.18310546875,-0.18310546875,-0.18310546875,0.06591796875,-0.0318603515625,-0.968994140625,-35.0,-277.0,473.0,102119.0,-6.595000267028809,0,0
184.768001,-0.359752357006073,-0.007956437766551971,0.037194669246673584,0.9322475790977478,-0.30517578125,-0.244140625,-0.06103515625,0.0665283203125,-0.0306396484375,-0.9765625,-35.0,-277.0,473.0,102119.0,-6.595000267028809,0,0
184.775015,-0.359752357006073,-0.007956437766551971,0.037194669246673584,0.9322475790977478,-0.244140625,0.244140625,0.06103515625,0.0638427734375,-0.032958984375,-0.967041015625,-35.0,-277.0,473.0,102119.0,-6.595000267028809,0,0
184.781994,-0.359752357006073,-0.007956437766551971,0.037194669246673584,0.9322475790977478,-0.18310546875,-0.3662109375,-0.30517578125,0.066650390625,-0.0308837890625,-0.971435546875,-34.0,-277.0,473.0,102119.0,-6.595000267028809,0,0
184.788995,-0.35980919003486633,-0.007958846166729927,0.03719642758369446,0.9322255253791809,-0.06103515625,-0.06103515625,0.0,0.0657958984375,-0.02880859375,-0.9766845703125,-34.0,-277.0,473.0,102119.0,-6.595000267028809,0,0
184.79602,-0.35980919003486633,-0.007958846166729927,0.03719642758369446,0.9322255253791809,-0.1220703125,-0.06103515625,-0.18310546875,0.06396484375,-0.03125,-0.9661865234375,-34.0,-277.0,473.0,102119.0,-6.595000267028809,0,0
184.803002,-0.35980886220932007,-0.007998284883797169,0.03717902675271034,0.932227611541748,-0.06103515625,0.42724609375,0.06103515625,0.0670166015625,-0.031494140625,-0.9681396484375,-34.0,-277.0,473.0,102119.0,-6.595000267028809,0,0
184.810019,-0.35980886220932007,-0.007998284883797169,0.03717902675271034,0.932227611541748,-0.1220703125,0.06103515625,-0.1220703125,0.0660400390625,-0.031005859375,-0.9776611328125,-34.0,-277.0,473.0,102119.0,-6.595000267028809,0,0
184.816996,-0.3598079979419708,-0.007987265475094318,0.03720744699239731,0.9322264194488525,-0.48828125,-0.3662109375,-0.1220703125,0.0653076171875,-0.0291748046875,-0.9769287109375,-34.0,-277.0,473.0,102119.0,-6.595000267028809,0,0
184.823995,-0.35980886220932007,-0.007998284883797169,0.03717902675271034,0.932227611541748,0.0,0.244140625,0.0,0.0657958984375,-0.030517578125,-0.9666748046875,-34.0,-277.0,473.0,102119.0,-6.595000267028809,0,0
184.831021,-0.35980886220932007,-0.007998284883797169,0.03717902675271034,0.932227611541748,0.0,0.06103515625,0.1220703125,0.066162109375,-0.03271484375,-0.976318359375,-34.0,-277.0,473.0,102119.0,-6.5960001945495605,0,0
184.837053,-0.35980886220932007,-0.007998284883797169,0.03717902675271034,0.932227611541748,0.0,0.06103515625,0.1220703125,0.066162109375,-0.03271484375,-0.976318359375,-34.0,-277.0,473.0,102119.0,-6.5960001945495605,0,0
184.858002,-0.35980886220932007,-0.007998284883797169,0.03717902675271034,0.932227611541748,-0.3662109375,-0.06103515625,-0.18310546875,0.0654296875,-0.030029296875,-0.9761962890625,-34.0,-277.0,473.0,102119.0,-6.5960001945495605,0,0
184.865015,-0.35981008410453796,-0.007969865575432777,0.03716801106929779,0.9322267174720764,-0.1220703125,-0.1220703125,0.0,0.0635986328125,-0.0301513671875,-0.9693603515625,-34.0,-277.0,473.0,102119.0,-6.5960001945495605,0,0
184.871995,-0.3598109483718872,-0.007980884984135628,0.037139590829610825,0.9322279095649719,-0.42724609375,-0.1220703125,-0.06103515625,0.063720703125,-0.031494140625,-0.975341796875,-34.0,-277.0,473.0,102119.0,-6.5960001945495605,0,0
184.878998,-0.3598109483718872,-0.007980884984135628,0.037139590829610825,0.9322279095649719,-0.30517578125,-0.06103515625,0.0,0.0635986328125,-0.0289306640625,-0.9759521484375,-34.0,-277.0,473.0,102119.0,-6.5960001945495605,0,0
184.886023,-0.3598109483718872,-0.007980884984135628,0.037139590829610825,0.9322279095649719,-0.30517578125,-0.06103515625,-0.18310546875,0.062255859375,-0.0318603515625,-0.9720458984375,-35.0,-278.0,473.0,102119.0,-6.5960001945495605,0,0
184.893002,-0.3598109483718872,-0.007980884984135628,0.037139590829610825,0.9322279095649719,-0.06103515625,0.48828125,-0.6103515625,0.064208984375,-0.031494140625,-0.969482421875,-35.0,-278.0,473.0,102119.0,-6.5960001945495605,0,0
184.900018,-0.3598109483718872,-0.007980884984135628,0.037139590829610825,0.9322279095649719,-0.18310546875,0.18310546875,-0.244140625,0.0670166015625,-0.0294189453125,-0.9769287109375,-35.0,-278.0,473.0,102119.0,-6.5960001945495605,0,0
184.906997,-0.3598109483718872,-0.007980884984135628,0.037139590829610825,0.9322279095649719,-0.244140625,-0.1220703125,-0.1220703125,0.068603515625,-0.02978515625,-0.972412109375,-35.0,-278.0,473.0,102119.0,-6.5960001945495605,0,0
184.913996,-0.3598109483718872,-0.007980884984135628,0.037139590829610825,0.9322279095649719,-0.244140625,-0.244140625,0.0,0.0653076171875,-0.0325927734375,-0.9771728515625,-35.0,-278.0,473.0,102119.0,-6.5960001945495605,0,0
184.921021,-0.35981181263923645,-0.007991904392838478,0.03711117058992386,0.9322291016578674,-0.18310546875,0.18310546875,-0.1220703125,0.0667724609375,-0.02978515625,-0.9722900390625,-35.0,-278.0,473.0,102119.0,-6.5960001945495605,0,0
184.928005,-0.35981062054634094,-0.00802032370120287,0.03712218627333641,0.9322299957275391,0.18310546875,0.244140625,-0.1220703125,0.0672607421875,-0.0294189453125,-0.966796875,-35.0,-278.0,473.0,102119.0,-6.5960001945495605,0,0
184.934037,-0.35981062054634094,-0.00802032370120287,0.03712218627333641,0.9322299957275391,0.18310546875,0.244140625,-0.1220703125,0.0672607421875,-0.0294189453125,-0.966796875,-35.0,-278.0,473.0,102119.0,-6.5960001945495605,0,0
184.941021,-0.3598097562789917,-0.008009304292500019,0.037150606513023376,0.9322288036346436,-0.06103515625,0.42724609375,-0.1220703125,0.0654296875,-0.0283203125,-0.9693603515625,-35.0,-278.0,473.0,102119.0,-6.5960001945495605,0,0
184.948001,-0.3598097562789917,-0.008009304292500019,0.037150606513023376,0.9322288036346436,0.1220703125,0.18310546875,0.06103515625,0.066162109375,-0.0323486328125,-0.9664306640625,-35.0,-278.0,473.0,102119.0,-6.5960001945495605,0,0
184.955015,-0.3598097562789917,-0.008009304292500019,0.037150606513023376,0.9322288036346436,-0.1220703125,-0.1220703125,-0.30517578125,0.0665283203125,-0.03076171875,-0.975830078125,-35.0,-278.0,473.0,102119.0,-6.5960001945495605,0,0
184.961994,-0.3598097562789917,-0.008009304292500019,0.037150606513023376,0.9322288036346436,-0.48828125,-0.30517578125,-0.1220703125,0.0628662109375,-0.0274658203125,-0.9781494140625,-35.0,-278.0,473.0,102119.0,-6.5960001945495605,0,0
184.968994,-0.3598097562789917,-0.008009304292500019,0.037150606513023376,0.9322288036346436,0.1220703125,0.18310546875,0.0,0.0667724609375,-0.0311279296875,-0.9671630859375,-35.0,-278.0,473.0,102119.0,-6.5960001945495605,0,0
184.97602,-0.35980886220932007,-0.007998284883797169,0.03717902675271034,0.932227611541748,-0.244140625,0.30517578125,0.0,0.0648193359375,-0.027099609375,-0.9739990234375,-35.0,-278.0,473.0,102119.0,-6.5960001945495605,0,0
184.983003,-0.35980886220932007,-0.007998284883797169,0.03717902675271034,0.932227611541748,0.3662109375,0.48828125,-0.244140625,0.0654296875,-0.0281982421875,-0.96533203125,-36.0,-278.0,474.0,102119.0,-6.5960001945495605,0,0
184.990018,-0.35975202918052673,-0.007995876483619213,0.03717726841568947,0.9322496652603149,-0.244140625,0.1220703125,-0.244140625,0.0660400390625,-0.0281982421875,-0.968505859375,-36.0,-278.0,474.0,102119.0,-6.5960001945495605,0,0
184.996996,-0.35975202918052673,-0.007995876483619213,0.03717726841568947,0.9322496652603149,0.1220703125,0.3662109375,0.0,0.06640625,-0.0301513671875,-0.971923828125,-36.0,-278.0,474.0,102119.0,-6.5960001945495605,0,0
185.003996,-0.35975202918052673,-0.007995876483619213,0.03717726841568947,0.9322496652603149,-0.18310546875,0.06103515625,0.1220703125,0.0648193359375,-0.0294189453125,-0.976318359375,-36.0,-278.0,474.0,102119.0,-6.5960001945495605,0,0
185.01102,-0.35975322127342224,-0.007967457175254822,0.037166252732276917,0.9322487711906433,-0.30517578125,0.0,-0.30517578125,0.06298828125,-0.0284423828125,-0.97216796875,-36.0,-278.0,474.0,102119.0,-6.5960001945495605,0,0
185.031022,-0.35975322127342224,-0.007967457175254822,0.037166252732276917,0.9322487711906433,-0.42724609375,-0.42724609375,0.06103515625,0.0626220703125,-0.0277099609375,-0.9774169921875,-36.0,-278.0,474.0,102119.0,-6.5960001945495605,0,0
185.038001,-0.35975322127342224,-0.007967457175254822,0.037166252732276917,0.9322487711906433,-0.30517578125,0.1220703125,0.0,0.06787109375,-0.0306396484375,-0.9708251953125,-36.0,-278.0,474.0,102119.0,-6.5960001945495605,0,0
185.045015,-0.35975322127342224,-0.007967457175254822,0.037166252732276917,0.9322487711906433,-0.18310546875,0.18310546875,-0.06103515625,0.0662841796875,-0.031494140625,-0.9703369140625,-36.0,-278.0,474.0,102119.0,-6.5960001945495605,0,0
185.051994,-0.35975322127342224,-0.007967457175254822,0.037166252732276917,0.9322487711906433,0.06103515625,0.3662109375,0.06103515625,0.0677490234375,-0.031982421875,-0.9681396484375,-36.0,-278.0,474.0,102119.0,-6.5960001945495605,0,0
185.058994,-0.35975202918052673,-0.007995876483619213,0.03717726841568947,0.9322496652603149,-0.30517578125,-0.18310546875,-0.06103515625,0.0670166015625,-0.0296630859375,-0.9716796875,-36.0,-278.0,474.0,102119.0,-6.5960001945495605,0,0
185.066019,-0.35975202918052673,-0.007995876483619213,0.03717726841568947,0.9322496652603149,0.0,0.42724609375,-0.06103515625,0.06591796875,-0.0311279296875,-0.9708251953125,-36.0,-278.0,474.0,102119.0,-6.5960001945495605,0,0
185.073002,-0.35975202918052673,-0.007995876483619213,0.03717726841568947,0.9322496652603149,0.0,0.3662109375,0.1220703125,0.0689697265625,-0.0291748046875,-0.96728515625,-36.0,-278.0,474.0,102119.0,-6.5960001945495605,0,0
185.080018,-0.3597508370876312,-0.008024296723306179,0.03718828782439232,0.9322505593299866,-0.30517578125,-0.30517578125,0.0,0.0677490234375,-0.031982421875,-0.97314453125,-36.0,-278.0,474.0,102119.0,-6.5960001945495605,0,0
185.086996,-0.3597508370876312,-0.008024296723306179,0.03718828782439232,0.9322505593299866,0.06103515625,0.3662109375,0.06103515625,0.06591796875,-0.028564453125,-0.967529296875,-36.0,-277.0,475.0,102119.0,-6.5960001945495605,0,0
185.093995,-0.35966557264328003,-0.00802068505436182,0.037185654044151306,0.9322836399078369,0.06103515625,0.1220703125,0.0,0.067138671875,-0.031005859375,-0.9693603515625,-36.0,-277.0,475.0,102119.0,-6.5960001945495605,0,0
185.101021,-0.35966557264328003,-0.00802068505436182,0.037185654044151306,0.9322836399078369,-0.18310546875,-0.18310546875,-0.244140625,0.0670166015625,-0.029541015625,-0.974365234375,-36.0,-277.0,475.0,102119.0,-6.5960001945495605,0,0
185.121053,-0.3596659004688263,-0.007981245405972004,0.03720305487513542,0.9322815537452698,-0.18310546875,0.06103515625,0.18310546875,0.0631103515625,-0.029052734375,-0.9691162109375,-36.0,-277.0,475.0,102119.0,-6.5960001945495605,0,0
185.128001,-0.3596659004688263,-0.007981245405972004,0.03720305487513542,0.9322815537452698,-0.3662109375,0.1220703125,0.0,0.062744140625,-0.0263671875,-0.9759521484375,-36.0,-277.0,475.0,102119.0,-6.5960001945495605,0,0
185.135015,-0.3596659004688263,-0.007981245405972004,0.03720305487513542,0.9322815537452698,-0.244140625,-0.244140625,-0.06103515625,0.062744140625,-0.0286865234375,-0.9735107421875,-36.0,-277.0,475.0,102119.0,-6.5960001945495605,0,0
185.141995,-0.3596670925617218,-0.007952826097607613,0.03719203546643257,0.9322806596755981,-0.42724609375,-0.244140625,0.0,0.0614013671875,-0.0260009765625,-0.9776611328125,-36.0,-277.0,475.0,102119.0,-6.5960001945495605,0,0
185.148998,-0.3596670925617218,-0.007952826097607613,0.03719203546643257,0.9322806596755981,-0.18310546875,0.1220703125,-0.1220703125,0.063232421875,-0.0311279296875,-0.9730224609375,-36.0,-277.0,475.0,102119.0,-6.5960001945495605,0,0
185.156023,-0.3596670925617218,-0.007952826097607613,0.03719203546643257,0.9322806596755981,-0.1220703125,-0.1220703125,0.244140625,0.066162109375,-0.0303955078125,-0.9742431640625,-36.0,-277.0,475.0,102119.0,-6.5960001945495605,0,0
185.163002,-0.3596670925617218,-0.007952826097607613,0.03719203546643257,0.9322806596755981,0.06103515625,0.1220703125,-0.06103515625,0.0633544921875,-0.0286865234375,-0.9677734375,-36.0,-277.0,475.0,102119.0,-6.5960001945495605,0,0
185.170019,-0.3596670925617218,-0.007952826097607613,0.03719203546643257,0.9322806596755981,0.1220703125,0.42724609375,-0.06103515625,0.0655517578125,-0.0306396484375,-0.972900390625,-36.0,-277.0,475.0,102119.0,-6.5960001945495605,0,0
185.176996,-0.35966500639915466,-0.007970225997269154,0.03723147511482239,0.9322803020477295,-0.06103515625,0.18310546875,-0.244140625,0.0675048828125,-0.0277099609375,-0.9769287109375,-36.0,-277.0,475.0,102119.0,-6.5960001945495605,0,0
185.183997,-0.35966500639915466,-0.007970225997269154,0.03723147511482239,0.9322803020477295,-0.06103515625,0.18310546875,-0.244140625,0.0675048828125,-0.0277099609375,-0.9769287109375,-35.0,-277.0,475.0,102119.0,-6.5960001945495605,0,0
185.191021,-0.35966500639915466,-0.007970225997269154,0.03723147511482239,0.9322803020477295,0.244140625,0.48828125,0.06103515625,0.067138671875,-0.0294189453125,-0.9725341796875,-35.0,-277.0,475.0,102119.0,-6.5960001945495605,0,0
185.198004,-0.35966381430625916,-0.00799864623695612,0.03724249452352524,0.9322811961174011,-0.244140625,-0.30517578125,-0.18310546875,0.065673828125,-0.030517578125,-0.9771728515625,-35.0,-277.0,475.0,102119.0,-6.5960001945495605,0,0
185.205018,-0.3596646785736084,-0.00800966564565897,0.03721407428383827,0.9322823882102966,-0.1220703125,-0.18310546875,-0.06103515625,0.06787109375,-0.0323486328125,-0.97119140625,-35.0,-277.0,475.0,102119.0,-6.5960001945495605,0,0
185.211052,-0.3596646785736084,-0.00800966564565897,0.03721407428383827,0.9322823882102966,-0.1220703125,-0.18310546875,-0.06103515625,0.06787109375,-0.0323486328125,-0.97119140625,-35.0,-277.0,475.0,102119.0,-6.5960001945495605,0,0
185.218001,-0.35966259241104126,-0.00802706554532051,0.03725351393222809,0.9322820901870728,-0.18310546875,0.244140625,0.0,0.0670166015625,-0.0289306640625,-0.9732666015625,-35.0,-277.0,475.0,102119.0,-6.5960001945495605,0,0
185.225015,-0.35966259241104126,-0.00802706554532051,0.03725351393222809,0.9322820901870728,-0.3662109375,-0.30517578125,-0.18310546875,0.066650390625,-0.029541015625,-0.9744873046875,-35.0,-277.0,475.0,102119.0,-6.5960001945495605,0,0
185.231995,-0.35966259241104126,-0.00802706554532051,0.03725351393222809,0.9322820901870728,0.244140625,0.30517578125,0.1220703125,0.0670166015625,-0.0299072265625,-0.9666748046875,-35.0,-277.0,475.0,102119.0,-6.5960001945495605,0,0
185.238998,-0.3596634864807129,-0.008038084954023361,0.03722509369254112,0.9322832822799683,-0.06103515625,0.6103515625,0.06103515625,0.0645751953125,-0.0323486328125,-0.9716796875,-35.0,-277.0,475.0,102119.0,-6.5960001945495605,0,0
185.246019,-0.35966259241104126,-0.00802706554532051,0.03725351393222809,0.9322820901870728,-0.3662109375,0.0,-0.244140625,0.063232421875,-0.02734375,-0.9771728515625,-35.0,-277.0,475.0,102119.0,-6.5960001945495605,0,0
185.253003,-0.35966259241104126,-0.00802706554532051,0.03725351393222809,0.9322820901870728,0.06103515625,0.0,0.0,0.066650390625,-0.028564453125,-0.975830078125,-35.0,-277.0,475.0,102119.0,-6.5960001945495605,0,0
185.260019,-0.35966259241104126,-0.00802706554532051,0.03725351393222809,0.9322820901870728,0.06103515625,0.30517578125,0.0,0.0655517578125,-0.0284423828125,-0.9691162109375,-35.0,-277.0,475.0,102119.0,-6.5960001945495605,0,0
185.266996,-0.35966381430625916,-0.00799864623695612,0.03724249452352524,0.9322811961174011,-0.18310546875,-0.1220703125,-0.18310546875,0.064697265625,-0.0313720703125,-0.9703369140625,-35.0,-277.0,475.0,102119.0,-6.5960001945495605,0,0
185.273995,-0.35966381430625916,-0.00799864623695612,0.03724249452352524,0.9322811961174011,0.0,0.06103515625,0.06103515625,0.0633544921875,-0.03076171875,-0.973388671875,-35.0,-277.0,475.0,102119.0,-6.5960001945495605,0,0
185.301053,-0.35975027084350586,-0.007973837666213512,0.0372341088950634,0.9322472214698792,0.0,0.18310546875,-0.06103515625,0.064697265625,-0.0279541015625,-0.9708251953125,-34.0,-278.0,475.0,102119.0,-6.5960001945495605,0,0
185.308001,-0.35975027084350586,-0.007973837666213512,0.0372341088950634,0.9322472214698792,-0.3662109375,-0.30517578125,-0.18310546875,0.0653076171875,-0.033203125,-0.972900390625,-34.0,-278.0,475.0,102119.0,-6.5960001945495605,0,0
185.315015,-0.35975027084350586,-0.007973837666213512,0.0372341088950634,0.9322472214698792,0.0,0.48828125,0.0,0.065673828125,-0.0284423828125,-0.96875,-34.0,-278.0,475.0,102119.0,-6.5960001945495605,0,0
185.321994,-0.35975027084350586,-0.007973837666213512,0.0372341088950634,0.9322472214698792,-0.1220703125,0.1220703125,0.06103515625,0.0657958984375,-0.0308837890625,-0.9677734375,-34.0,-278.0,475.0,102119.0,-6.5960001945495605,0,0
185.328994,-0.35974907875061035,-0.008002257905900478,0.03724512830376625,0.9322481155395508,-0.244140625,-0.18310546875,-0.06103515625,0.067626953125,-0.02880859375,-0.97412109375,-34.0,-278.0,475.0,102119.0,-6.5960001945495605,0,0
185.336019,-0.35974907875061035,-0.008002257905900478,0.03724512830376625,0.9322481155395508,-0.18310546875,0.3662109375,0.18310546875,0.06787109375,-0.0283203125,-0.967041015625,-34.0,-278.0,475.0,102119.0,-6.5960001945495605,0,0
185.343002,-0.35974785685539246,-0.00803067721426487,0.0372561477124691,0.9322490096092224,0.18310546875,0.30517578125,0.0,0.068115234375,-0.0289306640625,-0.969970703125,-34.0,-278.0,475.0,102119.0,-6.5960001945495605,0,0
185.350018,-0.35974785685539246,-0.00803067721426487,0.0372561477124691,0.9322490096092224,-0.244140625,-0.1220703125,-0.1220703125,0.066650390625,-0.0291748046875,-0.973876953125,-34.0,-278.0,475.0,102119.0,-6.5960001945495605,0,0
185.356996,-0.35974785685539246,-0.00803067721426487,0.0372561477124691,0.9322490096092224,0.1220703125,0.244140625,-0.06103515625,0.0673828125,-0.02880859375,-0.96435546875,-34.0,-278.0,475.0,102119.0,-6.5960001945495605,0,0
185.378004,-0.35974907875061035,-0.008002257905900478,0.03724512830376625,0.9322481155395508,-0.244140625,-0.244140625,-0.1220703125,0.0645751953125,-0.0277099609375,-0.972412109375,-34.0,-278.0,475.0,102119.0,-6.5960001945495605,0,0
185.385018,-0.35974907875061035,-0.008002257905900478,0.03724512830376625,0.9322481155395508,-0.1220703125,0.67138671875,-0.18310546875,0.0635986328125,-0.0284423828125,-0.9666748046875,-33.0,-278.0,475.0,102119.0,-6.5960001945495605,0,0
185.391994,-0.35980501770973206,-0.007993646897375584,0.03727530688047409,0.9322248697280884,-0.18310546875,-0.18310546875,-0.244140625,0.065673828125,-0.02880859375,-0.976806640625,-33.0,-278.0,475.0,102119.0,-6.5960001945495605,0,0
185.398025,-0.35980501770973206,-0.007993646897375584,0.03727530688047409,0.9322248697280884,-0.18310546875,-0.18310546875,-0.244140625,0.065673828125,-0.02880859375,-0.976806640625,-33.0,-278.0,475.0,102119.0,-6.5960001945495605,0,0
185.405015,-0.3598071038722992,-0.007976246066391468,0.037235867232084274,0.9322251677513123,0.0,0.48828125,-0.18310546875,0.065673828125,-0.0296630859375,-0.966796875,-33.0,-278.0,475.0,102119.0,-6.5960001945495605,0,0
185.453996,-0.3598071038722992,-0.007976246066391468,0.037235867232084274,0.9322251677513123,-0.30517578125,-0.18310546875,0.18310546875,0.06494140625,-0.029296875,-0.9757080078125,-33.0,-278.0,475.0,102119.0,-6.5960001945495605,0,0
185.46102,-0.3598079979419708,-0.007987265475094318,0.03720744699239731,0.9322264194488525,-0.30517578125,-0.1220703125,0.06103515625,0.064208984375,-0.031494140625,-0.977783203125,-33.0,-278.0,475.0,102119.0,-6.5960001945495605,0,0
185.468004,-0.3598079979419708,-0.007987265475094318,0.03720744699239731,0.9322264194488525,0.06103515625,0.3662109375,0.0,0.069091796875,-0.03125,-0.9708251953125,-33.0,-278.0,475.0,102119.0,-6.5960001945495605,0,0
185.475019,-0.3598079979419708,-0.007987265475094318,0.03720744699239731,0.9322264194488525,-0.48828125,-0.42724609375,-0.06103515625,0.0654296875,-0.0302734375,-0.9759521484375,-33.0,-278.0,475.0,102119.0,-6.5960001945495605,0,0
185.481998,-0.35980677604675293,-0.008015685714781284,0.03721846640110016,0.9322272539138794,-0.54931640625,0.06103515625,0.06103515625,0.0682373046875,-0.0291748046875,-0.9749755859375,-32.0,-277.0,477.0,102119.0,-6.5960001945495605,0,0
185.488032,-0.35980677604675293,-0.008015685714781284,0.03721846640110016,0.9322272539138794,-0.54931640625,0.06103515625,0.06103515625,0.0682373046875,-0.0291748046875,-0.9749755859375,-32.0,-277.0,477.0,102119.0,-6.5960001945495605,0,0
185.495015,-0.3598911762237549,-0.008008279837667942,0.03724952042102814,0.9321930408477783,-0.18310546875,-0.30517578125,-0.30517578125,0.06591796875,-0.027587890625,-0.9775390625,-32.0,-277.0,477.0,102119.0,-6.5960001945495605,0,0
185.501995,-0.359889954328537,-0.008036699146032333,0.03726053982973099,0.93219393491745,-0.30517578125,0.3662109375,0.06103515625,0.0660400390625,-0.028076171875,-0.9736328125,-32.0,-277.0,477.0,102119.0,-6.5960001945495605,0,0
185.508998,-0.359889954328537,-0.008036699146032333,0.03726053982973099,0.93219393491745,0.18310546875,0.30517578125,0.1220703125,0.0665283203125,-0.029296875,-0.9693603515625,-32.0,-277.0,477.0,102119.0,-6.5960001945495605,0,0
185.516023,-0.359889954328537,-0.008036699146032333,0.03726053982973099,0.93219393491745,-0.42724609375,-0.1220703125,-0.18310546875,0.064697265625,-0.0291748046875,-0.9774169921875,-32.0,-277.0,477.0,102119.0,-6.5960001945495605,0,0
185.523002,-0.359889954328537,-0.008036699146032333,0.03726053982973099,0.93219393491745,-0.18310546875,-0.30517578125,-0.06103515625,0.064453125,-0.0302734375,-0.976806640625,-32.0,-277.0,477.0,102119.0,-6.5960001945495605,0,0
185.530018,-0.359889954328537,-0.008036699146032333,0.03726053982973099,0.93219393491745,0.1220703125,0.48828125,0.18310546875,0.0655517578125,-0.0286865234375,-0.966552734375,-32.0,-277.0,477.0,102119.0,-6.5960001945495605,0,0
185.536996,-0.3598911762237549,-0.008008279837667942,0.03724952042102814,0.9321930408477783,-0.18310546875,0.0,-0.1220703125,0.0625,-0.028564453125,-0.9757080078125,-32.0,-277.0,477.0,102119.0,-6.5960001945495605,0,0
185.55102,-0.35989028215408325,-0.007997260428965092,0.0372779406607151,0.9321918487548828,0.06103515625,0.06103515625,0.0,0.06494140625,-0.02880859375,-0.9686279296875,-32.0,-277.0,477.0,102119.0,-6.5960001945495605,0,0
185.558004,-0.3598923683166504,-0.007979859597980976,0.03723850101232529,0.9321921467781067,0.06103515625,0.3662109375,-0.1220703125,0.064453125,-0.030029296875,-0.9661865234375,-32.0,-277.0,477.0,102119.0,-6.5960001945495605,0,0
185.565019,-0.35989150404930115,-0.007968840189278126,0.03726692125201225,0.9321909546852112,-0.42724609375,-0.1220703125,0.1220703125,0.062255859375,-0.029296875,-0.976318359375,-32.0,-277.0,477.0,102119.0,-6.5960001945495605,0,0
185.571994,-0.3598923683166504,-0.007979859597980976,0.03723850101232529,0.9321921467781067,-0.244140625,-0.1220703125,0.18310546875,0.0635986328125,-0.03076171875,-0.96875,-32.0,-277.0,477.0,102119.0,-6.5960001945495605,0,0
185.578997,-0.3598923683166504,-0.007979859597980976,0.03723850101232529,0.9321921467781067,0.0,0.48828125,-0.1220703125,0.06396484375,-0.030029296875,-0.96630859375,-32.0,-277.0,477.0,102119.0,-6.5960001945495605,0,0
185.58503,-0.3598923683166504,-0.007979859597980976,0.03723850101232529,0.9321921467781067,0.0,0.48828125,-0.1220703125,0.06396484375,-0.030029296875,-0.96630859375,-32.0,-277.0,477.0,102119.0,-6.5960001945495605,0,0
185.591995,-0.3600344657897949,-0.00798588152974844,0.03724289312958717,0.9321370124816895,-0.06103515625,-0.1220703125,0.1220703125,0.0650634765625,-0.030517578125,-0.97265625,-31.0,-277.0,477.0,102119.0,-6.595000267028809,0,0
185.598994,-0.3600344657897949,-0.00798588152974844,0.03724289312958717,0.9321370124816895,0.0,0.30517578125,-0.06103515625,0.065185546875,-0.0303955078125,-0.9676513671875,-31.0,-277.0,477.0,102119.0,-6.595000267028809,0,0
185.60602,-0.3600344657897949,-0.00798588152974844,0.03724289312958717,0.9321370124816895,-0.1220703125,0.06103515625,0.06103515625,0.064208984375,-0.0308837890625,-0.9732666015625,-31.0,-277.0,477.0,102119.0,-6.595000267028809,0,0
185.613003,-0.3600344657897949,-0.00798588152974844,0.03724289312958717,0.9321370124816895,-0.244140625,0.42724609375,-0.1220703125,0.0689697265625,-0.033447265625,-0.9688720703125,-31.0,-277.0,477.0,102119.0,-6.595000267028809,0,0
185.620019,-0.36003413796424866,-0.008025321178138256,0.03722549229860306,0.9321390986442566,-0.18310546875,0.244140625,0.0,0.06787109375,-0.0323486328125,-0.9681396484375,-31.0,-277.0,477.0,102119.0,-6.595000267028809,0,0
185.641021,-0.3600332736968994,-0.008014301769435406,0.037253912538290024,0.9321379065513611,-0.3662109375,-0.06103515625,-0.06103515625,0.064453125,-0.0284423828125,-0.96728515625,-31.0,-277.0,477.0,102119.0,-6.595000267028809,0,0
185.648005,-0.3600320518016815,-0.008042721077799797,0.037264931946992874,0.9321388006210327,-0.30517578125,-0.30517578125,-0.30517578125,0.0670166015625,-0.029541015625,-0.9761962890625,-31.0,-277.0,477.0,102119.0,-6.595000267028809,0,0
185.655018,-0.3600320518016815,-0.008042721077799797,0.037264931946992874,0.9321388006210327,0.06103515625,0.1220703125,0.0,0.06689453125,-0.0313720703125,-0.9676513671875,-31.0,-277.0,477.0,102119.0,-6.595000267028809,0,0
185.661994,-0.3600320518016815,-0.008042721077799797,0.037264931946992874,0.9321388006210327,-0.30517578125,-0.244140625,0.0,0.0670166015625,-0.0294189453125,-0.9737548828125,-31.0,-277.0,477.0,102119.0,-6.595000267028809,0,0
185.668997,-0.3600320518016815,-0.008042721077799797,0.037264931946992874,0.9321388006210327,-0.42724609375,-0.18310546875,-0.1220703125,0.065185546875,-0.0289306640625,-0.978271484375,-31.0,-277.0,477.0,102119.0,-6.595000267028809,0,0
185.67503,-0.3600320518016815,-0.008042721077799797,0.037264931946992874,0.9321388006210327,-0.42724609375,-0.18310546875,-0.1220703125,0.065185546875,-0.0289306640625,-0.978271484375,-31.0,-277.0,477.0,102119.0,-6.595000267028809,0,0
185.681995,-0.3600320518016815,-0.008042721077799797,0.037264931946992874,0.9321388006210327,-0.48828125,-0.06103515625,-0.1220703125,0.064453125,-0.0283203125,-0.9739990234375,-32.0,-276.0,478.0,102119.0,-6.594000339508057,0,0
185.688994,-0.3600323796272278,-0.008003282360732555,0.03728233277797699,0.9321367144584656,-0.244140625,0.0,-0.244140625,0.0634765625,-0.026611328125,-0.9793701171875,-32.0,-276.0,478.0,102119.0,-6.594000339508057,0,0
185.696019,-0.3600332736968994,-0.008014301769435406,0.037253912538290024,0.9321379065513611,-0.1220703125,-0.06103515625,0.1220703125,0.065185546875,-0.031005859375,-0.968994140625,-32.0,-276.0,478.0,102119.0,-6.594000339508057,0,0
185.703002,-0.3600323796272278,-0.008003282360732555,0.03728233277797699,0.9321367144584656,0.42724609375,0.06103515625,-0.1220703125,0.0628662109375,-0.027099609375,-0.967529296875,-32.0,-276.0,478.0,102119.0,-6.594000339508057,0,0
185.710019,-0.3600323796272278,-0.008003282360732555,0.03728233277797699,0.9321367144584656,0.0,-0.1220703125,0.1220703125,0.0631103515625,-0.029541015625,-0.974853515625,-32.0,-276.0,478.0,102119.0,-6.594000339508057,0,0
185.716996,-0.3600336015224457,-0.00797486212104559,0.03727131336927414,0.932135820388794,-0.42724609375,-0.1220703125,-0.18310546875,0.06396484375,-0.0302734375,-0.971923828125,-32.0,-276.0,478.0,102119.0,-6.594000339508057,0,0
185.723995,-0.3600336015224457,-0.00797486212104559,0.03727131336927414,0.932135820388794,-0.30517578125,-0.30517578125,-0.06103515625,0.0660400390625,-0.0277099609375,-0.9769287109375,-32.0,-276.0,478.0,102119.0,-6.594000339508057,0,0
185.731021,-0.3600336015224457,-0.00797486212104559,0.03727131336927414,0.932135820388794,0.0,0.244140625,-0.244140625,0.0648193359375,-0.031982421875,-0.9683837890625,-32.0,-276.0,478.0,102119.0,-6.594000339508057,0,0
185.738004,-0.3600323796272278,-0.008003282360732555,0.03728233277797699,0.9321367144584656,-0.18310546875,0.3662109375,0.1220703125,0.067138671875,-0.0294189453125,-0.9676513671875,-32.0,-276.0,478.0,102119.0,-6.594000339508057,0,0
185.745018,-0.3600323796272278,-0.008003282360732555,0.03728233277797699,0.9321367144584656,-0.06103515625,0.06103515625,-0.3662109375,0.0654296875,-0.0311279296875,-0.977783203125,-32.0,-276.0,478.0,102119.0,-6.594000339508057,0,0
185.751998,-0.3600323796272278,-0.008003282360732555,0.03728233277797699,0.9321367144584656,-0.18310546875,-0.1220703125,0.06103515625,0.0657958984375,-0.0301513671875,-0.9677734375,-32.0,-276.0,478.0,102119.0,-6.594000339508057,0,0
185.758999,-0.3600323796272278,-0.008003282360732555,0.03728233277797699,0.9321367144584656,0.06103515625,0.30517578125,-0.06103515625,0.068115234375,-0.0291748046875,-0.9674072265625,-32.0,-276.0,478.0,102119.0,-6.594000339508057,0,0
185.766018,-0.3600323796272278,-0.008003282360732555,0.03728233277797699,0.9321367144584656,-0.244140625,-0.06103515625,-0.06103515625,0.067138671875,-0.029052734375,-0.97607421875,-32.0,-276.0,478.0,102119.0,-6.594000339508057,0,0
185.772051,-0.3600323796272278,-0.008003282360732555,0.03728233277797699,0.9321367144584656,-0.244140625,-0.06103515625,-0.06103515625,0.067138671875,-0.029052734375,-0.97607421875,-32.0,-276.0,478.0,102119.0,-6.594000339508057,0,0
185.778998,-0.3600311875343323,-0.008031701669096947,0.03729335218667984,0.9321376085281372,0.0,-0.1220703125,-0.3662109375,0.06689453125,-0.02978515625,-0.96826171875,-32.0,-276.0,478.0,102119.0,-6.594000339508057,0,0
185.786024,-0.3600311875343323,-0.008031701669096947,0.03729335218667984,0.9321376085281372,-0.3662109375,-0.18310546875,-0.18310546875,0.0645751953125,-0.030517578125,-0.9720458984375,-32.0,-275.0,477.0,102119.0,-6.594000339508057,0,0
185.793002,-0.3600323796272278,-0.008003282360732555,0.03728233277797699,0.9321367144584656,0.1220703125,0.42724609375,0.1220703125,0.0634765625,-0.030517578125,-0.968505859375,-32.0,-275.0,477.0,102119.0,-6.594000339508057,0,0
185.813997,-0.3600336015224457,-0.00797486212104559,0.03727131336927414,0.932135820388794,0.06103515625,-0.06103515625,0.0,0.0625,-0.0301513671875,-0.97705078125,-32.0,-275.0,477.0,102119.0,-6.594000339508057,0,0
185.82102,-0.3600336015224457,-0.00797486212104559,0.03727131336927414,0.932135820388794,-0.30517578125,-0.1220703125,-0.1220703125,0.0655517578125,-0.0322265625,-0.971435546875,-32.0,-275.0,477.0,102119.0,-6.594000339508057,0,0
185.828005,-0.3600336015224457,-0.00797486212104559,0.03727131336927414,0.932135820388794,0.0,0.244140625,-0.30517578125,0.0655517578125,-0.0316162109375,-0.968017578125,-32.0,-275.0,477.0,102119.0,-6.594000339508057,0,0
185.835019,-0.3600336015224457,-0.00797486212104559,0.03727131336927414,0.932135820388794,0.0,0.0,-0.244140625,0.066650390625,-0.028076171875,-0.975830078125,-32.0,-275.0,477.0,102119.0,-6.594000339508057,0,0
185.841995,-0.3600323796272278,-0.008003282360732555,0.03728233277797699,0.9321367144584656,-0.54931640625,-0.3662109375,-0.30517578125,0.0654296875,-0.028564453125,-0.970947265625,-32.0,-275.0,477.0,102119.0,-6.594000339508057,0,0
185.848998,-0.3600323796272278,-0.008003282360732555,0.03728233277797699,0.9321367144584656,-0.18310546875,0.0,0.0,0.0665283203125,-0.0303955078125,-0.9681396484375,-32.0,-275.0,477.0,102119.0,-6.594000339508057,0,0
185.856019,-0.3600332736968994,-0.008014301769435406,0.037253912538290024,0.9321379065513611,-0.06103515625,0.1220703125,0.0,0.0687255859375,-0.0330810546875,-0.9742431640625,-32.0,-275.0,477.0,102119.0,-6.594000339508057,0,0
185.86205,-0.3600332736968994,-0.008014301769435406,0.037253912538290024,0.9321379065513611,-0.06103515625,0.1220703125,0.0,0.0687255859375,-0.0330810546875,-0.9742431640625,-32.0,-275.0,477.0,102119.0,-6.594000339508057,0,0
185.868995,-0.3600323796272278,-0.008003282360732555,0.03728233277797699,0.9321367144584656,-0.42724609375,0.1220703125,-0.1220703125,0.0655517578125,-0.0277099609375,-0.969482421875,-32.0,-275.0,477.0,102119.0,-6.594000339508057,0,0
185.876019,-0.3600323796272278,-0.008003282360732555,0.03728233277797699,0.9321367144584656,0.0,0.18310546875,-0.18310546875,0.0665283203125,-0.03076171875,-0.9708251953125,-32.0,-275.0,477.0,102119.0,-6.594000339508057,0,0
185.883003,-0.3600323796272278,-0.008003282360732555,0.03728233277797699,0.9321367144584656,-0.42724609375,-0.1220703125,0.0,0.0660400390625,-0.028564453125,-0.9757080078125,-33.0,-274.0,477.0,102119.0,-6.594000339508057,0,0
185.903996,-0.3600323796272278,-0.008003282360732555,0.03728233277797699,0.9321367144584656,0.1220703125,0.30517578125,-0.30517578125,0.063232421875,-0.028076171875,-0.97509765625,-33.0,-274.0,477.0,102119.0,-6.594000339508057,0,0
185.91102,-0.3600323796272278,-0.008003282360732555,0.03728233277797699,0.9321367144584656,-0.1220703125,-0.30517578125,-0.1220703125,0.06298828125,-0.0281982421875,-0.9730224609375,-33.0,-274.0,477.0,102119.0,-6.594000339508057,0,0
185.918004,-0.3600323796272278,-0.008003282360732555,0.03728233277797699,0.9321367144584656,-0.18310546875,-0.244140625,0.0,0.065673828125,-0.0286865234375,-0.9776611328125,-33.0,-274.0,477.0,102119.0,-6.594000339508057,0,0
185.925019,-0.3600323796272278,-0.008003282360732555,0.03728233277797699,0.9321367144584656,-0.1220703125,0.18310546875,-0.3662109375,0.0657958984375,-0.03271484375,-0.9727783203125,-33.0,-274.0,477.0,102119.0,-6.594000339508057,0,0
185.931995,-0.3600323796272278,-0.008003282360732555,0.03728233277797699,0.9321367144584656,-0.18310546875,-0.18310546875,-0.06103515625,0.0654296875,-0.02978515625,-0.9752197265625,-33.0,-274.0,477.0,102119.0,-6.594000339508057,0,0
185.938997,-0.3600332736968994,-0.008014301769435406,0.037253912538290024,0.9321379065513611,-0.3662109375,-0.1220703125,-0.06103515625,0.0655517578125,-0.029296875,-0.97509765625,-33.0,-274.0,477.0,102119.0,-6.594000339508057,0,0
185.946018,-0.3600332736968994,-0.008014301769435406,0.037253912538290024,0.9321379065513611,0.1220703125,0.6103515625,0.0,0.06494140625,-0.0284423828125,-0.9703369140625,-33.0,-274.0,477.0,102119.0,-6.594000339508057,0,0
185.953002,-0.3600332736968994,-0.008014301769435406,0.037253912538290024,0.9321379065513611,0.18310546875,0.18310546875,0.0,0.066162109375,-0.0306396484375,-0.96484375,-33.0,-274.0,477.0,102119.0,-6.594000339508057,0,0
185.959035,-0.3600332736968994,-0.008014301769435406,0.037253912538290024,0.9321379065513611,0.18310546875,0.18310546875,0.0,0.066162109375,-0.0306396484375,-0.96484375,-33.0,-274.0,477.0,102119.0,-6.594000339508057,0,0
185.96602,-0.3600332736968994,-0.008014301769435406,0.037253912538290024,0.9321379065513611,0.1220703125,0.54931640625,-0.1220703125,0.0662841796875,-0.0316162109375,-0.9683837890625,-33.0,-274.0,477.0,102119.0,-6.594000339508057,0,0
185.973003,-0.3600332736968994,-0.008014301769435406,0.037253912538290024,0.9321379065513611,-0.1220703125,0.06103515625,0.18310546875,0.0653076171875,-0.0311279296875,-0.9696044921875,-33.0,-274.0,477.0,102119.0,-6.594000339508057,0,0
185.980018,-0.3600332736968994,-0.008014301769435406,0.037253912538290024,0.9321379065513611,-0.06103515625,0.1220703125,-0.42724609375,0.066650390625,-0.03125,-0.9720458984375,-33.0,-274.0,477.0,102119.0,-6.594000339508057,0,0
185.986997,-0.3600320518016815,-0.008042721077799797,0.037264931946992874,0.9321388006210327,0.244140625,0.06103515625,0.0,0.0684814453125,-0.0302734375,-0.9678955078125,-32.0,-275.0,477.0,102119.0,-6.595000267028809,0,0
185.993996,-0.36003294587135315,-0.008053740486502647,0.03723651170730591,0.9321399927139282,-0.1220703125,-0.06103515625,-0.244140625,0.067626953125,-0.02880859375,-0.97705078125,-32.0,-275.0,477.0,102119.0,-6.595000267028809,0,0
186.00102,-0.36003294587135315,-0.008053740486502647,0.03723651170730591,0.9321399927139282,0.244140625,0.1220703125,-0.244140625,0.06494140625,-0.0296630859375,-0.9697265625,-32.0,-275.0,477.0,102119.0,-6.595000267028809,0,0
186.008005,-0.3600320518016815,-0.008042721077799797,0.037264931946992874,0.9321388006210327,0.1220703125,0.1220703125,0.0,0.0655517578125,-0.031005859375,-0.9686279296875,-32.0,-275.0,477.0,102119.0,-6.595000267028809,0,0
186.015018,-0.3600320518016815,-0.008042721077799797,0.037264931946992874,0.9321388006210327,-0.42724609375,-0.18310546875,0.18310546875,0.0643310546875,-0.0303955078125,-0.973388671875,-32.0,-275.0,477.0,102119.0,-6.595000267028809,0,0
186.021994,-0.3600320518016815,-0.008042721077799797,0.037264931946992874,0.9321388006210327,0.244140625,0.244140625,-0.1220703125,0.0675048828125,-0.0318603515625,-0.96826171875,-32.0,-275.0,477.0,102119.0,-6.595000267028809,0,0
186.028997,-0.3600320518016815,-0.008042721077799797,0.037264931946992874,0.9321388006210327,0.0,0.18310546875,0.06103515625,0.0660400390625,-0.03076171875,-0.9722900390625,-32.0,-275.0,477.0,102119.0,-6.595000267028809,0,0
186.036018,-0.3600320518016815,-0.008042721077799797,0.037264931946992874,0.9321388006210327,-0.3662109375,-0.1220703125,0.42724609375,0.0650634765625,-0.029296875,-0.97509765625,-32.0,-275.0,477.0,102119.0,-6.595000267028809,0,0
186.043002,-0.3600320518016815,-0.008042721077799797,0.037264931946992874,0.9321388006210327,-0.18310546875,0.244140625,-0.1220703125,0.0638427734375,-0.027587890625,-0.9666748046875,-32.0,-275.0,477.0,102119.0,-6.595000267028809,0,0
186.049034,-0.3600320518016815,-0.008042721077799797,0.037264931946992874,0.9321388006210327,-0.18310546875,0.244140625,-0.1220703125,0.0638427734375,-0.027587890625,-0.9666748046875,-32.0,-275.0,477.0,102119.0,-6.595000267028809,0,0
186.056023,-0.3600323796272278,-0.008003282360732555,0.03728233277797699,0.9321367144584656,-0.244140625,-0.42724609375,-0.1220703125,0.0626220703125,-0.0272216796875,-0.975341796875,-32.0,-275.0,477.0,102119.0,-6.595000267028809,0,0
186.076996,-0.3600344657897949,-0.00798588152974844,0.03724289312958717,0.9321370124816895,-0.3662109375,-0.18310546875,-0.06103515625,0.0623779296875,-0.029052734375,-0.9793701171875,-32.0,-275.0,477.0,102119.0,-6.595000267028809,0,0
186.083996,-0.36003565788269043,-0.007957462221384048,0.03723187372088432,0.9321361780166626,-0.06103515625,0.3662109375,-0.3662109375,0.063232421875,-0.029541015625,-0.968505859375,-33.0,-275.0,477.0,102119.0,-6.594000339508057,0,0
186.09102,-0.36003565788269043,-0.007957462221384048,0.03723187372088432,0.9321361780166626,0.0,0.42724609375,0.1220703125,0.0660400390625,-0.031982421875,-0.9676513671875,-33.0,-275.0,477.0,102119.0,-6.594000339508057,0,0
186.098004,-0.3600344657897949,-0.00798588152974844,0.03724289312958717,0.9321370124816895,-0.18310546875,-0.06103515625,-0.18310546875,0.067138671875,-0.0311279296875,-0.97607421875,-33.0,-275.0,477.0,102119.0,-6.594000339508057,0,0
186.105018,-0.3600344657897949,-0.00798588152974844,0.03724289312958717,0.9321370124816895,-0.1220703125,-0.18310546875,0.06103515625,0.0670166015625,-0.03125,-0.97509765625,-33.0,-275.0,477.0,102119.0,-6.594000339508057,0,0
186.111999,-0.36003413796424866,-0.008025321178138256,0.03722549229860306,0.9321390986442566,0.18310546875,0.48828125,0.1220703125,0.0684814453125,-0.030517578125,-0.9674072265625,-33.0,-275.0,477.0,102119.0,-6.594000339508057,0,0
186.118998,-0.3600332736968994,-0.008014301769435406,0.037253912538290024,0.9321379065513611,-0.18310546875,0.06103515625,0.1220703125,0.0682373046875,-0.0289306640625,-0.9720458984375,-33.0,-275.0,477.0,102119.0,-6.594000339508057,0,0
186.126018,-0.3600320518016815,-0.008042721077799797,0.037264931946992874,0.9321388006210327,-0.30517578125,-0.244140625,0.0,0.068115234375,-0.0274658203125,-0.9781494140625,-33.0,-275.0,477.0,102119.0,-6.594000339508057,0,0
186.133001,-0.3600320518016815,-0.008042721077799797,0.037264931946992874,0.9321388006210327,-0.06103515625,0.244140625,0.0,0.0682373046875,-0.0308837890625,-0.96875,-33.0,-275.0,477.0,102119.0,-6.594000339508057,0,0
186.140019,-0.3600320518016815,-0.008042721077799797,0.037264931946992874,0.9321388006210327,-0.18310546875,-0.1220703125,-0.18310546875,0.0640869140625,-0.030517578125,-0.9752197265625,-33.0,-275.0,477.0,102119.0,-6.594000339508057,0,0
186.14605,-0.3600320518016815,-0.008042721077799797,0.037264931946992874,0.9321388006210327,-0.18310546875,-0.1220703125,-0.18310546875,0.0640869140625,-0.030517578125,-0.9752197265625,-33.0,-275.0,477.0,102119.0,-6.594000339508057,0,0
186.166997,-0.36003413796424866,-0.008025321178138256,0.03722549229860306,0.9321390986442566,-0.42724609375,0.06103515625,-0.42724609375,0.0626220703125,-0.0306396484375,-0.9736328125,-33.0,-275.0,477.0,102119.0,-6.594000339508057,0,0
186.173995,-0.36003413796424866,-0.008025321178138256,0.03722549229860306,0.9321390986442566,-0.06103515625,0.30517578125,0.06103515625,0.0648193359375,-0.03125,-0.9716796875,-33.0,-275.0,477.0,102119.0,-6.594000339508057,0,0
186.18102,-0.36003533005714417,-0.00799690093845129,0.03721447288990021,0.9321382641792297,-0.3662109375,-0.18310546875,-0.3662109375,0.064208984375,-0.0291748046875,-0.9761962890625,-33.0,-275.0,477.0,102119.0,-6.5960001945495605,0,0
186.188004,-0.3600344657897949,-0.00798588152974844,0.03724289312958717,0.9321370124816895,-0.18310546875,0.18310546875,-0.3662109375,0.065185546875,-0.0284423828125,-0.9749755859375,-33.0,-274.0,476.0,102119.0,-6.5960001945495605,0,0
186.195019,-0.36003533005714417,-0.00799690093845129,0.03721447288990021,0.9321382641792297,0.1220703125,0.18310546875,0.0,0.0643310546875,-0.0321044921875,-0.9677734375,-33.0,-274.0,476.0,102119.0,-6.5960001945495605,0,0
186.201994,-0.3600344657897949,-0.00798588152974844,0.03724289312958717,0.9321370124816895,-0.3662109375,0.0,-0.06103515625,0.0628662109375,-0.0272216796875,-0.975341796875,-33.0,-274.0,476.0,102119.0,-6.5960001945495605,0,0
186.208997,-0.36003533005714417,-0.00799690093845129,0.03721447288990021,0.9321382641792297,-0.244140625,-0.3662109375,0.244140625,0.0654296875,-0.0311279296875,-0.97314453125,-33.0,-274.0,476.0,102119.0,-6.5960001945495605,0,0
186.216018,-0.36003533005714417,-0.00799690093845129,0.03721447288990021,0.9321382641792297,-0.1220703125,0.6103515625,0.30517578125,0.0679931640625,-0.03173828125,-0.968505859375,-33.0,-274.0,476.0,102119.0,-6.5960001945495605,0,0
186.223001,-0.36003533005714417,-0.00799690093845129,0.03721447288990021,0.9321382641792297,-0.244140625,0.06103515625,-0.1220703125,0.065185546875,-0.0284423828125,-0.9783935546875,-33.0,-274.0,476.0,102119.0,-6.5960001945495605,0,0
186.230019,-0.36003533005714417,-0.00799690093845129,0.03721447288990021,0.9321382641792297,0.244140625,0.244140625,0.1220703125,0.0650634765625,-0.031494140625,-0.9722900390625,-33.0,-274.0,476.0,102119.0,-6.5960001945495605,0,0
186.23605,-0.36003533005714417,-0.00799690093845129,0.03721447288990021,0.9321382641792297,0.244140625,0.244140625,0.1220703125,0.0650634765625,-0.031494140625,-0.9722900390625,-33.0,-274.0,476.0,102119.0,-6.5960001945495605,0,0
186.243002,-0.36003533005714417,-0.00799690093845129,0.03721447288990021,0.9321382641792297,-0.18310546875,0.0,-0.48828125,0.06494140625,-0.02880859375,-0.9759521484375,-33.0,-274.0,476.0,102119.0,-6.5960001945495605,0,0
186.250018,-0.3600344657897949,-0.00798588152974844,0.03724289312958717,0.9321370124816895,-0.48828125,0.06103515625,-0.244140625,0.0657958984375,-0.0281982421875,-0.97900390625,-33.0,-274.0,476.0,102119.0,-6.5960001945495605,0,0
186.256996,-0.3600344657897949,-0.00798588152974844,0.03724289312958717,0.9321370124816895,0.0,-0.06103515625,-0.06103515625,0.0677490234375,-0.029296875,-0.96923828125,-33.0,-274.0,476.0,102119.0,-6.5960001945495605,0,0
186.263996,-0.3600344657897949,-0.00798588152974844,0.03724289312958717,0.9321370124816895,0.0,0.30517578125,-0.06103515625,0.066162109375,-0.031005859375,-0.966796875,-33.0,-274.0,476.0,102119.0,-6.5960001945495605,0,0
186.27102,-0.3600332736968994,-0.008014301769435406,0.037253912538290024,0.9321379065513611,-0.3662109375,-0.1220703125,0.18310546875,0.0672607421875,-0.0284423828125,-0.9776611328125,-33.0,-274.0,476.0,102119.0,-6.5960001945495605,0,0
186.278005,-0.3600332736968994,-0.008014301769435406,0.037253912538290024,0.9321379065513611,-0.1220703125,-0.18310546875,0.0,0.0672607421875,-0.030029296875,-0.9696044921875,-33.0,-274.0,476.0,102119.0,-6.5960001945495605,0,0
186.285019,-0.3600332736968994,-0.008014301769435406,0.037253912538290024,0.9321379065513611,0.0,0.6103515625,0.0,0.06884765625,-0.0299072265625,-0.969970703125,-33.0,-273.0,476.0,102119.0,-6.5960001945495605,0,0
186.291995,-0.3600320518016815,-0.008042721077799797,0.037264931946992874,0.9321388006210327,0.06103515625,0.06103515625,0.0,0.067138671875,-0.027587890625,-0.9761962890625,-33.0,-273.0,476.0,102119.0,-6.5960001945495605,0,0
186.298997,-0.3600320518016815,-0.008042721077799797,0.037264931946992874,0.9321388006210327,-0.3662109375,-0.1220703125,0.06103515625,0.0665283203125,-0.0302734375,-0.9708251953125,-33.0,-273.0,476.0,102119.0,-6.5960001945495605,0,0
186.306018,-0.3600320518016815,-0.008042721077799797,0.037264931946992874,0.9321388006210327,-0.06103515625,-0.18310546875,0.1220703125,0.0648193359375,-0.030517578125,-0.977783203125,-33.0,-273.0,476.0,102119.0,-6.5960001945495605,0,0
186.313001,-0.36003294587135315,-0.008053740486502647,0.03723651170730591,0.9321399927139282,-0.06103515625,0.3662109375,0.0,0.064208984375,-0.03125,-0.976806640625,-33.0,-273.0,476.0,102119.0,-6.5960001945495605,0,0
186.320018,-0.36003413796424866,-0.008025321178138256,0.03722549229860306,0.9321390986442566,0.1220703125,0.3662109375,-0.1220703125,0.0633544921875,-0.03125,-0.96826171875,-33.0,-273.0,476.0,102119.0,-6.5960001945495605,0,0
186.340018,-0.36003565788269043,-0.007957462221384048,0.03723187372088432,0.9321361780166626,-0.1220703125,0.30517578125,-0.30517578125,0.0611572265625,-0.031494140625,-0.9676513671875,-33.0,-273.0,476.0,102119.0,-6.5960001945495605,0,0
186.346996,-0.36003565788269043,-0.007957462221384048,0.03723187372088432,0.9321361780166626,-0.54931640625,0.0,-0.244140625,0.0640869140625,-0.0289306640625,-0.9742431640625,-33.0,-273.0,476.0,102119.0,-6.5960001945495605,0,0
186.353996,-0.36003655195236206,-0.007968481630086899,0.03720345348119736,0.9321373701095581,-0.42724609375,-0.30517578125,-0.42724609375,0.0638427734375,-0.0296630859375,-0.97607421875,-33.0,-273.0,476.0,102119.0,-6.5960001945495605,0,0
186.361021,-0.36003655195236206,-0.007968481630086899,0.03720345348119736,0.9321373701095581,-0.18310546875,0.30517578125,0.0,0.06689453125,-0.0302734375,-0.9674072265625,-33.0,-273.0,476.0,102119.0,-6.5960001945495605,0,0
186.368004,-0.36003655195236206,-0.007968481630086899,0.03720345348119736,0.9321373701095581,0.0,0.244140625,0.06103515625,0.065185546875,-0.03173828125,-0.9747314453125,-33.0,-273.0,476.0,102119.0,-6.5960001945495605,0,0
186.375018,-0.36003655195236206,-0.007968481630086899,0.03720345348119736,0.9321373701095581,-0.48828125,-0.1220703125,-0.06103515625,0.06591796875,-0.0267333984375,-0.976318359375,-33.0,-273.0,476.0,102119.0,-6.5960001945495605,0,0
186.381998,-0.36003533005714417,-0.00799690093845129,0.03721447288990021,0.9321382641792297,0.0,0.244140625,0.0,0.0662841796875,-0.03173828125,-0.9671630859375,-35.0,-273.0,476.0,102119.0,-6.5960001945495605,0,0
186.388998,-0.35989323258399963,-0.007990879006683826,0.03721008077263832,0.932193398475647,-0.1220703125,-0.3662109375,-0.06103515625,0.066650390625,-0.0301513671875,-0.9766845703125,-35.0,-273.0,476.0,102119.0,-6.5960001945495605,0,0
186.396018,-0.35989323258399963,-0.007990879006683826,0.03721008077263832,0.932193398475647,-0.06103515625,0.18310546875,-0.1220703125,0.0665283203125,-0.028076171875,-0.976318359375,-35.0,-273.0,476.0,102119.0,-6.5960001945495605,0,0
186.403002,-0.3598920404911041,-0.008019299246370792,0.03722110018134117,0.9321942329406738,-0.3662109375,0.0,0.18310546875,0.0679931640625,-0.031982421875,-0.9710693359375,-35.0,-273.0,476.0,102119.0,-6.5960001945495605,0,0
186.410019,-0.3598908483982086,-0.008047718554735184,0.03723211959004402,0.9321951270103455,-0.3662109375,-0.48828125,-0.30517578125,0.0679931640625,-0.0291748046875,-0.976318359375,-35.0,-273.0,476.0,102119.0,-6.5960001945495605,0,0
186.430018,-0.3598887622356415,-0.008065118454396725,0.03727155923843384,0.9321948289871216,-0.67138671875,-0.18310546875,-0.30517578125,0.0673828125,-0.0289306640625,-0.9765625,-35.0,-273.0,476.0,102119.0,-6.594000339508057,0,0
186.436996,-0.3598887622356415,-0.008065118454396725,0.03727155923843384,0.9321948289871216,-0.06103515625,0.1220703125,-0.3662109375,0.0654296875,-0.0286865234375,-0.9739990234375,-35.0,-273.0,476.0,102119.0,-6.594000339508057,0,0
186.443996,-0.3598887622356415,-0.008065118454396725,0.03727155923843384,0.9321948289871216,-0.244140625,-0.42724609375,-0.244140625,0.0654296875,-0.0291748046875,-0.9739990234375,-35.0,-273.0,476.0,102119.0,-6.594000339508057,0,0
186.45102,-0.3598887622356415,-0.008065118454396725,0.03727155923843384,0.9321948289871216,-0.30517578125,-0.244140625,-0.244140625,0.06396484375,-0.0303955078125,-0.96923828125,-35.0,-273.0,476.0,102119.0,-6.594000339508057,0,0
186.458004,-0.3598887622356415,-0.008065118454396725,0.03727155923843384,0.9321948289871216,-0.06103515625,0.3662109375,-0.18310546875,0.0670166015625,-0.03173828125,-0.9696044921875,-35.0,-273.0,476.0,102119.0,-6.594000339508057,0,0
186.465018,-0.359889954328537,-0.008036699146032333,0.03726053982973099,0.93219393491745,-0.48828125,-0.3662109375,-0.18310546875,0.064453125,-0.0289306640625,-0.9759521484375,-35.0,-273.0,476.0,102119.0,-6.594000339508057,0,0
186.471994,-0.359889954328537,-0.008036699146032333,0.03726053982973099,0.93219393491745,-0.42724609375,-0.18310546875,0.06103515625,0.062255859375,-0.0294189453125,-0.9730224609375,-35.0,-273.0,476.0,102119.0,-6.594000339508057,0,0
186.478997,-0.359889954328537,-0.008036699146032333,0.03726053982973099,0.93219393491745,-0.06103515625,0.244140625,-0.06103515625,0.0614013671875,-0.029052734375,-0.96875,-35.0,-273.0,476.0,102119.0,-6.594000339508057,0,0
186.486018,-0.3598911762237549,-0.008008279837667942,0.03724952042102814,0.9321930408477783,-0.48828125,-0.18310546875,-0.18310546875,0.0615234375,-0.029296875,-0.978271484375,-35.0,-273.0,476.0,102119.0,-6.594000339508057,0,0
186.493001,-0.3598911762237549,-0.008008279837667942,0.03724952042102814,0.9321930408477783,-0.42724609375,-0.3662109375,-0.1220703125,0.0614013671875,-0.030517578125,-0.9742431640625,-35.0,-273.0,476.0,102119.0,-6.594000339508057,0,0
186.500019,-0.3598923683166504,-0.007979859597980976,0.03723850101232529,0.9321921467781067,0.244140625,0.6103515625,0.1220703125,0.064208984375,-0.0316162109375,-0.9669189453125,-35.0,-273.0,476.0,102119.0,-6.594000339508057,0,0
186.506995,-0.3598923683166504,-0.007979859597980976,0.03723850101232529,0.9321921467781067,0.18310546875,0.1220703125,-0.30517578125,0.0631103515625,-0.0306396484375,-0.973388671875,-35.0,-273.0,476.0,102119.0,-6.594000339508057,0,0
186.513996,-0.35989323258399963,-0.007990879006683826,0.03721008077263832,0.932193398475647,-0.30517578125,-0.1220703125,-0.1220703125,0.0643310546875,-0.03125,-0.974609375,-35.0,-273.0,476.0,102119.0,-6.594000339508057,0,0
186.520029,-0.35989323258399963,-0.007990879006683826,0.03721008077263832,0.932193398475647,-0.30517578125,-0.1220703125,-0.1220703125,0.0643310546875,-0.03125,-0.974609375,-35.0,-273.0,476.0,102119.0,-6.594000339508057,0,0
186.526996,-0.3598920404911041,-0.008019299246370792,0.03722110018134117,0.9321942329406738,0.06103515625,0.42724609375,-0.1220703125,0.0711669921875,-0.031005859375,-0.9681396484375,-35.0,-273.0,476.0,102119.0,-6.594000339508057,0,0
186.533995,-0.3598920404911041,-0.008019299246370792,0.03722110018134117,0.9321942329406738,-0.732421875,0.0,-0.244140625,0.0677490234375,-0.029541015625,-0.975830078125,-35.0,-273.0,476.0,102119.0,-6.593000411987305,0,0
186.54102,-0.3598920404911041,-0.008019299246370792,0.03722110018134117,0.9321942329406738,-0.06103515625,0.1220703125,0.1220703125,0.068359375,-0.0284423828125,-0.974853515625,-35.0,-273.0,476.0,102119.0,-6.593000411987305,0,0
186.548004,-0.3598908483982086,-0.008047718554735184,0.03723211959004402,0.9321951270103455,-0.06103515625,0.3662109375,0.06103515625,0.0704345703125,-0.03076171875,-0.9696044921875,-35.0,-273.0,476.0,102119.0,-6.593000411987305,0,0
186.555019,-0.3598896265029907,-0.008076137863099575,0.03724313899874687,0.9321960210800171,-0.18310546875,-0.244140625,0.0,0.0684814453125,-0.031005859375,-0.97802734375,-35.0,-273.0,476.0,102119.0,-6.593000411987305,0,0
186.561994,-0.3598896265029907,-0.008076137863099575,0.03724313899874687,0.9321960210800171,0.0,0.06103515625,0.06103515625,0.0665283203125,-0.031494140625,-0.97314453125,-35.0,-273.0,476.0,102119.0,-6.593000411987305,0,0
186.568997,-0.3598896265029907,-0.008076137863099575,0.03724313899874687,0.9321960210800171,0.1220703125,0.30517578125,0.1220703125,0.068603515625,-0.0303955078125,-0.9654541015625,-35.0,-273.0,476.0,102119.0,-6.593000411987305,0,0
186.576018,-0.3598884344100952,-0.008104558102786541,0.03725415840744972,0.9321969151496887,-0.30517578125,0.06103515625,-0.1220703125,0.0670166015625,-0.0296630859375,-0.971435546875,-35.0,-273.0,476.0,102119.0,-6.593000411987305,0,0
186.583001,-0.3598896265029907,-0.008076137863099575,0.03724313899874687,0.9321960210800171,0.1220703125,0.1220703125,0.0,0.0638427734375,-0.0299072265625,-0.9713134765625,-36.0,-274.0,476.0,102119.0,-6.593000411987305,0,0
186.603996,-0.3598043620586395,-0.008072524331510067,0.03724050521850586,0.9322290420532227,0.1220703125,0.48828125,0.30517578125,0.0633544921875,-0.030517578125,-0.9658203125,-36.0,-274.0,476.0,102119.0,-6.593000411987305,0,0
186.610029,-0.3598043620586395,-0.008072524331510067,0.03724050521850586,0.9322290420532227,0.1220703125,0.48828125,0.30517578125,0.0633544921875,-0.030517578125,-0.9658203125,-36.0,-274.0,476.0,102119.0,-6.593000411987305,0,0
186.616996,-0.3598046898841858,-0.008033085614442825,0.037257906049489975,0.9322269558906555,-0.3662109375,-0.42724609375,-0.30517578125,0.06298828125,-0.02880859375,-0.9739990234375,-36.0,-274.0,476.0,102119.0,-6.593000411987305,0,0
186.623996,-0.3598059117794037,-0.008004666306078434,0.037246886640787125,0.9322260618209839,0.1220703125,0.48828125,-0.30517578125,0.066162109375,-0.0302734375,-0.968505859375,-36.0,-274.0,476.0,102119.0,-6.593000411987305,0,0
186.63102,-0.3598059117794037,-0.008004666306078434,0.037246886640787125,0.9322260618209839,-0.18310546875,0.0,0.0,0.0638427734375,-0.0284423828125,-0.968505859375,-36.0,-274.0,476.0,102119.0,-6.594000339508057,0,0
186.638004,-0.3598059117794037,-0.008004666306078434,0.037246886640787125,0.9322260618209839,-0.18310546875,-0.18310546875,0.06103515625,0.0657958984375,-0.0306396484375,-0.9754638671875,-36.0,-274.0,476.0,102119.0,-6.594000339508057,0,0
186.645019,-0.3598059117794037,-0.008004666306078434,0.037246886640787125,0.9322260618209839,0.3662109375,0.18310546875,0.18310546875,0.06591796875,-0.030517578125,-0.96533203125,-36.0,-274.0,476.0,102119.0,-6.594000339508057,0,0
186.651999,-0.35980501770973206,-0.007993646897375584,0.03727530688047409,0.9322248697280884,0.42724609375,0.18310546875,-0.1220703125,0.065185546875,-0.0284423828125,-0.968505859375,-36.0,-274.0,476.0,102119.0,-6.594000339508057,0,0
186.658998,-0.35980501770973206,-0.007993646897375584,0.03727530688047409,0.9322248697280884,-0.244140625,-0.06103515625,-0.06103515625,0.0675048828125,-0.029541015625,-0.978271484375,-36.0,-274.0,476.0,102119.0,-6.594000339508057,0,0
186.666018,-0.35980501770973206,-0.007993646897375584,0.03727530688047409,0.9322248697280884,-0.3662109375,-0.244140625,-0.1220703125,0.0673828125,-0.0313720703125,-0.9755859375,-36.0,-274.0,476.0,102119.0,-6.594000339508057,0,0
186.686996,-0.3598034977912903,-0.008061504922807217,0.037268925458192825,0.9322278499603271,-0.3662109375,-0.1220703125,-0.1220703125,0.0675048828125,-0.0296630859375,-0.97509765625,-35.0,-273.0,474.0,102119.0,-6.594000339508057,0,0
186.694,-0.3598034977912903,-0.008061504922807217,0.037268925458192825,0.9322278499603271,-0.06103515625,0.3662109375,0.1220703125,0.06884765625,-0.031005859375,-0.9669189453125,-35.0,-273.0,474.0,102119.0,-6.594000339508057,0,0
186.701021,-0.3598023056983948,-0.008089925162494183,0.037279944866895676,0.932228684425354,-0.30517578125,-0.06103515625,-0.1220703125,0.0689697265625,-0.0301513671875,-0.9697265625,-35.0,-273.0,474.0,102119.0,-6.594000339508057,0,0
186.707057,-0.3598023056983948,-0.008089925162494183,0.037279944866895676,0.932228684425354,-0.30517578125,-0.06103515625,-0.1220703125,0.0689697265625,-0.0301513671875,-0.9697265625,-35.0,-273.0,474.0,102119.0,-6.594000339508057,0,0
186.713997,-0.3598023056983948,-0.008089925162494183,0.037279944866895676,0.932228684425354,0.0,0.1220703125,-0.18310546875,0.0654296875,-0.031005859375,-0.9666748046875,-35.0,-273.0,474.0,102119.0,-6.594000339508057,0,0
186.721021,-0.3598023056983948,-0.008089925162494183,0.037279944866895676,0.932228684425354,-0.244140625,-0.30517578125,-0.06103515625,0.064697265625,-0.029296875,-0.9725341796875,-35.0,-273.0,474.0,102119.0,-6.594000339508057,0,0
186.728004,-0.3598023056983948,-0.008089925162494183,0.037279944866895676,0.932228684425354,-0.42724609375,-0.1220703125,-0.18310546875,0.06396484375,-0.0286865234375,-0.9771728515625,-35.0,-273.0,474.0,102119.0,-6.594000339508057,0,0
186.735018,-0.3598023056983948,-0.008089925162494183,0.037279944866895676,0.932228684425354,-0.30517578125,0.0,-0.1220703125,0.06689453125,-0.0302734375,-0.969482421875,-35.0,-273.0,474.0,102119.0,-6.594000339508057,0,0
186.741994,-0.3598034977912903,-0.008061504922807217,0.037268925458192825,0.9322278499603271,-0.3662109375,-0.18310546875,-0.1220703125,0.0621337890625,-0.0289306640625,-0.974609375,-35.0,-273.0,474.0,102119.0,-6.594000339508057,0,0
186.748997,-0.3598046898841858,-0.008033085614442825,0.037257906049489975,0.9322269558906555,-0.244140625,-0.18310546875,-0.18310546875,0.05908203125,-0.0308837890625,-0.974609375,-35.0,-273.0,474.0,102119.0,-6.594000339508057,0,0
186.756018,-0.3598059117794037,-0.008004666306078434,0.037246886640787125,0.9322260618209839,0.06103515625,0.42724609375,-0.42724609375,0.061767578125,-0.0299072265625,-0.97265625,-35.0,-273.0,474.0,102119.0,-6.594000339508057,0,0
186.763001,-0.3598059117794037,-0.008004666306078434,0.037246886640787125,0.9322260618209839,-0.244140625,-0.30517578125,0.1220703125,0.0618896484375,-0.02880859375,-0.97607421875,-35.0,-273.0,474.0,102119.0,-6.594000339508057,0,0
186.770019,-0.3598071038722992,-0.007976246066391468,0.037235867232084274,0.9322251677513123,0.06103515625,-0.06103515625,-0.06103515625,0.0618896484375,-0.0274658203125,-0.97998046875,-35.0,-273.0,474.0,102119.0,-6.594000339508057,0,0
186.776995,-0.3598071038722992,-0.007976246066391468,0.037235867232084274,0.9322251677513123,0.18310546875,0.48828125,0.1220703125,0.06396484375,-0.0303955078125,-0.968994140625,-35.0,-273.0,474.0,102119.0,-6.594000339508057,0,0
186.783996,-0.3598071038722992,-0.007976246066391468,0.037235867232084274,0.9322251677513123,0.0,-0.06103515625,-0.06103515625,0.0616455078125,-0.027587890625,-0.976318359375,-36.0,-273.0,474.0,102119.0,-6.594000339508057,0,0
186.79102,-0.35974937677383423,-0.007962818257510662,0.037262529134750366,0.9322460293769836,-0.30517578125,0.18310546875,0.06103515625,0.06689453125,-0.0311279296875,-0.9642333984375,-36.0,-273.0,474.0,102119.0,-6.594000339508057,0,0
186.797052,-0.35974937677383423,-0.007962818257510662,0.037262529134750366,0.9322460293769836,-0.30517578125,0.18310546875,0.06103515625,0.06689453125,-0.0311279296875,-0.9642333984375,-36.0,-273.0,474.0,102119.0,-6.594000339508057,0,0
186.803996,-0.35974937677383423,-0.007962818257510662,0.037262529134750366,0.9322460293769836,-0.18310546875,0.244140625,-0.244140625,0.0640869140625,-0.0291748046875,-0.9774169921875,-36.0,-273.0,474.0,102119.0,-6.594000339508057,0,0
186.81102,-0.3597481846809387,-0.007991238497197628,0.03727354854345322,0.9322469234466553,-0.06103515625,-0.06103515625,-0.06103515625,0.0684814453125,-0.0279541015625,-0.9779052734375,-36.0,-273.0,474.0,102119.0,-6.594000339508057,0,0
186.818004,-0.3597481846809387,-0.007991238497197628,0.03727354854345322,0.9322469234466553,0.18310546875,0.48828125,0.06103515625,0.0689697265625,-0.0291748046875,-0.9666748046875,-36.0,-273.0,474.0,102119.0,-6.594000339508057,0,0
186.825018,-0.3597469925880432,-0.00801965780556202,0.03728456795215607,0.9322478175163269,-0.3662109375,0.0,-0.18310546875,0.06787109375,-0.0283203125,-0.973876953125,-36.0,-273.0,474.0,102119.0,-6.594000339508057,0,0
186.831994,-0.3597457706928253,-0.00804807711392641,0.03729558736085892,0.9322486519813538,-0.42724609375,-0.244140625,-0.6103515625,0.0675048828125,-0.0291748046875,-0.976806640625,-36.0,-273.0,474.0,102119.0,-6.595000267028809,0,0
186.838997,-0.3597457706928253,-0.00804807711392641,0.03729558736085892,0.9322486519813538,-0.06103515625,-0.06103515625,-0.244140625,0.06787109375,-0.032470703125,-0.966796875,-36.0,-273.0,474.0,102119.0,-6.595000267028809,0,0
186.846018,-0.3597457706928253,-0.00804807711392641,0.03729558736085892,0.9322486519813538,-0.3662109375,-0.42724609375,-0.30517578125,0.064697265625,-0.0322265625,-0.9747314453125,-36.0,-273.0,474.0,102119.0,-6.595000267028809,0,0
4.0204673333509437e-29,1.6964179464950201e-38,8.394462827583655e-31,-3.769840229179808e+29,-9.596391252182434e+18,-1.0355791185145622e+34,4.085569838895036e-33,-1.3772560462748603e+30,3.956763236585205e-38,6.166429272913302e-36,2.106073718966782e-33,5.047484063779925e-36,-1.0352961873185835e+35,-4.030066013408039e+34,8.961901058497741e-36,1.5747557090564807e-31,48187,19455
186.866995,-0.3597457706928253,-0.00804807711392641,0.03729558736085892,0.9322486519813538,-0.42724609375,-0.30517578125,-0.18310546875,0.063720703125,-0.0325927734375,-0.9766845703125,-36.0,-273.0,474.0,102119.0,-6.595000267028809,0,0
186.873996,-0.3597469925880432,-0.00801965780556202,0.03728456795215607,0.9322478175163269,-0.1220703125,-0.1220703125,-0.18310546875,0.0640869140625,-0.031494140625,-0.975341796875,-36.0,-273.0,474.0,102119.0,-6.595000267028809,0,0
186.881021,-0.3598046898841858,-0.008033085614442825,0.037257906049489975,0.9322269558906555,-0.244140625,-0.244140625,-0.18310546875,0.062744140625,-0.029296875,-0.9674072265625,-34.0,-275.0,473.0,102119.0,-6.595000267028809,0,0
186.888,-0.35980382561683655,-0.008022066205739975,0.03728632628917694,0.93222576379776,-0.42724609375,-0.3662109375,0.06103515625,0.063232421875,-0.0296630859375,-0.97607421875,-34.0,-275.0,473.0,102119.0,-6.595000267028809,0,0
186.894031,-0.35980382561683655,-0.008022066205739975,0.03728632628917694,0.93222576379776,-0.42724609375,-0.3662109375,0.06103515625,0.063232421875,-0.0296630859375,-0.97607421875,-34.0,-275.0,473.0,102119.0,-6.595000267028809,0,0
186.901021,-0.35980382561683655,-0.008022066205739975,0.03728632628917694,0.93222576379776,0.0,0.42724609375,0.0,0.065185546875,-0.0291748046875,-0.967041015625,-34.0,-275.0,473.0,102119.0,-6.595000267028809,0,0
186.908004,-0.35980501770973206,-0.007993646897375584,0.03727530688047409,0.9322248697280884,-0.48828125,0.0,-0.18310546875,0.0643310546875,-0.02734375,-0.97802734375,-34.0,-275.0,473.0,102119.0,-6.595000267028809,0,0
186.915019,-0.35980501770973206,-0.007993646897375584,0.03727530688047409,0.9322248697280884,0.06103515625,0.3662109375,0.1220703125,0.064453125,-0.0302734375,-0.9691162109375,-34.0,-275.0,473.0,102119.0,-6.595000267028809,0,0
186.921994,-0.35980501770973206,-0.007993646897375584,0.03727530688047409,0.9322248697280884,0.244140625,0.3662109375,-0.1220703125,0.06591796875,-0.031005859375,-0.96728515625,-34.0,-275.0,473.0,102119.0,-6.595000267028809,0,0
186.928997,-0.35980501770973206,-0.007993646897375584,0.03727530688047409,0.9322248697280884,-0.244140625,-0.1220703125,-0.1220703125,0.06689453125,-0.0313720703125,-0.977294921875,-34.0,-275.0,473.0,102119.0,-6.595000267028809,0,0
186.950018,-0.35980260372161865,-0.008050485514104366,0.03729734569787979,0.9322265982627869,-0.1220703125,0.1220703125,-0.06103515625,0.0682373046875,-0.027587890625,-0.975830078125,-34.0,-275.0,473.0,102119.0,-6.595000267028809,0,0
186.956997,-0.35980141162872314,-0.008078905753791332,0.03730836510658264,0.9322274923324585,-0.3662109375,-0.244140625,-0.18310546875,0.067626953125,-0.027099609375,-0.9783935546875,-34.0,-275.0,473.0,102119.0,-6.595000267028809,0,0
186.964,-0.35980141162872314,-0.008078905753791332,0.03730836510658264,0.9322274923324585,-0.30517578125,0.0,-0.1220703125,0.06787109375,-0.0316162109375,-0.9698486328125,-34.0,-275.0,473.0,102119.0,-6.595000267028809,0,0
186.971021,-0.35980141162872314,-0.008078905753791332,0.03730836510658264,0.9322274923324585,-0.42724609375,-0.1220703125,0.06103515625,0.0665283203125,-0.0283203125,-0.9747314453125,-34.0,-275.0,473.0,102119.0,-6.595000267028809,0,0
186.977999,-0.35980021953582764,-0.008107325062155724,0.03731938451528549,0.9322283864021301,-0.1220703125,-0.30517578125,0.1220703125,0.065673828125,-0.0313720703125,-0.977783203125,-34.0,-275.0,473.0,102119.0,-6.595000267028809,0,0
186.984032,-0.35980021953582764,-0.008107325062155724,0.03731938451528549,0.9322283864021301,-0.1220703125,-0.30517578125,0.1220703125,0.065673828125,-0.0313720703125,-0.977783203125,-34.0,-275.0,473.0,102119.0,-6.595000267028809,0,0
186.99102,-0.35988545417785645,-0.008110938593745232,0.037322018295526505,0.9321953654289246,-0.06103515625,0.3662109375,-0.18310546875,0.0660400390625,-0.029296875,-0.9688720703125,-34.0,-274.0,473.0,102119.0,-6.595000267028809,0,0
186.998004,-0.35988667607307434,-0.00808251928538084,0.037310998886823654,0.9321944713592529,-0.244140625,0.06103515625,0.0,0.0653076171875,-0.0299072265625,-0.9736328125,-34.0,-274.0,473.0,102119.0,-6.595000267028809,0,0
187.005019,-0.3598875403404236,-0.00809353869408369,0.03728257864713669,0.9321956634521484,-0.30517578125,-0.3662109375,-0.1220703125,0.06396484375,-0.0306396484375,-0.97021484375,-34.0,-274.0,473.0,102119.0,-6.595000267028809,0,0
187.011998,-0.3598875403404236,-0.00809353869408369,0.03728257864713669,0.9321956634521484,-0.30517578125,-0.18310546875,-0.06103515625,0.06298828125,-0.029541015625,-0.977294921875,-34.0,-274.0,473.0,102119.0,-6.595000267028809,0,0
187.018998,-0.3598887622356415,-0.008065118454396725,0.03727155923843384,0.9321948289871216,-0.244140625,0.18310546875,-0.06103515625,0.0635986328125,-0.0313720703125,-0.971435546875,-34.0,-274.0,473.0,102119.0,-6.595000267028809,0,0
187.026018,-0.3598887622356415,-0.008065118454396725,0.03727155923843384,0.9321948289871216,0.06103515625,0.3662109375,-0.18310546875,0.0645751953125,-0.0333251953125,-0.96630859375,-34.0,-274.0,473.0,102119.0,-6.595000267028809,0,0
187.033002,-0.3598887622356415,-0.008065118454396725,0.03727155923843384,0.9321948289871216,-0.3662109375,0.0,0.06103515625,0.0635986328125,-0.028076171875,-0.9755859375,-34.0,-274.0,473.0,102119.0,-6.595000267028809,0,0
187.040018,-0.359889954328537,-0.008036699146032333,0.03726053982973099,0.93219393491745,0.06103515625,0.30517578125,0.0,0.064697265625,-0.0318603515625,-0.9710693359375,-34.0,-274.0,473.0,102119.0,-6.595000267028809,0,0
187.046995,-0.3598896265029907,-0.008076137863099575,0.03724313899874687,0.9321960210800171,0.06103515625,0.30517578125,-0.06103515625,0.0677490234375,-0.0308837890625,-0.96630859375,-34.0,-274.0,473.0,102119.0,-6.595000267028809,0,0
187.053996,-0.3598887622356415,-0.008065118454396725,0.03727155923843384,0.9321948289871216,0.06103515625,0.18310546875,-0.18310546875,0.06591796875,-0.0299072265625,-0.9757080078125,-34.0,-274.0,473.0,102119.0,-6.595000267028809,0,0
187.06102,-0.3598887622356415,-0.008065118454396725,0.03727155923843384,0.9321948289871216,-0.18310546875,-0.244140625,-0.06103515625,0.06787109375,-0.0296630859375,-0.9771728515625,-34.0,-274.0,473.0,102119.0,-6.595000267028809,0,0
187.067999,-0.3598884344100952,-0.008104558102786541,0.03725415840744972,0.9321969151496887,-0.1220703125,0.244140625,0.0,0.067138671875,-0.0328369140625,-0.96826171875,-34.0,-274.0,473.0,102119.0,-6.595000267028809,0,0
187.074031,-0.3598884344100952,-0.008104558102786541,0.03725415840744972,0.9321969151496887,-0.1220703125,0.244140625,0.0,0.067138671875,-0.0328369140625,-0.96826171875,-34.0,-274.0,473.0,102119.0,-6.595000267028809,0,0
187.08102,-0.35994526743888855,-0.008106966502964497,0.037255916744470596,0.9321748614311218,0.0,0.6103515625,-0.1220703125,0.0677490234375,-0.0294189453125,-0.966796875,-33.0,-274.0,473.0,102119.0,-6.595000267028809,0,0
