Time stamp(sec),quaternion_0,quaternion_1,quaternion_2,quaternion_3,roll_angular_rate,pitch_angular_rate,yaw_angular_rate,acc_X,acc_Y,acc_Z,mag_X,mag_Y,mag_Z,pressure,altitude
899.5609969990082,0.62921142578125,-0.497894287109375,0.100372314453125,-0.588287353515625,0.06103515625,0.3662109375,-0.1220703125,0.4588623046875,-0.7452392578125,0.4822998046875,-246.0,216.0,-98.0,102378.0,-8.735000610351562,0,0
899.5659969990082,0.62921142578125,-0.497894287109375,0.100372314453125,-0.588287353515625,-0.3662109375,-0.06103515625,-0.18310546875,0.459228515625,-0.7427978515625,0.482666015625,-246.0,216.0,-98.0,102378.0,-8.735000610351562,0,0
899.5709939990082,0.62921142578125,-0.497894287109375,0.100372314453125,-0.588287353515625,-0.06103515625,0.06103515625,-0.06103515625,0.458984375,-0.7437744140625,0.48291015625,-246.0,216.0,-98.0,102378.0,-8.735000610351562,0,0
899.5759939990082,0.629180908203125,-0.497894287109375,0.100372314453125,-0.588287353515625,-0.244140625,-0.06103515625,-0.06103515625,0.460205078125,-0.743408203125,0.483154296875,-246.0,216.0,-98.0,102378.0,-8.735000610351562,0,0
899.5809939990082,0.629180908203125,-0.497894287109375,0.100372314453125,-0.588287353515625,0.0,0.1220703125,-0.06103515625,0.4598388671875,-0.7435302734375,0.483642578125,-246.0,216.0,-98.0,102378.0,-8.735000610351562,0,0
899.5859959990082,0.629180908203125,-0.497894287109375,0.100372314453125,-0.588287353515625,0.30517578125,0.06103515625,0.06103515625,0.458740234375,-0.7442626953125,0.48193359375,-246.0,216.0,-98.0,102378.0,-8.735000610351562,0,0
899.5900279990083,0.629180908203125,-0.497894287109375,0.100372314453125,-0.588287353515625,0.30517578125,0.06103515625,0.06103515625,0.458740234375,-0.7442626953125,0.48193359375,-246.0,216.0,-98.0,102378.0,-8.735000610351562,0,0
899.5949959990082,0.629180908203125,-0.497894287109375,0.100372314453125,-0.588287353515625,-0.06103515625,0.244140625,-0.1220703125,0.4598388671875,-0.7425537109375,0.4827880859375,-245.0,216.0,-98.0,102378.0,-8.735000610351562,0,0
899.5999929990082,0.629180908203125,-0.497894287109375,0.100372314453125,-0.588287353515625,-0.18310546875,0.244140625,-0.1220703125,0.4600830078125,-0.7440185546875,0.4820556640625,-245.0,216.0,-98.0,102378.0,-8.735000610351562,0,0
899.6049929990082,0.629180908203125,-0.497894287109375,0.100372314453125,-0.588287353515625,-0.18310546875,0.0,-0.1220703125,0.458251953125,-0.7421875,0.483154296875,-245.0,216.0,-98.0,102378.0,-8.735000610351562,0,0
899.6099939990082,0.629180908203125,-0.497894287109375,0.100372314453125,-0.588287353515625,0.18310546875,0.0,0.06103515625,0.4569091796875,-0.7418212890625,0.48388671875,-245.0,216.0,-98.0,102378.0,-8.735000610351562,0,0
899.6249929990082,0.629180908203125,-0.497894287109375,0.10040283203125,-0.588287353515625,0.3662109375,0.18310546875,0.06103515625,0.4576416015625,-0.744873046875,0.4815673828125,-245.0,216.0,-98.0,102378.0,-8.735000610351562,0,0
899.6299929990082,0.629180908203125,-0.4979248046875,0.10040283203125,-0.588287353515625,0.42724609375,0.18310546875,-0.06103515625,0.4571533203125,-0.7440185546875,0.4822998046875,-245.0,216.0,-98.0,102378.0,-8.735000610351562,0,0
899.6349939990082,0.629180908203125,-0.4979248046875,0.10040283203125,-0.588287353515625,-0.1220703125,0.06103515625,-0.06103515625,0.4571533203125,-0.7442626953125,0.4827880859375,-245.0,216.0,-98.0,102378.0,-8.735000610351562,0,0
899.6399959990082,0.629180908203125,-0.4979248046875,0.10040283203125,-0.588287353515625,0.06103515625,0.1220703125,0.06103515625,0.4573974609375,-0.7451171875,0.482421875,-245.0,216.0,-98.0,102378.0,-8.735000610351562,0,0
899.6449929990082,0.629180908203125,-0.4979248046875,0.10040283203125,-0.588287353515625,0.1220703125,0.1220703125,-0.1220703125,0.459716796875,-0.74365234375,0.4837646484375,-245.0,216.0,-98.0,102378.0,-8.735000610351562,0,0
899.6499929990082,0.629180908203125,-0.4979248046875,0.10040283203125,-0.588287353515625,0.0,-0.1220703125,0.0,0.4583740234375,-0.7430419921875,0.481689453125,-245.0,216.0,-98.0,102378.0,-8.735000610351562,0,0
899.6549939990082,0.629180908203125,-0.4979248046875,0.10040283203125,-0.588287353515625,-0.18310546875,0.1220703125,-0.1220703125,0.4600830078125,-0.742431640625,0.4853515625,-245.0,216.0,-98.0,102378.0,-8.735000610351562,0,0
899.6590229990081,0.629180908203125,-0.4979248046875,0.10040283203125,-0.588287353515625,-0.18310546875,0.1220703125,-0.1220703125,0.4600830078125,-0.742431640625,0.4853515625,-245.0,216.0,-98.0,102378.0,-8.735000610351562,0,0
899.6639939990081,0.629180908203125,-0.4979248046875,0.10040283203125,-0.588287353515625,0.06103515625,0.0,-0.244140625,0.4588623046875,-0.744873046875,0.4805908203125,-245.0,216.0,-98.0,102378.0,-8.735000610351562,0,0
899.6689949990081,0.629180908203125,-0.4979248046875,0.10040283203125,-0.588287353515625,-0.18310546875,-0.1220703125,0.1220703125,0.4561767578125,-0.74267578125,0.4820556640625,-245.0,216.0,-98.0,102378.0,-8.735000610351562,0,0
899.6739919990081,0.629180908203125,-0.4979248046875,0.10040283203125,-0.588287353515625,0.1220703125,0.06103515625,-0.1220703125,0.4620361328125,-0.7431640625,0.4830322265625,-245.0,216.0,-98.0,102378.0,-8.735000610351562,0,0
899.6789929990081,0.629180908203125,-0.4979248046875,0.10040283203125,-0.5882568359375,-0.18310546875,-0.06103515625,-0.30517578125,0.456298828125,-0.744384765625,0.4815673828125,-245.0,216.0,-98.0,102378.0,-8.735000610351562,0,0
899.6839929990081,0.629180908203125,-0.4979248046875,0.10040283203125,-0.5882568359375,0.06103515625,0.1220703125,0.0,0.4580078125,-0.74267578125,0.4840087890625,-245.0,216.0,-98.0,102378.0,-8.735000610351562,0,0
899.6889939990081,0.629180908203125,-0.4979248046875,0.10040283203125,-0.5882568359375,0.06103515625,0.1220703125,0.0,0.4580078125,-0.74267578125,0.4840087890625,-245.0,215.0,-99.0,102378.0,-8.735000610351562,0,0
899.693995999008,0.629180908203125,-0.4979248046875,0.10040283203125,-0.5882568359375,0.18310546875,0.18310546875,-0.1220703125,0.4608154296875,-0.74462890625,0.48095703125,-245.0,215.0,-99.0,102378.0,-8.735000610351562,0,0
899.698992999008,0.629180908203125,-0.4979248046875,0.10040283203125,-0.5882568359375,-0.18310546875,-0.06103515625,0.06103515625,0.4586181640625,-0.7421875,0.482177734375,-245.0,215.0,-99.0,102378.0,-8.735000610351562,0,0
899.703992999008,0.629180908203125,-0.4979248046875,0.10040283203125,-0.5882568359375,0.0,0.0,-0.244140625,0.45654296875,-0.743896484375,0.4835205078125,-245.0,215.0,-99.0,102378.0,-8.735000610351562,0,0
899.708993999008,0.629180908203125,-0.4979248046875,0.10040283203125,-0.5882568359375,-0.48828125,0.1220703125,0.0,0.45947265625,-0.7447509765625,0.4822998046875,-245.0,215.0,-99.0,102378.0,-8.735000610351562,0,0
899.713994999008,0.629180908203125,-0.4979248046875,0.10040283203125,-0.5882568359375,-0.06103515625,-0.1220703125,0.18310546875,0.459716796875,-0.74462890625,0.4842529296875,-245.0,215.0,-99.0,102378.0,-8.735000610351562,0,0
899.718995999008,0.629180908203125,-0.497955322265625,0.10040283203125,-0.5882568359375,0.06103515625,0.244140625,-0.18310546875,0.4578857421875,-0.743896484375,0.4796142578125,-245.0,215.0,-99.0,102378.0,-8.735000610351562,0,0
899.723021999008,0.629180908203125,-0.497955322265625,0.10040283203125,-0.5882568359375,0.06103515625,0.244140625,-0.18310546875,0.4578857421875,-0.743896484375,0.4796142578125,-245.0,215.0,-99.0,102378.0,-8.735000610351562,0,0
899.7279959990079,0.629180908203125,-0.497955322265625,0.10040283203125,-0.5882568359375,0.0,0.30517578125,0.1220703125,0.4583740234375,-0.7440185546875,0.4832763671875,-245.0,215.0,-99.0,102378.0,-8.735000610351562,0,0
899.7329939990079,0.629180908203125,-0.497955322265625,0.10040283203125,-0.5882568359375,0.244140625,0.1220703125,-0.1220703125,0.4578857421875,-0.7425537109375,0.481689453125,-245.0,215.0,-99.0,102378.0,-8.735000610351562,0,0
899.7479959990079,0.629180908203125,-0.497955322265625,0.10040283203125,-0.5882568359375,0.0,0.1220703125,0.06103515625,0.4600830078125,-0.744140625,0.482666015625,-245.0,215.0,-99.0,102378.0,-8.736000061035156,0,0
899.7529939990079,0.629180908203125,-0.497955322265625,0.10040283203125,-0.5882568359375,0.1220703125,0.18310546875,0.0,0.45849609375,-0.7451171875,0.482421875,-245.0,215.0,-99.0,102378.0,-8.736000061035156,0,0
899.7579939990079,0.629180908203125,-0.497955322265625,0.10040283203125,-0.5882568359375,-0.244140625,0.1220703125,-0.06103515625,0.4586181640625,-0.7432861328125,0.48291015625,-245.0,215.0,-99.0,102378.0,-8.736000061035156,0,0
899.7629949990079,0.629180908203125,-0.497955322265625,0.10040283203125,-0.5882568359375,0.1220703125,0.1220703125,0.0,0.4583740234375,-0.744140625,0.4833984375,-245.0,215.0,-99.0,102378.0,-8.736000061035156,0,0
899.7679969990079,0.629180908203125,-0.497955322265625,0.10040283203125,-0.5882568359375,-0.244140625,0.0,0.1220703125,0.45849609375,-0.7445068359375,0.4840087890625,-245.0,215.0,-99.0,102378.0,-8.736000061035156,0,0
899.7729969990079,0.629180908203125,-0.497955322265625,0.10040283203125,-0.5882568359375,-0.18310546875,-0.18310546875,-0.1220703125,0.4578857421875,-0.743896484375,0.4837646484375,-245.0,215.0,-99.0,102378.0,-8.736000061035156,0,0
899.7779939990079,0.629180908203125,-0.497955322265625,0.10040283203125,-0.5882568359375,0.06103515625,0.18310546875,-0.1220703125,0.4583740234375,-0.741943359375,0.481689453125,-245.0,215.0,-99.0,102378.0,-8.736000061035156,0,0
899.7829939990079,0.629180908203125,-0.497955322265625,0.10040283203125,-0.5882568359375,-0.3662109375,0.1220703125,-0.06103515625,0.460693359375,-0.7445068359375,0.4818115234375,-245.0,215.0,-99.0,102378.0,-8.736000061035156,0,0
899.7879939990079,0.629180908203125,-0.497955322265625,0.10040283203125,-0.5882568359375,-0.18310546875,0.3662109375,-0.1220703125,0.459716796875,-0.7435302734375,0.481201171875,-244.0,216.0,-100.0,102378.0,-8.736000061035156,0,0
899.7920259990079,0.629180908203125,-0.497955322265625,0.10040283203125,-0.5882568359375,-0.18310546875,0.3662109375,-0.1220703125,0.459716796875,-0.7435302734375,0.481201171875,-244.0,216.0,-100.0,102378.0,-8.736000061035156,0,0
899.7969939990079,0.6290283203125,-0.4979248046875,0.10052490234375,-0.588409423828125,-0.06103515625,-0.06103515625,0.1220703125,0.459228515625,-0.74267578125,0.4837646484375,-244.0,216.0,-100.0,102378.0,-8.736000061035156,0,0
899.8119929990079,0.6290283203125,-0.4979248046875,0.10052490234375,-0.58837890625,-0.18310546875,0.1220703125,-0.1220703125,0.4595947265625,-0.743896484375,0.48193359375,-244.0,216.0,-100.0,102378.0,-8.736000061035156,0,0
899.8169939990079,0.6290283203125,-0.497955322265625,0.10052490234375,-0.588409423828125,0.244140625,0.1220703125,-0.06103515625,0.4617919921875,-0.7425537109375,0.482666015625,-244.0,216.0,-100.0,102378.0,-8.736000061035156,0,0
899.8219949990079,0.6290283203125,-0.497955322265625,0.10052490234375,-0.588409423828125,0.18310546875,0.06103515625,-0.18310546875,0.458740234375,-0.744384765625,0.4825439453125,-244.0,216.0,-100.0,102378.0,-8.736000061035156,0,0
899.8269959990079,0.6290283203125,-0.497955322265625,0.10052490234375,-0.588409423828125,0.18310546875,0.06103515625,0.1220703125,0.458984375,-0.7425537109375,0.482666015625,-244.0,216.0,-100.0,102378.0,-8.736000061035156,0,0
899.8319929990079,0.6290283203125,-0.497955322265625,0.100494384765625,-0.588409423828125,-0.1220703125,0.1220703125,-0.244140625,0.458984375,-0.74072265625,0.4840087890625,-244.0,216.0,-100.0,102378.0,-8.736000061035156,0,0
899.8369929990079,0.6290283203125,-0.497955322265625,0.100494384765625,-0.588409423828125,-0.06103515625,-0.1220703125,0.06103515625,0.4598388671875,-0.7418212890625,0.4813232421875,-244.0,216.0,-100.0,102378.0,-8.735000610351562,0,0
899.8419939990079,0.6290283203125,-0.497955322265625,0.100494384765625,-0.588409423828125,0.06103515625,0.18310546875,0.18310546875,0.458984375,-0.743408203125,0.4837646484375,-244.0,216.0,-100.0,102378.0,-8.735000610351562,0,0
899.8469959990078,0.6290283203125,-0.4979248046875,0.100494384765625,-0.588409423828125,-0.30517578125,0.1220703125,0.06103515625,0.4566650390625,-0.742919921875,0.481689453125,-244.0,216.0,-100.0,102378.0,-8.735000610351562,0,0
899.8519929990078,0.6290283203125,-0.497955322265625,0.10052490234375,-0.588409423828125,0.0,0.18310546875,-0.244140625,0.4578857421875,-0.742919921875,0.4815673828125,-244.0,216.0,-100.0,102378.0,-8.735000610351562,0,0
899.8560219990078,0.6290283203125,-0.497955322265625,0.10052490234375,-0.588409423828125,0.0,0.18310546875,-0.244140625,0.4578857421875,-0.742919921875,0.4815673828125,-244.0,216.0,-100.0,102378.0,-8.735000610351562,0,0
899.8609929990077,0.6290283203125,-0.497955322265625,0.10052490234375,-0.588409423828125,-0.1220703125,0.18310546875,-0.244140625,0.4595947265625,-0.746337890625,0.4825439453125,-244.0,216.0,-100.0,102378.0,-8.735000610351562,0,0
899.8659929990077,0.6290283203125,-0.497955322265625,0.10052490234375,-0.58837890625,0.18310546875,0.18310546875,0.0,0.4569091796875,-0.744140625,0.4835205078125,-244.0,216.0,-100.0,102378.0,-8.735000610351562,0,0
899.8709939990077,0.6290283203125,-0.497955322265625,0.10052490234375,-0.588409423828125,0.0,0.244140625,-0.18310546875,0.4613037109375,-0.742919921875,0.481201171875,-244.0,216.0,-100.0,102378.0,-8.735000610351562,0,0
899.8759949990077,0.6290283203125,-0.497955322265625,0.100494384765625,-0.588409423828125,-0.1220703125,0.18310546875,-0.06103515625,0.457763671875,-0.7408447265625,0.483154296875,-244.0,216.0,-100.0,102378.0,-8.735000610351562,0,0
899.8809959990077,0.6290283203125,-0.497955322265625,0.100494384765625,-0.588409423828125,0.06103515625,0.18310546875,0.1220703125,0.459716796875,-0.7421875,0.4847412109375,-244.0,216.0,-100.0,102378.0,-8.735000610351562,0,0
899.8859929990077,0.6290283203125,-0.497955322265625,0.100494384765625,-0.588409423828125,0.0,0.06103515625,0.1220703125,0.4586181640625,-0.7427978515625,0.482666015625,-244.0,216.0,-100.0,102378.0,-8.735000610351562,0,0
899.8909929990077,0.6290283203125,-0.497955322265625,0.100494384765625,-0.588409423828125,-0.18310546875,0.244140625,-0.06103515625,0.4583740234375,-0.7449951171875,0.4818115234375,-244.0,217.0,-98.0,102378.0,-8.735000610351562,0,0
899.8959939990077,0.6290283203125,-0.497955322265625,0.100494384765625,-0.588409423828125,0.0,-0.1220703125,-0.06103515625,0.4586181640625,-0.742431640625,0.482177734375,-244.0,217.0,-98.0,102378.0,-8.735000610351562,0,0
899.9009959990077,0.6290283203125,-0.497955322265625,0.100494384765625,-0.588409423828125,0.06103515625,0.18310546875,-0.1220703125,0.458251953125,-0.742919921875,0.4818115234375,-244.0,217.0,-98.0,102378.0,-8.735000610351562,0,0
899.9059929990077,0.6290283203125,-0.497955322265625,0.10052490234375,-0.58837890625,0.3662109375,0.244140625,-0.1220703125,0.45556640625,-0.74365234375,0.4827880859375,-244.0,217.0,-98.0,102378.0,-8.735000610351562,0,0
899.9109929990077,0.6290283203125,-0.497955322265625,0.10052490234375,-0.588409423828125,-0.1220703125,-0.18310546875,-0.18310546875,0.4588623046875,-0.7413330078125,0.48291015625,-244.0,217.0,-98.0,102378.0,-8.735000610351562,0,0
899.9159939990077,0.6290283203125,-0.497955322265625,0.100494384765625,-0.588409423828125,-0.1220703125,0.30517578125,0.06103515625,0.460693359375,-0.744140625,0.48291015625,-244.0,217.0,-98.0,102378.0,-8.735000610351562,0,0
899.9209949990077,0.6290283203125,-0.497955322265625,0.100494384765625,-0.588409423828125,-0.06103515625,0.18310546875,0.0,0.4598388671875,-0.7420654296875,0.4833984375,-244.0,217.0,-98.0,102378.0,-8.735000610351562,0,0
899.9349959990076,0.6290283203125,-0.497955322265625,0.100494384765625,-0.588409423828125,-0.3662109375,0.0,0.1220703125,0.4573974609375,-0.7425537109375,0.48193359375,-244.0,217.0,-98.0,102378.0,-8.735000610351562,0,0
899.9399929990076,0.6290283203125,-0.497955322265625,0.10052490234375,-0.58837890625,-0.244140625,0.06103515625,0.06103515625,0.458251953125,-0.74560546875,0.4840087890625,-244.0,217.0,-98.0,102378.0,-8.738000869750977,0,0
899.9449939990076,0.6290283203125,-0.497955322265625,0.10052490234375,-0.58837890625,0.3662109375,0.0,0.1220703125,0.45849609375,-0.745361328125,0.48388671875,-244.0,217.0,-98.0,102378.0,-8.738000869750977,0,0
899.9499939990076,0.6290283203125,-0.497955322265625,0.10052490234375,-0.588409423828125,0.1220703125,0.1220703125,-0.1220703125,0.4593505859375,-0.7423095703125,0.4833984375,-244.0,217.0,-98.0,102378.0,-8.738000869750977,0,0
899.9549959990076,0.6290283203125,-0.497955322265625,0.10052490234375,-0.588409423828125,-0.30517578125,0.06103515625,-0.1220703125,0.4580078125,-0.742919921875,0.482177734375,-244.0,217.0,-98.0,102378.0,-8.738000869750977,0,0
899.9599939990076,0.6290283203125,-0.497955322265625,0.100494384765625,-0.588409423828125,-0.48828125,0.06103515625,-0.06103515625,0.460693359375,-0.74365234375,0.482421875,-244.0,217.0,-98.0,102378.0,-8.738000869750977,0,0
899.9649939990076,0.6290283203125,-0.497955322265625,0.100494384765625,-0.588409423828125,-0.06103515625,0.1220703125,-0.1220703125,0.458984375,-0.741455078125,0.4825439453125,-244.0,217.0,-98.0,102378.0,-8.738000869750977,0,0
899.9699949990076,0.6290283203125,-0.497955322265625,0.100494384765625,-0.588409423828125,-0.06103515625,-0.06103515625,0.1220703125,0.459716796875,-0.7431640625,0.4835205078125,-244.0,217.0,-98.0,102378.0,-8.738000869750977,0,0
899.9749969990075,0.6290283203125,-0.497955322265625,0.100494384765625,-0.588409423828125,0.1220703125,0.244140625,-0.18310546875,0.45947265625,-0.7445068359375,0.4837646484375,-244.0,217.0,-98.0,102378.0,-8.738000869750977,0,0
899.9799969990075,0.6290283203125,-0.497955322265625,0.100494384765625,-0.588409423828125,0.0,0.18310546875,-0.18310546875,0.45751953125,-0.743408203125,0.484619140625,-244.0,217.0,-98.0,102378.0,-8.738000869750977,0,0
899.9849939990075,0.6290283203125,-0.497955322265625,0.100494384765625,-0.588409423828125,-0.1220703125,0.1220703125,-0.06103515625,0.4576416015625,-0.7435302734375,0.483154296875,-244.0,217.0,-98.0,102378.0,-8.738000869750977,0,0
899.9989939990074,0.6290283203125,-0.497955322265625,0.10052490234375,-0.58837890625,-0.18310546875,0.06103515625,0.06103515625,0.4583740234375,-0.7432861328125,0.4813232421875,-244.0,216.0,-99.0,102378.0,-8.738000869750977,0,0
900.0039939990074,0.6290283203125,-0.497955322265625,0.10052490234375,-0.58837890625,-0.18310546875,0.06103515625,-0.1220703125,0.4581298828125,-0.744140625,0.4827880859375,-244.0,216.0,-99.0,102378.0,-8.738000869750977,0,0
900.0089959990074,0.6290283203125,-0.497955322265625,0.100494384765625,-0.588409423828125,-0.30517578125,-0.06103515625,0.0,0.4620361328125,-0.743408203125,0.48095703125,-244.0,216.0,-99.0,102378.0,-8.738000869750977,0,0
900.0139929990074,0.6290283203125,-0.497955322265625,0.100494384765625,-0.588409423828125,0.0,0.244140625,-0.18310546875,0.4608154296875,-0.7435302734375,0.484375,-244.0,216.0,-99.0,102378.0,-8.738000869750977,0,0
900.0189929990074,0.6290283203125,-0.497955322265625,0.100494384765625,-0.588409423828125,-0.18310546875,0.18310546875,0.0,0.4591064453125,-0.744873046875,0.4833984375,-244.0,216.0,-99.0,102378.0,-8.738000869750977,0,0
900.0239939990074,0.6290283203125,-0.497955322265625,0.100494384765625,-0.588409423828125,-0.1220703125,0.18310546875,0.1220703125,0.458251953125,-0.742431640625,0.48291015625,-244.0,216.0,-99.0,102378.0,-8.738000869750977,0,0
900.0289949990074,0.6290283203125,-0.497955322265625,0.10052490234375,-0.588409423828125,-0.06103515625,0.18310546875,-0.1220703125,0.4583740234375,-0.743408203125,0.4833984375,-244.0,216.0,-99.0,102378.0,-8.738000869750977,0,0
900.0339919990074,0.6290283203125,-0.497955322265625,0.10052490234375,-0.588409423828125,0.54931640625,0.30517578125,0.0,0.4586181640625,-0.744873046875,0.483642578125,-244.0,216.0,-99.0,102378.0,-8.738000869750977,0,0
900.0389929990074,0.6290283203125,-0.497955322265625,0.10052490234375,-0.588409423828125,-0.1220703125,0.0,0.0,0.458984375,-0.743896484375,0.4842529296875,-244.0,216.0,-99.0,102378.0,-8.736000061035156,0,0
900.0439929990074,0.6290283203125,-0.497955322265625,0.10052490234375,-0.588409423828125,-0.1220703125,-0.06103515625,0.18310546875,0.4580078125,-0.7430419921875,0.4825439453125,-244.0,216.0,-99.0,102378.0,-8.736000061035156,0,0
900.0489939990074,0.6290283203125,-0.497955322265625,0.10052490234375,-0.588409423828125,-0.30517578125,0.0,0.06103515625,0.45849609375,-0.743408203125,0.4837646484375,-244.0,216.0,-99.0,102378.0,-8.736000061035156,0,0
900.0539959990074,0.6290283203125,-0.4979248046875,0.10052490234375,-0.588409423828125,-0.244140625,-0.1220703125,-0.1220703125,0.4593505859375,-0.74267578125,0.485107421875,-244.0,216.0,-99.0,102378.0,-8.736000061035156,0,0
900.0580279990074,0.6290283203125,-0.4979248046875,0.10052490234375,-0.588409423828125,-0.244140625,-0.1220703125,-0.1220703125,0.4593505859375,-0.74267578125,0.485107421875,-244.0,216.0,-99.0,102378.0,-8.736000061035156,0,0
900.0629959990074,0.6290283203125,-0.497955322265625,0.10052490234375,-0.588409423828125,0.06103515625,0.1220703125,0.06103515625,0.4578857421875,-0.744384765625,0.4830322265625,-244.0,216.0,-99.0,102378.0,-8.736000061035156,0,0
900.0679929990074,0.6290283203125,-0.497955322265625,0.10052490234375,-0.588409423828125,0.18310546875,0.244140625,0.06103515625,0.4610595703125,-0.7445068359375,0.482421875,-244.0,216.0,-99.0,102378.0,-8.736000061035156,0,0
900.0729929990074,0.6290283203125,-0.497955322265625,0.10052490234375,-0.58837890625,-0.06103515625,0.06103515625,-0.1220703125,0.4588623046875,-0.7440185546875,0.4830322265625,-244.0,216.0,-99.0,102378.0,-8.736000061035156,0,0
900.0779939990074,0.6290283203125,-0.497955322265625,0.10052490234375,-0.58837890625,-0.18310546875,0.0,-0.06103515625,0.459228515625,-0.74462890625,0.482177734375,-244.0,216.0,-99.0,102378.0,-8.736000061035156,0,0
900.0829949990074,0.6290283203125,-0.497955322265625,0.10052490234375,-0.588409423828125,-0.06103515625,-0.30517578125,0.0,0.4581298828125,-0.743408203125,0.483642578125,-244.0,216.0,-99.0,102378.0,-8.736000061035156,0,0
900.0879919990074,0.6290283203125,-0.497955322265625,0.10052490234375,-0.588409423828125,-0.06103515625,-0.18310546875,0.0,0.4598388671875,-0.7432861328125,0.4827880859375,-243.0,215.0,-100.0,102378.0,-8.736000061035156,0,0
900.0929929990074,0.62890625,-0.4979248046875,0.100616455078125,-0.588531494140625,-0.67138671875,0.0,0.244140625,0.4600830078125,-0.744873046875,0.4852294921875,-243.0,215.0,-100.0,102378.0,-8.736000061035156,0,0
900.0979929990074,0.62890625,-0.4979248046875,0.100616455078125,-0.588531494140625,0.1220703125,0.06103515625,0.1220703125,0.4593505859375,-0.7440185546875,0.4857177734375,-243.0,215.0,-100.0,102378.0,-8.736000061035156,0,0
900.1029939990074,0.62890625,-0.4979248046875,0.100616455078125,-0.588531494140625,-0.30517578125,0.244140625,0.06103515625,0.4576416015625,-0.744384765625,0.4847412109375,-243.0,215.0,-100.0,102378.0,-8.736000061035156,0,0
900.1079959990074,0.62890625,-0.4979248046875,0.100616455078125,-0.588531494140625,-0.06103515625,0.244140625,0.1220703125,0.458251953125,-0.744384765625,0.48291015625,-243.0,215.0,-100.0,102378.0,-8.736000061035156,0,0
900.1220219990073,0.62890625,-0.497894287109375,0.100616455078125,-0.588531494140625,0.0,0.1220703125,-0.1220703125,0.4598388671875,-0.7420654296875,0.4853515625,-243.0,215.0,-100.0,102378.0,-8.736000061035156,0,0
900.1269929990073,0.62890625,-0.497894287109375,0.100616455078125,-0.588531494140625,0.06103515625,0.06103515625,-0.06103515625,0.460205078125,-0.7442626953125,0.482666015625,-243.0,215.0,-100.0,102378.0,-8.736000061035156,0,0
900.1319939990072,0.62890625,-0.4979248046875,0.100616455078125,-0.588531494140625,0.0,0.1220703125,0.0,0.459716796875,-0.74267578125,0.4825439453125,-243.0,215.0,-100.0,102378.0,-8.736000061035156,0,0
900.1369949990072,0.62890625,-0.4979248046875,0.100616455078125,-0.588531494140625,-0.18310546875,0.1220703125,0.06103515625,0.4593505859375,-0.743408203125,0.4818115234375,-243.0,215.0,-100.0,102378.0,-8.735000610351562,0,0
900.1419919990072,0.62890625,-0.4979248046875,0.100616455078125,-0.588531494140625,0.0,-0.244140625,0.244140625,0.459716796875,-0.7427978515625,0.483154296875,-243.0,215.0,-100.0,102378.0,-8.735000610351562,0,0
900.1469929990072,0.62890625,-0.497894287109375,0.100616455078125,-0.588531494140625,-0.18310546875,0.18310546875,-0.06103515625,0.4580078125,-0.742919921875,0.485107421875,-243.0,215.0,-100.0,102378.0,-8.735000610351562,0,0
900.1519929990072,0.62890625,-0.497894287109375,0.100616455078125,-0.588531494140625,-0.18310546875,-0.18310546875,-0.06103515625,0.457763671875,-0.7423095703125,0.4833984375,-243.0,215.0,-100.0,102378.0,-8.735000610351562,0,0
900.1569939990072,0.62890625,-0.497894287109375,0.100616455078125,-0.588531494140625,0.30517578125,0.244140625,0.18310546875,0.45849609375,-0.7440185546875,0.4833984375,-243.0,215.0,-100.0,102378.0,-8.735000610351562,0,0
900.1619969990072,0.62890625,-0.497894287109375,0.100616455078125,-0.588531494140625,0.30517578125,-0.06103515625,-0.30517578125,0.4595947265625,-0.7462158203125,0.4840087890625,-243.0,215.0,-100.0,102378.0,-8.735000610351562,0,0
900.1669939990072,0.62890625,-0.4979248046875,0.100616455078125,-0.588531494140625,-0.1220703125,-0.06103515625,0.244140625,0.4608154296875,-0.7421875,0.4815673828125,-243.0,215.0,-100.0,102378.0,-8.735000610351562,0,0
900.1719939990072,0.62890625,-0.497894287109375,0.100616455078125,-0.588531494140625,0.1220703125,0.244140625,0.06103515625,0.457763671875,-0.7418212890625,0.483642578125,-243.0,215.0,-100.0,102378.0,-8.735000610351562,0,0
900.1869969990072,0.62890625,-0.497894287109375,0.100616455078125,-0.588531494140625,0.06103515625,0.244140625,0.0,0.4593505859375,-0.74462890625,0.4835205078125,-243.0,215.0,-100.0,102378.0,-8.735000610351562,0,0
900.1910239990071,0.62890625,-0.497894287109375,0.100616455078125,-0.588531494140625,0.06103515625,0.244140625,0.0,0.4593505859375,-0.74462890625,0.4835205078125,-243.0,215.0,-100.0,102378.0,-8.735000610351562,0,0
900.1959969990071,0.62890625,-0.497894287109375,0.100616455078125,-0.588531494140625,-0.42724609375,0.244140625,0.0,0.4573974609375,-0.7423095703125,0.482177734375,-243.0,215.0,-99.0,102378.0,-8.735000610351562,0,0
900.2009939990071,0.62890625,-0.497894287109375,0.100616455078125,-0.588531494140625,-0.18310546875,-0.06103515625,-0.30517578125,0.4588623046875,-0.743896484375,0.4837646484375,-243.0,215.0,-99.0,102378.0,-8.735000610351562,0,0
900.2059939990071,0.62890625,-0.497894287109375,0.100616455078125,-0.588531494140625,-0.244140625,0.06103515625,-0.30517578125,0.45751953125,-0.7445068359375,0.4827880859375,-243.0,215.0,-99.0,102378.0,-8.735000610351562,0,0
900.2109939990071,0.62890625,-0.497894287109375,0.100616455078125,-0.588531494140625,-0.06103515625,0.18310546875,-0.1220703125,0.458740234375,-0.74267578125,0.48291015625,-243.0,215.0,-99.0,102378.0,-8.735000610351562,0,0
900.2159959990071,0.62890625,-0.497894287109375,0.100616455078125,-0.588531494140625,0.0,0.06103515625,-0.06103515625,0.458984375,-0.74365234375,0.4844970703125,-243.0,215.0,-99.0,102378.0,-8.735000610351562,0,0
900.2209939990071,0.62890625,-0.497894287109375,0.100616455078125,-0.58856201171875,0.1220703125,0.1220703125,0.0,0.4603271484375,-0.7413330078125,0.48291015625,-243.0,215.0,-99.0,102378.0,-8.735000610351562,0,0
900.2259929990071,0.62890625,-0.497894287109375,0.100616455078125,-0.58856201171875,-0.1220703125,0.1220703125,0.30517578125,0.45849609375,-0.7437744140625,0.4857177734375,-243.0,215.0,-99.0,102378.0,-8.735000610351562,0,0
900.2309939990071,0.62890625,-0.497894287109375,0.100616455078125,-0.58856201171875,0.06103515625,0.30517578125,0.0,0.459716796875,-0.7431640625,0.48583984375,-243.0,215.0,-99.0,102378.0,-8.735000610351562,0,0
900.2359949990071,0.628936767578125,-0.49786376953125,0.100616455078125,-0.58856201171875,0.1220703125,0.06103515625,0.1220703125,0.4560546875,-0.743896484375,0.484375,-243.0,215.0,-99.0,102378.0,-8.735000610351562,0,0
900.240995999007,0.62890625,-0.4979248046875,0.100616455078125,-0.588531494140625,-1.03759765625,-0.30517578125,-0.1220703125,0.4603271484375,-0.7445068359375,0.4837646484375,-243.0,215.0,-99.0,102378.0,-8.735000610351562,0,0
900.2459929990071,0.62890625,-0.4979248046875,0.100616455078125,-0.588531494140625,-0.18310546875,-0.06103515625,-0.244140625,0.4595947265625,-0.7445068359375,0.4837646484375,-243.0,215.0,-99.0,102378.0,-8.735000610351562,0,0
900.250992999007,0.62890625,-0.497894287109375,0.100616455078125,-0.58856201171875,0.0,0.1220703125,-0.18310546875,0.45703125,-0.74267578125,0.484619140625,-243.0,215.0,-99.0,102378.0,-8.735000610351562,0,0
900.255021999007,0.62890625,-0.497894287109375,0.100616455078125,-0.58856201171875,0.0,0.1220703125,-0.18310546875,0.45703125,-0.74267578125,0.484619140625,-243.0,215.0,-99.0,102378.0,-8.735000610351562,0,0
900.259992999007,0.62890625,-0.497894287109375,0.100616455078125,-0.58856201171875,0.0,0.1220703125,0.18310546875,0.457275390625,-0.744140625,0.4833984375,-243.0,215.0,-99.0,102378.0,-8.735000610351562,0,0
900.264993999007,0.62890625,-0.497894287109375,0.100616455078125,-0.58856201171875,-0.1220703125,0.18310546875,0.1220703125,0.45849609375,-0.744140625,0.484130859375,-243.0,215.0,-99.0,102378.0,-8.735000610351562,0,0
900.2699959990069,0.62890625,-0.497894287109375,0.100616455078125,-0.58856201171875,0.06103515625,0.244140625,0.1220703125,0.4595947265625,-0.7432861328125,0.4833984375,-243.0,215.0,-99.0,102378.0,-8.735000610351562,0,0
900.2749929990069,0.62890625,-0.497894287109375,0.100616455078125,-0.58856201171875,0.1220703125,0.244140625,0.18310546875,0.4595947265625,-0.743408203125,0.4847412109375,-243.0,215.0,-99.0,102378.0,-8.735000610351562,0,0
900.2799929990069,0.62890625,-0.497894287109375,0.100616455078125,-0.58856201171875,-0.3662109375,0.244140625,-0.06103515625,0.4580078125,-0.74560546875,0.4859619140625,-243.0,215.0,-99.0,102378.0,-8.735000610351562,0,0
900.2849939990069,0.62890625,-0.497894287109375,0.100616455078125,-0.58856201171875,0.06103515625,0.0,0.06103515625,0.4615478515625,-0.7442626953125,0.4842529296875,-243.0,215.0,-99.0,102378.0,-8.735000610351562,0,0
900.2899949990069,0.62890625,-0.497894287109375,0.100616455078125,-0.58856201171875,0.06103515625,0.0,0.06103515625,0.4615478515625,-0.7442626953125,0.4842529296875,-243.0,216.0,-100.0,102378.0,-8.735000610351562,0,0
900.2949959990069,0.6287841796875,-0.49786376953125,0.1007080078125,-0.58868408203125,-0.30517578125,0.06103515625,-0.18310546875,0.459228515625,-0.743896484375,0.484375,-243.0,216.0,-100.0,102378.0,-8.735000610351562,0,0
900.3099939990069,0.6287841796875,-0.49786376953125,0.1007080078125,-0.588714599609375,0.0,0.1220703125,-0.18310546875,0.4598388671875,-0.7437744140625,0.4852294921875,-243.0,216.0,-100.0,102378.0,-8.735000610351562,0,0
900.3149959990069,0.6287841796875,-0.49786376953125,0.1007080078125,-0.588714599609375,-0.1220703125,0.48828125,-0.1220703125,0.46044921875,-0.74365234375,0.483154296875,-243.0,216.0,-100.0,102378.0,-8.735000610351562,0,0
900.319027999007,0.6287841796875,-0.49786376953125,0.1007080078125,-0.588714599609375,-0.1220703125,0.48828125,-0.1220703125,0.46044921875,-0.74365234375,0.483154296875,-243.0,216.0,-100.0,102378.0,-8.735000610351562,0,0
900.3239959990069,0.6287841796875,-0.49786376953125,0.1007080078125,-0.588714599609375,-0.1220703125,0.1220703125,0.1220703125,0.460205078125,-0.7469482421875,0.4847412109375,-243.0,216.0,-100.0,102378.0,-8.735000610351562,0,0
900.3289929990069,0.6287841796875,-0.49786376953125,0.1007080078125,-0.588714599609375,0.06103515625,0.1220703125,0.1220703125,0.4581298828125,-0.744140625,0.484619140625,-243.0,216.0,-100.0,102378.0,-8.735000610351562,0,0
900.3339929990069,0.6287841796875,-0.49786376953125,0.1007080078125,-0.588714599609375,0.1220703125,0.18310546875,-0.244140625,0.4583740234375,-0.744873046875,0.4847412109375,-243.0,216.0,-100.0,102378.0,-8.735000610351562,0,0
900.3389939990069,0.6287841796875,-0.497833251953125,0.1007080078125,-0.588714599609375,0.06103515625,0.06103515625,0.0,0.4564208984375,-0.7427978515625,0.48486328125,-243.0,216.0,-100.0,102378.0,-8.735000610351562,0,0
900.3439949990069,0.6287841796875,-0.497833251953125,0.1007080078125,-0.588714599609375,0.244140625,0.18310546875,-0.1220703125,0.4610595703125,-0.7449951171875,0.4842529296875,-243.0,216.0,-100.0,102378.0,-8.735000610351562,0,0
900.3489929990069,0.6287841796875,-0.497833251953125,0.1007080078125,-0.588714599609375,0.0,0.244140625,0.1220703125,0.45947265625,-0.7435302734375,0.4862060546875,-243.0,216.0,-100.0,102378.0,-8.735000610351562,0,0
900.3539929990069,0.6287841796875,-0.497833251953125,0.1007080078125,-0.588714599609375,-0.244140625,0.18310546875,0.244140625,0.4588623046875,-0.743408203125,0.484619140625,-243.0,216.0,-100.0,102378.0,-8.735000610351562,0,0
900.3689969990069,0.628814697265625,-0.497833251953125,0.1007080078125,-0.588714599609375,0.1220703125,0.18310546875,0.06103515625,0.4566650390625,-0.7464599609375,0.4844970703125,-243.0,216.0,-100.0,102378.0,-8.735000610351562,0,0
900.3739939990069,0.628814697265625,-0.497802734375,0.1007080078125,-0.588714599609375,-0.48828125,0.06103515625,0.06103515625,0.4598388671875,-0.7445068359375,0.48486328125,-243.0,216.0,-100.0,102378.0,-8.735000610351562,0,0
900.3789939990069,0.628814697265625,-0.497802734375,0.1007080078125,-0.588714599609375,-0.06103515625,0.30517578125,0.06103515625,0.457275390625,-0.7431640625,0.484619140625,-243.0,216.0,-100.0,102378.0,-8.735000610351562,0,0
900.3839949990069,0.628814697265625,-0.497802734375,0.1007080078125,-0.588714599609375,-0.244140625,-0.06103515625,0.06103515625,0.4583740234375,-0.7452392578125,0.4869384765625,-243.0,216.0,-100.0,102378.0,-8.736000061035156,0,0
900.3880249990068,0.628814697265625,-0.497802734375,0.1007080078125,-0.588714599609375,-0.244140625,-0.06103515625,0.06103515625,0.4583740234375,-0.7452392578125,0.4869384765625,-243.0,216.0,-100.0,102378.0,-8.736000061035156,0,0
900.3929959990068,0.628814697265625,-0.497802734375,0.1007080078125,-0.588714599609375,0.244140625,0.30517578125,0.18310546875,0.4583740234375,-0.7420654296875,0.484130859375,-244.0,215.0,-99.0,102378.0,-8.736000061035156,0,0
900.3979969990068,0.628814697265625,-0.497802734375,0.1007080078125,-0.588714599609375,-0.06103515625,-0.244140625,0.0,0.45947265625,-0.7447509765625,0.485107421875,-244.0,215.0,-99.0,102378.0,-8.736000061035156,0,0
900.4029969990067,0.628814697265625,-0.497772216796875,0.1007080078125,-0.588714599609375,-0.18310546875,0.1220703125,0.18310546875,0.45751953125,-0.74267578125,0.4844970703125,-244.0,215.0,-99.0,102378.0,-8.736000061035156,0,0
900.4079939990067,0.628814697265625,-0.497772216796875,0.1007080078125,-0.588714599609375,0.0,0.0,-0.244140625,0.4605712890625,-0.7430419921875,0.48388671875,-244.0,215.0,-99.0,102378.0,-8.736000061035156,0,0
900.4129939990067,0.628814697265625,-0.497802734375,0.1007080078125,-0.588714599609375,-0.244140625,0.06103515625,-0.06103515625,0.46044921875,-0.7474365234375,0.4815673828125,-244.0,215.0,-99.0,102378.0,-8.736000061035156,0,0
900.4179939990067,0.628814697265625,-0.497802734375,0.100738525390625,-0.588714599609375,0.06103515625,0.0,0.0,0.45751953125,-0.745361328125,0.4844970703125,-244.0,215.0,-99.0,102378.0,-8.736000061035156,0,0
900.4229969990067,0.628814697265625,-0.497772216796875,0.100738525390625,-0.588714599609375,0.0,0.244140625,0.0,0.4578857421875,-0.74462890625,0.484619140625,-244.0,215.0,-99.0,102378.0,-8.736000061035156,0,0
900.4279939990067,0.628814697265625,-0.497772216796875,0.100738525390625,-0.588714599609375,0.244140625,0.244140625,0.06103515625,0.4600830078125,-0.7437744140625,0.4844970703125,-244.0,215.0,-99.0,102378.0,-8.736000061035156,0,0
900.4329939990067,0.628814697265625,-0.497772216796875,0.1007080078125,-0.588714599609375,0.1220703125,0.0,-0.1220703125,0.459228515625,-0.74267578125,0.4847412109375,-244.0,215.0,-99.0,102378.0,-8.736000061035156,0,0
900.4379939990067,0.628814697265625,-0.497772216796875,0.1007080078125,-0.588714599609375,0.1220703125,0.0,-0.1220703125,0.459228515625,-0.74267578125,0.4847412109375,-244.0,215.0,-99.0,102378.0,-8.736000061035156,0,0
900.4429949990067,0.628814697265625,-0.497772216796875,0.1007080078125,-0.588714599609375,0.0,0.1220703125,-0.06103515625,0.4583740234375,-0.742919921875,0.48486328125,-244.0,215.0,-99.0,102378.0,-8.736000061035156,0,0
900.4479919990067,0.628814697265625,-0.497772216796875,0.1007080078125,-0.588714599609375,0.1220703125,0.6103515625,0.1220703125,0.459228515625,-0.7413330078125,0.4830322265625,-244.0,215.0,-99.0,102378.0,-8.736000061035156,0,0
900.4520209990067,0.628814697265625,-0.497772216796875,0.1007080078125,-0.588714599609375,0.1220703125,0.6103515625,0.1220703125,0.459228515625,-0.7413330078125,0.4830322265625,-244.0,215.0,-99.0,102378.0,-8.736000061035156,0,0
900.4569929990066,0.62884521484375,-0.497772216796875,0.1007080078125,-0.588714599609375,-0.06103515625,0.1220703125,-0.18310546875,0.456787109375,-0.74462890625,0.484619140625,-244.0,215.0,-99.0,102378.0,-8.736000061035156,0,0
900.4619929990066,0.62884521484375,-0.497772216796875,0.1007080078125,-0.588714599609375,0.18310546875,0.06103515625,0.1220703125,0.4586181640625,-0.7431640625,0.48388671875,-244.0,215.0,-99.0,102378.0,-8.736000061035156,0,0
900.4669929990066,0.62884521484375,-0.497772216796875,0.1007080078125,-0.588714599609375,0.1220703125,0.18310546875,-0.1220703125,0.45947265625,-0.7447509765625,0.485107421875,-244.0,215.0,-99.0,102378.0,-8.736000061035156,0,0
900.4719939990066,0.62884521484375,-0.497772216796875,0.1007080078125,-0.5887451171875,0.0,0.244140625,-0.1220703125,0.4583740234375,-0.744140625,0.4844970703125,-244.0,215.0,-99.0,102378.0,-8.736000061035156,0,0
900.4769959990066,0.62884521484375,-0.49774169921875,0.1007080078125,-0.5887451171875,0.30517578125,0.06103515625,-0.06103515625,0.4598388671875,-0.743408203125,0.4844970703125,-244.0,215.0,-99.0,102378.0,-8.736000061035156,0,0
900.4919939990066,0.62884521484375,-0.49774169921875,0.1007080078125,-0.5887451171875,-0.3662109375,0.06103515625,0.06103515625,0.4598388671875,-0.74365234375,0.485107421875,-245.0,215.0,-99.0,102378.0,-8.735000610351562,0,0
900.4969949990066,0.62884521484375,-0.49774169921875,0.1007080078125,-0.5887451171875,-0.18310546875,-0.06103515625,-0.18310546875,0.45947265625,-0.7425537109375,0.4852294921875,-245.0,215.0,-99.0,102378.0,-8.735000610351562,0,0
900.5019919990066,0.62884521484375,-0.49774169921875,0.1007080078125,-0.5887451171875,-0.06103515625,0.244140625,-0.06103515625,0.4564208984375,-0.7435302734375,0.4840087890625,-245.0,215.0,-99.0,102378.0,-8.735000610351562,0,0
900.5069929990066,0.62884521484375,-0.49774169921875,0.1007080078125,-0.5887451171875,0.06103515625,0.30517578125,-0.18310546875,0.4588623046875,-0.7437744140625,0.484375,-245.0,215.0,-99.0,102378.0,-8.735000610351562,0,0
900.5119929990066,0.62884521484375,-0.49774169921875,0.1007080078125,-0.5887451171875,0.0,0.18310546875,0.06103515625,0.4593505859375,-0.7430419921875,0.4830322265625,-245.0,215.0,-99.0,102378.0,-8.735000610351562,0,0
900.5169939990066,0.62884521484375,-0.49774169921875,0.1007080078125,-0.5887451171875,0.0,0.06103515625,0.06103515625,0.4578857421875,-0.7431640625,0.4864501953125,-245.0,215.0,-99.0,102378.0,-8.735000610351562,0,0
900.5210249990066,0.62884521484375,-0.49774169921875,0.1007080078125,-0.5887451171875,0.0,0.06103515625,0.06103515625,0.4578857421875,-0.7431640625,0.4864501953125,-245.0,215.0,-99.0,102378.0,-8.735000610351562,0,0
900.5259939990066,0.62884521484375,-0.49774169921875,0.1007080078125,-0.5887451171875,-0.06103515625,0.0,-0.18310546875,0.457763671875,-0.7412109375,0.4827880859375,-245.0,215.0,-99.0,102378.0,-8.735000610351562,0,0
900.5309959990066,0.62884521484375,-0.49774169921875,0.1007080078125,-0.5887451171875,0.0,0.30517578125,-0.1220703125,0.4599609375,-0.7425537109375,0.4844970703125,-245.0,215.0,-99.0,102378.0,-8.735000610351562,0,0
900.5359929990066,0.62884521484375,-0.49774169921875,0.1007080078125,-0.5887451171875,0.0,0.18310546875,-0.18310546875,0.45849609375,-0.7431640625,0.483154296875,-245.0,215.0,-99.0,102378.0,-8.735000610351562,0,0
900.5409929990066,0.62884521484375,-0.49774169921875,0.1007080078125,-0.5887451171875,0.06103515625,0.06103515625,-0.06103515625,0.4595947265625,-0.7435302734375,0.4844970703125,-245.0,215.0,-99.0,102378.0,-8.735000610351562,0,0
900.5559919990066,0.62884521484375,-0.497711181640625,0.1007080078125,-0.5887451171875,-0.48828125,0.06103515625,0.1220703125,0.4593505859375,-0.7413330078125,0.484619140625,-245.0,215.0,-99.0,102378.0,-8.735000610351562,0,0
900.5609929990065,0.62884521484375,-0.497711181640625,0.100677490234375,-0.5887451171875,0.0,0.244140625,0.18310546875,0.4556884765625,-0.7432861328125,0.4835205078125,-245.0,215.0,-99.0,102378.0,-8.735000610351562,0,0
900.5659929990065,0.62884521484375,-0.497711181640625,0.100677490234375,-0.588775634765625,-0.06103515625,0.244140625,0.1220703125,0.459228515625,-0.7447509765625,0.4852294921875,-245.0,215.0,-99.0,102378.0,-8.735000610351562,0,0
900.5709939990065,0.62884521484375,-0.497711181640625,0.100677490234375,-0.588775634765625,0.18310546875,0.1220703125,-0.18310546875,0.4598388671875,-0.7423095703125,0.484130859375,-245.0,215.0,-99.0,102378.0,-8.735000610351562,0,0
900.5759959990065,0.62884521484375,-0.4976806640625,0.100677490234375,-0.588775634765625,0.1220703125,0.06103515625,0.06103515625,0.4578857421875,-0.7413330078125,0.4849853515625,-245.0,215.0,-99.0,102378.0,-8.735000610351562,0,0
900.5809929990065,0.62884521484375,-0.4976806640625,0.100677490234375,-0.588775634765625,-0.1220703125,0.0,0.06103515625,0.45751953125,-0.743896484375,0.4844970703125,-245.0,215.0,-99.0,102378.0,-8.735000610351562,0,0
900.5850229990065,0.62884521484375,-0.4976806640625,0.100677490234375,-0.588775634765625,-0.1220703125,0.0,0.06103515625,0.45751953125,-0.743896484375,0.4844970703125,-245.0,215.0,-99.0,102378.0,-8.735000610351562,0,0
900.5899939990064,0.62884521484375,-0.4976806640625,0.100677490234375,-0.588775634765625,-0.18310546875,0.244140625,0.06103515625,0.4586181640625,-0.742919921875,0.4827880859375,-246.0,213.0,-99.0,102378.0,-8.734000205993652,0,0
900.5949939990064,0.62847900390625,-0.49761962890625,0.10101318359375,-0.58917236328125,0.0,-0.06103515625,-0.1220703125,0.456298828125,-0.74267578125,0.4849853515625,-246.0,213.0,-99.0,102378.0,-8.734000205993652,0,0
900.5999949990064,0.62847900390625,-0.49761962890625,0.10101318359375,-0.58917236328125,-0.06103515625,0.244140625,0.244140625,0.4580078125,-0.7431640625,0.484130859375,-246.0,213.0,-99.0,102378.0,-8.734000205993652,0,0
900.6049969990064,0.62847900390625,-0.49761962890625,0.10101318359375,-0.58917236328125,0.0,0.0,0.0,0.459716796875,-0.7425537109375,0.4822998046875,-246.0,213.0,-99.0,102378.0,-8.734000205993652,0,0
900.6099959990064,0.62847900390625,-0.49761962890625,0.10101318359375,-0.58917236328125,0.244140625,0.0,-0.06103515625,0.4609375,-0.7440185546875,0.4830322265625,-246.0,213.0,-99.0,102378.0,-8.734000205993652,0,0
900.6149939990064,0.62847900390625,-0.49761962890625,0.100982666015625,-0.58917236328125,0.18310546875,0.1220703125,-0.06103515625,0.4593505859375,-0.741943359375,0.487060546875,-246.0,213.0,-99.0,102378.0,-8.734000205993652,0,0
900.6199939990064,0.62847900390625,-0.49761962890625,0.100982666015625,-0.58917236328125,-0.30517578125,0.1220703125,0.0,0.459228515625,-0.7423095703125,0.4827880859375,-246.0,213.0,-99.0,102378.0,-8.734000205993652,0,0
900.6249939990064,0.62847900390625,-0.49761962890625,0.100982666015625,-0.58917236328125,0.18310546875,0.18310546875,0.06103515625,0.4593505859375,-0.7427978515625,0.484375,-246.0,213.0,-99.0,102378.0,-8.734000205993652,0,0
900.6299969990064,0.62847900390625,-0.49761962890625,0.100982666015625,-0.58917236328125,-0.244140625,0.06103515625,-0.06103515625,0.4573974609375,-0.742919921875,0.484130859375,-246.0,213.0,-99.0,102378.0,-8.734000205993652,0,0
900.6349939990064,0.62847900390625,-0.49761962890625,0.100982666015625,-0.58917236328125,-0.06103515625,0.18310546875,0.0,0.4591064453125,-0.7437744140625,0.4835205078125,-246.0,213.0,-99.0,102378.0,-8.734000205993652,0,0
900.6399939990064,0.62847900390625,-0.49761962890625,0.100982666015625,-0.58917236328125,0.06103515625,0.30517578125,0.1220703125,0.4573974609375,-0.7442626953125,0.484130859375,-246.0,213.0,-99.0,102378.0,-8.734000205993652,0,0
900.6449949990064,0.62847900390625,-0.49761962890625,0.100982666015625,-0.58917236328125,-0.244140625,0.0,-0.18310546875,0.4599609375,-0.74365234375,0.4835205078125,-246.0,213.0,-99.0,102378.0,-8.734000205993652,0,0
900.6499959990064,0.62847900390625,-0.49761962890625,0.100982666015625,-0.58917236328125,-0.18310546875,0.30517578125,0.0,0.4593505859375,-0.74462890625,0.485595703125,-246.0,213.0,-99.0,102378.0,-8.734000205993652,0,0
900.6540249990063,0.62847900390625,-0.49761962890625,0.100982666015625,-0.58917236328125,-0.18310546875,0.30517578125,0.0,0.4593505859375,-0.74462890625,0.485595703125,-246.0,213.0,-99.0,102378.0,-8.734000205993652,0,0
900.6589959990063,0.62847900390625,-0.49761962890625,0.100982666015625,-0.58917236328125,0.06103515625,0.1220703125,0.18310546875,0.4571533203125,-0.7418212890625,0.4833984375,-246.0,213.0,-99.0,102378.0,-8.734000205993652,0,0
900.6639919990063,0.62847900390625,-0.49761962890625,0.10101318359375,-0.58917236328125,0.06103515625,0.0,0.06103515625,0.457275390625,-0.742431640625,0.4844970703125,-246.0,213.0,-99.0,102378.0,-8.734000205993652,0,0
900.6789939990063,0.62847900390625,-0.497589111328125,0.10101318359375,-0.58917236328125,0.1220703125,0.1220703125,-0.06103515625,0.4580078125,-0.744140625,0.4842529296875,-246.0,213.0,-99.0,102378.0,-8.734000205993652,0,0
900.6839959990062,0.62847900390625,-0.497589111328125,0.10101318359375,-0.58917236328125,0.18310546875,0.0,0.1220703125,0.458740234375,-0.7451171875,0.485107421875,-246.0,213.0,-99.0,102378.0,-8.734000205993652,0,0
900.6889929990062,0.62847900390625,-0.49761962890625,0.10101318359375,-0.58917236328125,0.18310546875,0.0,0.1220703125,0.458740234375,-0.7451171875,0.485107421875,-246.0,214.0,-98.0,102378.0,-8.737000465393066,0,0
900.6939929990062,0.62835693359375,-0.497589111328125,0.101104736328125,-0.589324951171875,-0.244140625,0.244140625,0.1220703125,0.4591064453125,-0.742919921875,0.4825439453125,-246.0,214.0,-98.0,102378.0,-8.737000465393066,0,0
900.6989939990062,0.62835693359375,-0.497589111328125,0.101104736328125,-0.589324951171875,-0.06103515625,0.244140625,0.06103515625,0.458251953125,-0.7435302734375,0.4844970703125,-246.0,214.0,-98.0,102378.0,-8.737000465393066,0,0
900.7039949990062,0.62835693359375,-0.497589111328125,0.101104736328125,-0.589324951171875,-0.1220703125,-0.06103515625,0.0,0.459228515625,-0.7435302734375,0.483154296875,-246.0,214.0,-98.0,102378.0,-8.737000465393066,0,0
900.7089959990062,0.62835693359375,-0.497589111328125,0.101104736328125,-0.589324951171875,0.1220703125,0.1220703125,-0.06103515625,0.4617919921875,-0.7432861328125,0.4842529296875,-246.0,214.0,-98.0,102378.0,-8.737000465393066,0,0
900.7139929990062,0.62835693359375,-0.497589111328125,0.101104736328125,-0.589324951171875,-0.30517578125,-0.06103515625,-0.244140625,0.45947265625,-0.74462890625,0.483642578125,-246.0,214.0,-98.0,102378.0,-8.737000465393066,0,0
900.7180219990062,0.62835693359375,-0.497589111328125,0.101104736328125,-0.589324951171875,-0.30517578125,-0.06103515625,-0.244140625,0.45947265625,-0.74462890625,0.483642578125,-246.0,214.0,-98.0,102378.0,-8.737000465393066,0,0
900.7229929990061,0.62835693359375,-0.497589111328125,0.101104736328125,-0.589324951171875,0.1220703125,0.1220703125,0.06103515625,0.4600830078125,-0.7432861328125,0.4840087890625,-246.0,214.0,-98.0,102378.0,-8.737000465393066,0,0
900.7279929990061,0.62835693359375,-0.497589111328125,0.101104736328125,-0.589324951171875,-0.244140625,0.1220703125,-0.06103515625,0.4593505859375,-0.742919921875,0.4835205078125,-246.0,214.0,-98.0,102378.0,-8.737000465393066,0,0
900.7429929990061,0.62835693359375,-0.497589111328125,0.101104736328125,-0.589324951171875,-0.18310546875,0.1220703125,0.18310546875,0.4619140625,-0.7447509765625,0.4840087890625,-246.0,214.0,-98.0,102378.0,-8.737000465393066,0,0
900.7479929990061,0.62835693359375,-0.497589111328125,0.10107421875,-0.589324951171875,0.06103515625,0.3662109375,0.1220703125,0.460205078125,-0.7435302734375,0.4842529296875,-246.0,214.0,-98.0,102378.0,-8.737000465393066,0,0
900.7529939990061,0.62835693359375,-0.497589111328125,0.10107421875,-0.589324951171875,0.42724609375,-0.1220703125,-0.06103515625,0.4598388671875,-0.7440185546875,0.4847412109375,-246.0,214.0,-98.0,102378.0,-8.737000465393066,0,0
900.7579949990061,0.62835693359375,-0.497589111328125,0.10107421875,-0.589324951171875,0.0,0.244140625,-0.06103515625,0.457763671875,-0.7412109375,0.4862060546875,-246.0,214.0,-98.0,102378.0,-8.737000465393066,0,0
900.7629929990061,0.62835693359375,-0.497589111328125,0.10107421875,-0.589324951171875,0.06103515625,0.06103515625,-0.06103515625,0.459716796875,-0.7454833984375,0.4835205078125,-246.0,214.0,-98.0,102378.0,-8.737000465393066,0,0
900.7679929990061,0.62835693359375,-0.497589111328125,0.10107421875,-0.589324951171875,-0.18310546875,-0.06103515625,0.0,0.4591064453125,-0.7430419921875,0.4847412109375,-246.0,214.0,-98.0,102378.0,-8.737000465393066,0,0
900.7729929990061,0.62835693359375,-0.497589111328125,0.10107421875,-0.589324951171875,0.0,0.18310546875,0.06103515625,0.4609375,-0.7425537109375,0.48388671875,-246.0,214.0,-98.0,102378.0,-8.737000465393066,0,0
900.7779939990061,0.62835693359375,-0.49755859375,0.10107421875,-0.589324951171875,-0.1220703125,0.1220703125,0.0,0.45751953125,-0.7430419921875,0.486328125,-246.0,214.0,-98.0,102378.0,-8.737000465393066,0,0
900.7829959990061,0.62835693359375,-0.49755859375,0.10107421875,-0.589324951171875,0.06103515625,0.06103515625,0.0,0.4580078125,-0.743408203125,0.485107421875,-246.0,214.0,-98.0,102378.0,-8.737000465393066,0,0
900.7870279990061,0.62835693359375,-0.49755859375,0.10107421875,-0.589324951171875,0.06103515625,0.06103515625,0.0,0.4580078125,-0.743408203125,0.485107421875,-246.0,214.0,-98.0,102378.0,-8.737000465393066,0,0
900.7919959990061,0.62835693359375,-0.49755859375,0.10107421875,-0.58935546875,0.30517578125,0.1220703125,0.0,0.4588623046875,-0.743896484375,0.4854736328125,-247.0,213.0,-98.0,102378.0,-8.735000610351562,0,0
900.7969939990061,0.62823486328125,-0.497528076171875,0.101165771484375,-0.5894775390625,-0.30517578125,0.06103515625,-0.06103515625,0.4591064453125,-0.7427978515625,0.4849853515625,-247.0,213.0,-98.0,102378.0,-8.735000610351562,0,0
900.8019939990061,0.62823486328125,-0.497528076171875,0.101165771484375,-0.5894775390625,-0.18310546875,-0.06103515625,-0.244140625,0.4593505859375,-0.7440185546875,0.4842529296875,-247.0,213.0,-98.0,102378.0,-8.735000610351562,0,0
900.8069949990061,0.62823486328125,-0.497528076171875,0.101165771484375,-0.5894775390625,0.18310546875,0.1220703125,0.0,0.460205078125,-0.7437744140625,0.4862060546875,-247.0,213.0,-98.0,102378.0,-8.735000610351562,0,0
900.811996999006,0.62823486328125,-0.497528076171875,0.101165771484375,-0.5894775390625,0.06103515625,0.0,-0.06103515625,0.4595947265625,-0.743896484375,0.483642578125,-247.0,213.0,-98.0,102378.0,-8.735000610351562,0,0
900.816996999006,0.62823486328125,-0.497528076171875,0.101165771484375,-0.5894775390625,0.1220703125,0.244140625,-0.06103515625,0.4573974609375,-0.7431640625,0.4833984375,-247.0,213.0,-98.0,102378.0,-8.735000610351562,0,0
900.821993999006,0.62823486328125,-0.497528076171875,0.101165771484375,-0.5894775390625,-0.06103515625,0.42724609375,0.1220703125,0.460205078125,-0.74267578125,0.4852294921875,-247.0,213.0,-98.0,102378.0,-8.735000610351562,0,0
900.826993999006,0.62823486328125,-0.497528076171875,0.101165771484375,-0.5894775390625,-0.30517578125,-0.18310546875,0.18310546875,0.4566650390625,-0.7408447265625,0.485595703125,-247.0,213.0,-98.0,102378.0,-8.735000610351562,0,0
900.831993999006,0.62823486328125,-0.497528076171875,0.101165771484375,-0.5894775390625,-0.244140625,0.244140625,-0.06103515625,0.4581298828125,-0.7427978515625,0.4835205078125,-247.0,213.0,-98.0,102378.0,-8.735000610351562,0,0
900.836995999006,0.62823486328125,-0.497528076171875,0.101165771484375,-0.5894775390625,-0.18310546875,0.06103515625,0.0,0.4599609375,-0.7447509765625,0.4827880859375,-247.0,213.0,-98.0,102378.0,-8.735000610351562,0,0
900.841993999006,0.62823486328125,-0.49749755859375,0.101165771484375,-0.5894775390625,0.06103515625,0.1220703125,0.06103515625,0.456787109375,-0.7440185546875,0.4835205078125,-247.0,213.0,-98.0,102378.0,-8.735000610351562,0,0
900.846993999006,0.62823486328125,-0.49749755859375,0.101165771484375,-0.5894775390625,-0.18310546875,0.244140625,-0.244140625,0.457275390625,-0.7421875,0.4857177734375,-247.0,213.0,-98.0,102378.0,-8.735000610351562,0,0
900.851023999006,0.62823486328125,-0.49749755859375,0.101165771484375,-0.5894775390625,-0.18310546875,0.244140625,-0.244140625,0.457275390625,-0.7421875,0.4857177734375,-247.0,213.0,-98.0,102378.0,-8.735000610351562,0,0
900.8659949990059,0.62823486328125,-0.497528076171875,0.101165771484375,-0.589508056640625,0.1220703125,0.244140625,0.18310546875,0.4608154296875,-0.7447509765625,0.48486328125,-247.0,213.0,-98.0,102378.0,-8.735000610351562,0,0
900.8709959990059,0.62823486328125,-0.497528076171875,0.101165771484375,-0.589508056640625,0.1220703125,0.1220703125,0.0,0.4595947265625,-0.7459716796875,0.4837646484375,-247.0,213.0,-98.0,102378.0,-8.735000610351562,0,0
900.8759929990059,0.62823486328125,-0.497528076171875,0.101165771484375,-0.589508056640625,0.0,0.1220703125,0.0,0.4588623046875,-0.7449951171875,0.483642578125,-247.0,213.0,-98.0,102378.0,-8.735000610351562,0,0
900.8809929990059,0.62823486328125,-0.497528076171875,0.101165771484375,-0.5894775390625,-0.18310546875,-0.06103515625,0.1220703125,0.45751953125,-0.7431640625,0.4832763671875,-247.0,213.0,-98.0,102378.0,-8.735000610351562,0,0
900.8859939990059,0.62823486328125,-0.49749755859375,0.101165771484375,-0.589508056640625,-0.244140625,0.06103515625,-0.18310546875,0.458251953125,-0.7420654296875,0.4857177734375,-247.0,213.0,-98.0,102379.0,-8.73900032043457,0,0
900.8909959990059,0.62823486328125,-0.49749755859375,0.101165771484375,-0.589508056640625,-0.1220703125,0.18310546875,-0.06103515625,0.4588623046875,-0.7437744140625,0.4835205078125,-246.0,213.0,-98.0,102379.0,-8.73900032043457,0,0
900.8959929990059,0.62811279296875,-0.49749755859375,0.10125732421875,-0.589630126953125,-0.18310546875,0.1220703125,0.1220703125,0.4598388671875,-0.74365234375,0.484619140625,-246.0,213.0,-98.0,102379.0,-8.73900032043457,0,0
900.9009929990059,0.62811279296875,-0.49749755859375,0.10125732421875,-0.589630126953125,-0.18310546875,0.06103515625,0.0,0.45947265625,-0.7406005859375,0.4849853515625,-246.0,213.0,-98.0,102379.0,-8.73900032043457,0,0
900.9059939990059,0.62811279296875,-0.49749755859375,0.10125732421875,-0.589630126953125,0.18310546875,0.1220703125,-0.06103515625,0.4583740234375,-0.7445068359375,0.484375,-246.0,213.0,-98.0,102379.0,-8.73900032043457,0,0
900.9109949990059,0.62811279296875,-0.49749755859375,0.10125732421875,-0.589630126953125,0.0,-0.06103515625,-0.06103515625,0.4599609375,-0.7432861328125,0.4849853515625,-246.0,213.0,-98.0,102379.0,-8.73900032043457,0,0
900.9159919990059,0.62811279296875,-0.497467041015625,0.10125732421875,-0.589630126953125,-0.18310546875,0.1220703125,0.18310546875,0.45849609375,-0.7431640625,0.4852294921875,-246.0,213.0,-98.0,102379.0,-8.73900032043457,0,0
900.9299929990058,0.62811279296875,-0.497467041015625,0.10125732421875,-0.589630126953125,0.06103515625,0.30517578125,-0.1220703125,0.459716796875,-0.74267578125,0.483642578125,-246.0,213.0,-98.0,102379.0,-8.73900032043457,0,0
900.9349929990058,0.62811279296875,-0.497467041015625,0.10125732421875,-0.589630126953125,-0.18310546875,0.1220703125,0.1220703125,0.4610595703125,-0.7447509765625,0.4864501953125,-246.0,213.0,-98.0,102379.0,-8.73900032043457,0,0
900.9399939990058,0.62811279296875,-0.497467041015625,0.10125732421875,-0.589630126953125,-0.1220703125,0.06103515625,-0.06103515625,0.458740234375,-0.7425537109375,0.484619140625,-246.0,213.0,-98.0,102379.0,-8.73900032043457,0,0
900.9449959990058,0.62811279296875,-0.497467041015625,0.10125732421875,-0.58966064453125,-0.18310546875,0.18310546875,-0.1220703125,0.45947265625,-0.7435302734375,0.4862060546875,-246.0,213.0,-98.0,102379.0,-8.73900032043457,0,0
900.9499929990058,0.62811279296875,-0.497467041015625,0.10125732421875,-0.58966064453125,-0.30517578125,-0.06103515625,-0.1220703125,0.46044921875,-0.7427978515625,0.485107421875,-246.0,213.0,-98.0,102379.0,-8.73900032043457,0,0
900.9549929990058,0.62811279296875,-0.497467041015625,0.10125732421875,-0.58966064453125,0.06103515625,0.1220703125,-0.30517578125,0.4586181640625,-0.7445068359375,0.4857177734375,-246.0,213.0,-98.0,102379.0,-8.73900032043457,0,0
900.9599939990057,0.62811279296875,-0.497467041015625,0.10125732421875,-0.58966064453125,0.1220703125,0.244140625,0.0,0.4615478515625,-0.74560546875,0.48486328125,-246.0,213.0,-98.0,102379.0,-8.73900032043457,0,0
900.9649949990057,0.62811279296875,-0.497467041015625,0.10125732421875,-0.58966064453125,-0.42724609375,0.0,0.1220703125,0.45947265625,-0.745361328125,0.485107421875,-246.0,213.0,-98.0,102379.0,-8.73900032043457,0,0
900.9699919990057,0.62811279296875,-0.497467041015625,0.10125732421875,-0.58966064453125,-0.18310546875,-0.244140625,0.1220703125,0.459716796875,-0.7447509765625,0.48486328125,-246.0,213.0,-98.0,102379.0,-8.73900032043457,0,0
900.9749929990057,0.62811279296875,-0.497467041015625,0.10125732421875,-0.58966064453125,-0.244140625,0.1220703125,0.1220703125,0.460205078125,-0.7447509765625,0.484375,-246.0,213.0,-98.0,102379.0,-8.73900032043457,0,0
900.9799929990057,0.62811279296875,-0.497467041015625,0.10125732421875,-0.58966064453125,-0.1220703125,0.244140625,-0.1220703125,0.458984375,-0.7445068359375,0.484130859375,-246.0,213.0,-98.0,102379.0,-8.73900032043457,0,0
900.9840219990057,0.62811279296875,-0.497467041015625,0.10125732421875,-0.58966064453125,-0.1220703125,0.244140625,-0.1220703125,0.458984375,-0.7445068359375,0.484130859375,-246.0,213.0,-98.0,102379.0,-8.73900032043457,0,0
900.9889929990056,0.62774658203125,-0.49737548828125,0.1015625,-0.590057373046875,-0.18310546875,0.06103515625,-0.06103515625,0.45947265625,-0.74462890625,0.4859619140625,-246.0,213.0,-99.0,102378.0,-8.738000869750977,0,0
900.9939939990056,0.62774658203125,-0.49737548828125,0.1015625,-0.590057373046875,-0.18310546875,0.1220703125,-0.1220703125,0.4598388671875,-0.7432861328125,0.4864501953125,-246.0,213.0,-99.0,102378.0,-8.738000869750977,0,0
900.9989959990056,0.62774658203125,-0.49737548828125,0.1015625,-0.590057373046875,-0.06103515625,0.1220703125,0.06103515625,0.460693359375,-0.7418212890625,0.48486328125,-246.0,213.0,-99.0,102378.0,-8.738000869750977,0,0
901.0039929990056,0.62774658203125,-0.49737548828125,0.1015625,-0.590057373046875,-0.18310546875,-0.06103515625,0.06103515625,0.4586181640625,-0.7412109375,0.4833984375,-246.0,213.0,-99.0,102378.0,-8.738000869750977,0,0
901.0089939990056,0.62774658203125,-0.49737548828125,0.1015625,-0.590057373046875,0.06103515625,0.18310546875,0.0,0.45849609375,-0.7451171875,0.48486328125,-246.0,213.0,-99.0,102378.0,-8.738000869750977,0,0
901.0139949990056,0.62774658203125,-0.49737548828125,0.1015625,-0.590057373046875,-0.42724609375,-0.06103515625,-0.18310546875,0.4588623046875,-0.7454833984375,0.48583984375,-246.0,213.0,-99.0,102378.0,-8.738000869750977,0,0
901.0189969990056,0.62774658203125,-0.49737548828125,0.101593017578125,-0.590057373046875,0.244140625,0.0,0.0,0.45751953125,-0.7418212890625,0.4833984375,-246.0,213.0,-99.0,102378.0,-8.738000869750977,0,0
901.0239969990056,0.62774658203125,-0.49737548828125,0.101593017578125,-0.590057373046875,-0.06103515625,0.18310546875,0.18310546875,0.45947265625,-0.74462890625,0.4854736328125,-246.0,213.0,-99.0,102378.0,-8.738000869750977,0,0
901.0289939990056,0.62774658203125,-0.49737548828125,0.101593017578125,-0.590057373046875,-0.1220703125,0.1220703125,0.1220703125,0.4581298828125,-0.7440185546875,0.4847412109375,-246.0,213.0,-99.0,102378.0,-8.738000869750977,0,0
901.0339939990056,0.62774658203125,-0.49737548828125,0.101593017578125,-0.590057373046875,0.18310546875,0.1220703125,0.0,0.45849609375,-0.745849609375,0.48388671875,-246.0,213.0,-99.0,102378.0,-8.738000869750977,0,0
901.0389939990056,0.62774658203125,-0.49737548828125,0.101593017578125,-0.590057373046875,0.18310546875,0.1220703125,0.0,0.45849609375,-0.745849609375,0.48388671875,-246.0,213.0,-99.0,102378.0,-8.738000869750977,0,0
901.0530239990055,0.62774658203125,-0.49737548828125,0.1015625,-0.590057373046875,0.1220703125,0.0,-0.1220703125,0.4613037109375,-0.7435302734375,0.4871826171875,-246.0,213.0,-99.0,102378.0,-8.738000869750977,0,0
901.0579939990055,0.62774658203125,-0.497344970703125,0.101593017578125,-0.590057373046875,-0.1220703125,0.1220703125,0.06103515625,0.458984375,-0.7454833984375,0.48388671875,-246.0,213.0,-99.0,102378.0,-8.738000869750977,0,0
901.0629939990055,0.627777099609375,-0.497344970703125,0.101593017578125,-0.590057373046875,0.1220703125,0.06103515625,-0.244140625,0.4580078125,-0.7442626953125,0.4852294921875,-246.0,213.0,-99.0,102378.0,-8.738000869750977,0,0
901.0679949990055,0.627777099609375,-0.497344970703125,0.101593017578125,-0.590057373046875,-0.06103515625,0.30517578125,-0.06103515625,0.4554443359375,-0.745849609375,0.4853515625,-246.0,213.0,-99.0,102378.0,-8.738000869750977,0,0
901.0729969990055,0.627777099609375,-0.497344970703125,0.101593017578125,-0.590057373046875,0.1220703125,0.18310546875,0.18310546875,0.4573974609375,-0.7437744140625,0.48388671875,-246.0,213.0,-99.0,102378.0,-8.738000869750977,0,0
901.0779919990055,0.627777099609375,-0.497344970703125,0.101593017578125,-0.590057373046875,-0.06103515625,0.30517578125,0.06103515625,0.45556640625,-0.743408203125,0.4849853515625,-246.0,213.0,-99.0,102378.0,-8.738000869750977,0,0
901.0829929990055,0.627777099609375,-0.497344970703125,0.101593017578125,-0.590057373046875,-0.06103515625,0.0,-0.244140625,0.4578857421875,-0.743896484375,0.485107421875,-246.0,213.0,-99.0,102378.0,-8.738000869750977,0,0
901.0879929990055,0.627777099609375,-0.497344970703125,0.101593017578125,-0.590057373046875,0.0,0.0,-0.1220703125,0.457275390625,-0.743896484375,0.4840087890625,-246.0,214.0,-98.0,102378.0,-8.737000465393066,0,0
901.0929939990054,0.627655029296875,-0.497314453125,0.101715087890625,-0.5902099609375,0.0,0.06103515625,-0.18310546875,0.45849609375,-0.7431640625,0.4847412109375,-246.0,214.0,-98.0,102378.0,-8.737000465393066,0,0
901.0979959990054,0.627655029296875,-0.497314453125,0.101715087890625,-0.5902099609375,0.0,-0.18310546875,0.06103515625,0.460693359375,-0.741943359375,0.48486328125,-246.0,214.0,-98.0,102378.0,-8.737000465393066,0,0
901.1029929990054,0.627655029296875,-0.497314453125,0.1016845703125,-0.5902099609375,0.1220703125,0.06103515625,0.1220703125,0.4609375,-0.74365234375,0.48388671875,-246.0,214.0,-98.0,102378.0,-8.737000465393066,0,0
901.1170229990054,0.627655029296875,-0.497283935546875,0.101715087890625,-0.5902099609375,0.06103515625,0.1220703125,-0.1220703125,0.45849609375,-0.7440185546875,0.4862060546875,-246.0,214.0,-98.0,102378.0,-8.737000465393066,0,0
901.1219939990053,0.627655029296875,-0.497283935546875,0.101715087890625,-0.5902099609375,-0.06103515625,0.06103515625,-0.244140625,0.459228515625,-0.744873046875,0.4859619140625,-246.0,214.0,-98.0,102378.0,-8.737000465393066,0,0
901.1269949990053,0.627655029296875,-0.497283935546875,0.101715087890625,-0.5902099609375,-0.1220703125,0.06103515625,-0.18310546875,0.4578857421875,-0.74462890625,0.4852294921875,-246.0,214.0,-98.0,102378.0,-8.737000465393066,0,0
901.1319919990053,0.627655029296875,-0.497283935546875,0.101715087890625,-0.5902099609375,-0.1220703125,0.1220703125,0.0,0.4573974609375,-0.7437744140625,0.4862060546875,-246.0,214.0,-98.0,102378.0,-8.737000465393066,0,0
901.1369929990053,0.627655029296875,-0.497283935546875,0.101715087890625,-0.5902099609375,0.18310546875,0.30517578125,-0.18310546875,0.45751953125,-0.743896484375,0.48486328125,-246.0,214.0,-98.0,102378.0,-8.737000465393066,0,0
901.1419929990053,0.627655029296875,-0.497283935546875,0.101715087890625,-0.5902099609375,-0.3662109375,0.1220703125,0.0,0.46044921875,-0.7440185546875,0.4840087890625,-246.0,214.0,-98.0,102378.0,-8.737000465393066,0,0
901.1469939990053,0.627685546875,-0.497283935546875,0.101715087890625,-0.5902099609375,-0.1220703125,0.0,0.06103515625,0.458251953125,-0.7432861328125,0.4857177734375,-246.0,214.0,-98.0,102378.0,-8.737000465393066,0,0
901.1519959990053,0.627685546875,-0.49725341796875,0.101715087890625,-0.5902099609375,0.0,0.244140625,0.06103515625,0.4573974609375,-0.743408203125,0.4864501953125,-246.0,214.0,-98.0,102378.0,-8.737000465393066,0,0
901.1569929990053,0.627685546875,-0.49725341796875,0.101715087890625,-0.5902099609375,-0.244140625,0.0,0.244140625,0.458740234375,-0.7454833984375,0.486572265625,-246.0,214.0,-98.0,102378.0,-8.737000465393066,0,0
901.1619929990053,0.627685546875,-0.49725341796875,0.101715087890625,-0.5902099609375,-0.06103515625,0.1220703125,0.0,0.458984375,-0.7449951171875,0.4852294921875,-246.0,214.0,-98.0,102378.0,-8.737000465393066,0,0
901.2409939990051,0.6275634765625,-0.4971923828125,0.101806640625,-0.590362548828125,0.1220703125,0.18310546875,0.0,0.4580078125,-0.742919921875,0.485107421875,-245.0,213.0,-98.0,102378.0,-8.736000061035156,0,0
901.2459939990051,0.6275634765625,-0.4971923828125,0.101806640625,-0.590362548828125,-0.3662109375,0.18310546875,0.06103515625,0.4583740234375,-0.7435302734375,0.4853515625,-245.0,213.0,-98.0,102378.0,-8.736000061035156,0,0
901.2500259990052,0.6275634765625,-0.4971923828125,0.101806640625,-0.590362548828125,-0.3662109375,0.18310546875,0.06103515625,0.4583740234375,-0.7435302734375,0.4853515625,-245.0,213.0,-98.0,102378.0,-8.736000061035156,0,0
901.2549949990051,0.6275634765625,-0.4971923828125,0.101806640625,-0.590362548828125,-0.30517578125,0.1220703125,-0.244140625,0.458984375,-0.744384765625,0.486572265625,-245.0,213.0,-98.0,102378.0,-8.736000061035156,0,0
901.2599959990051,0.627593994140625,-0.4971923828125,0.101806640625,-0.590362548828125,0.0,0.18310546875,-0.06103515625,0.458740234375,-0.743896484375,0.48583984375,-245.0,213.0,-98.0,102378.0,-8.736000061035156,0,0
901.2649939990051,0.627593994140625,-0.497161865234375,0.101806640625,-0.590362548828125,0.30517578125,0.18310546875,-0.1220703125,0.459228515625,-0.7421875,0.4852294921875,-245.0,213.0,-98.0,102378.0,-8.736000061035156,0,0
901.2699939990051,0.627593994140625,-0.497161865234375,0.101806640625,-0.590362548828125,-0.1220703125,0.18310546875,-0.06103515625,0.458984375,-0.7454833984375,0.4862060546875,-245.0,213.0,-98.0,102378.0,-8.736000061035156,0,0
901.2749949990051,0.627593994140625,-0.497161865234375,0.101806640625,-0.590362548828125,-0.42724609375,0.1220703125,0.06103515625,0.4608154296875,-0.7442626953125,0.486083984375,-245.0,213.0,-98.0,102378.0,-8.736000061035156,0,0
901.2799969990051,0.627593994140625,-0.497161865234375,0.101806640625,-0.590362548828125,-0.06103515625,0.42724609375,0.1220703125,0.457763671875,-0.744140625,0.4849853515625,-245.0,213.0,-98.0,102378.0,-8.736000061035156,0,0
901.2849969990051,0.627593994140625,-0.497161865234375,0.101806640625,-0.590362548828125,-0.18310546875,0.0,0.1220703125,0.459228515625,-0.7423095703125,0.485107421875,-245.0,213.0,-98.0,102378.0,-8.736000061035156,0,0
901.2999939990051,0.62744140625,-0.49713134765625,0.101898193359375,-0.59051513671875,0.3662109375,0.30517578125,0.06103515625,0.461181640625,-0.743408203125,0.4840087890625,-245.0,213.0,-97.0,102379.0,-8.738000869750977,0,0
901.3049959990051,0.62744140625,-0.49713134765625,0.101898193359375,-0.59051513671875,0.06103515625,0.06103515625,-0.244140625,0.4595947265625,-0.7437744140625,0.4842529296875,-245.0,213.0,-97.0,102379.0,-8.738000869750977,0,0
901.3099929990051,0.627471923828125,-0.49713134765625,0.101898193359375,-0.59051513671875,-0.1220703125,0.0,-0.18310546875,0.4566650390625,-0.7430419921875,0.48486328125,-245.0,213.0,-97.0,102379.0,-8.738000869750977,0,0
901.3149929990051,0.627471923828125,-0.49713134765625,0.1019287109375,-0.59051513671875,-0.1220703125,-0.06103515625,-0.06103515625,0.45654296875,-0.7432861328125,0.4857177734375,-245.0,213.0,-97.0,102379.0,-8.738000869750977,0,0
901.319021999005,0.627471923828125,-0.49713134765625,0.1019287109375,-0.59051513671875,-0.1220703125,-0.06103515625,-0.06103515625,0.45654296875,-0.7432861328125,0.4857177734375,-245.0,213.0,-97.0,102379.0,-8.738000869750977,0,0
901.323992999005,0.627471923828125,-0.49713134765625,0.1019287109375,-0.59051513671875,-0.18310546875,0.18310546875,0.0,0.4569091796875,-0.744384765625,0.4854736328125,-245.0,213.0,-97.0,102379.0,-8.738000869750977,0,0
901.328993999005,0.627471923828125,-0.49713134765625,0.1019287109375,-0.59051513671875,-0.30517578125,-0.1220703125,0.18310546875,0.459228515625,-0.744384765625,0.485107421875,-245.0,213.0,-97.0,102379.0,-8.738000869750977,0,0
901.333994999005,0.627471923828125,-0.49713134765625,0.1019287109375,-0.59051513671875,-0.3662109375,0.3662109375,-0.06103515625,0.4580078125,-0.744140625,0.484619140625,-245.0,213.0,-97.0,102379.0,-8.738000869750977,0,0
901.338995999005,0.627471923828125,-0.49713134765625,0.1019287109375,-0.59051513671875,0.06103515625,0.1220703125,-0.244140625,0.4586181640625,-0.7432861328125,0.48388671875,-245.0,213.0,-97.0,102379.0,-8.738000869750977,0,0
901.343992999005,0.627471923828125,-0.49713134765625,0.1019287109375,-0.59051513671875,-0.18310546875,0.18310546875,-0.06103515625,0.4599609375,-0.74365234375,0.4854736328125,-245.0,213.0,-97.0,102379.0,-8.738000869750977,0,0
901.348992999005,0.627471923828125,-0.497100830078125,0.1019287109375,-0.59051513671875,0.1220703125,0.244140625,-0.244140625,0.4586181640625,-0.7413330078125,0.48583984375,-245.0,213.0,-97.0,102379.0,-8.738000869750977,0,0
901.353993999005,0.627471923828125,-0.497100830078125,0.101898193359375,-0.59051513671875,0.0,0.18310546875,-0.1220703125,0.4598388671875,-0.7442626953125,0.4849853515625,-245.0,213.0,-97.0,102379.0,-8.738000869750977,0,0
901.358995999005,0.627471923828125,-0.497100830078125,0.101898193359375,-0.59051513671875,-0.18310546875,0.18310546875,0.06103515625,0.45947265625,-0.7420654296875,0.4873046875,-245.0,213.0,-97.0,102379.0,-8.738000869750977,0,0
901.363992999005,0.627471923828125,-0.497100830078125,0.101898193359375,-0.590545654296875,-0.18310546875,0.18310546875,-0.06103515625,0.459716796875,-0.7420654296875,0.485595703125,-245.0,213.0,-97.0,102379.0,-8.738000869750977,0,0
901.368992999005,0.627471923828125,-0.497100830078125,0.101898193359375,-0.590545654296875,0.1220703125,0.0,-0.1220703125,0.458984375,-0.742431640625,0.4852294921875,-245.0,213.0,-97.0,102379.0,-8.738000869750977,0,0
901.3739939990049,0.627471923828125,-0.497100830078125,0.101898193359375,-0.590545654296875,-0.1220703125,0.1220703125,0.0,0.459228515625,-0.7423095703125,0.483642578125,-245.0,213.0,-97.0,102379.0,-8.738000869750977,0,0
901.3789949990049,0.627471923828125,-0.497100830078125,0.101898193359375,-0.590545654296875,0.06103515625,0.30517578125,-0.18310546875,0.459228515625,-0.7432861328125,0.485107421875,-245.0,213.0,-97.0,102379.0,-8.738000869750977,0,0
901.3830239990049,0.627471923828125,-0.497100830078125,0.101898193359375,-0.590545654296875,0.06103515625,0.30517578125,-0.18310546875,0.459228515625,-0.7432861328125,0.485107421875,-245.0,213.0,-97.0,102379.0,-8.738000869750977,0,0
901.3879949990048,0.627471923828125,-0.497100830078125,0.101898193359375,-0.590545654296875,0.0,0.06103515625,0.0,0.4620361328125,-0.7447509765625,0.48486328125,-244.0,214.0,-98.0,102378.0,-8.737000465393066,0,0
901.3929959990048,0.627593994140625,-0.49713134765625,0.101776123046875,-0.59039306640625,0.18310546875,0.54931640625,0.18310546875,0.4600830078125,-0.7432861328125,0.4852294921875,-244.0,214.0,-98.0,102378.0,-8.737000465393066,0,0
901.3979929990048,0.627593994140625,-0.49713134765625,0.101776123046875,-0.59039306640625,0.06103515625,0.244140625,0.06103515625,0.4586181640625,-0.7418212890625,0.4849853515625,-244.0,214.0,-98.0,102378.0,-8.737000465393066,0,0
901.4029929990048,0.627593994140625,-0.49713134765625,0.101776123046875,-0.590423583984375,0.1220703125,0.244140625,-0.1220703125,0.45947265625,-0.7432861328125,0.48779296875,-244.0,214.0,-98.0,102378.0,-8.737000465393066,0,0
901.4079939990048,0.627593994140625,-0.49713134765625,0.101776123046875,-0.590423583984375,0.1220703125,0.244140625,-0.1220703125,0.45947265625,-0.743408203125,0.485107421875,-244.0,214.0,-98.0,102378.0,-8.737000465393066,0,0
901.4229929990048,0.627593994140625,-0.497100830078125,0.101776123046875,-0.590423583984375,-0.18310546875,0.1220703125,0.06103515625,0.46044921875,-0.74365234375,0.4847412109375,-244.0,214.0,-98.0,102378.0,-8.737000465393066,0,0
901.4279939990048,0.627593994140625,-0.497100830078125,0.101776123046875,-0.590423583984375,-0.18310546875,0.06103515625,0.0,0.4591064453125,-0.74365234375,0.4864501953125,-244.0,214.0,-98.0,102378.0,-8.737000465393066,0,0
901.4329969990048,0.627593994140625,-0.497100830078125,0.101776123046875,-0.590423583984375,0.06103515625,0.1220703125,-0.18310546875,0.4578857421875,-0.7440185546875,0.4859619140625,-244.0,214.0,-98.0,102378.0,-8.737000465393066,0,0
901.4379959990048,0.627593994140625,-0.497100830078125,0.101776123046875,-0.590423583984375,-0.18310546875,0.30517578125,-0.30517578125,0.45849609375,-0.7432861328125,0.484619140625,-244.0,214.0,-98.0,102378.0,-8.737000465393066,0,0
901.4429939990048,0.627593994140625,-0.497100830078125,0.101776123046875,-0.590423583984375,-0.244140625,-0.18310546875,-0.1220703125,0.4598388671875,-0.74267578125,0.486083984375,-244.0,214.0,-98.0,102378.0,-8.737000465393066,0,0
901.4479939990048,0.627593994140625,-0.497100830078125,0.101776123046875,-0.590423583984375,-0.18310546875,0.06103515625,-0.06103515625,0.4573974609375,-0.746337890625,0.4852294921875,-244.0,214.0,-98.0,102378.0,-8.737000465393066,0,0
901.4520239990047,0.627593994140625,-0.497100830078125,0.101776123046875,-0.590423583984375,-0.18310546875,0.06103515625,-0.06103515625,0.4573974609375,-0.746337890625,0.4852294921875,-244.0,214.0,-98.0,102378.0,-8.737000465393066,0,0
901.4569949990047,0.627593994140625,-0.497100830078125,0.10174560546875,-0.590423583984375,-0.1220703125,0.1220703125,0.06103515625,0.457763671875,-0.7413330078125,0.487060546875,-244.0,214.0,-98.0,102378.0,-8.737000465393066,0,0
901.4619939990047,0.62762451171875,-0.4970703125,0.10174560546875,-0.590423583984375,-0.06103515625,-0.06103515625,0.1220703125,0.458984375,-0.7451171875,0.4862060546875,-244.0,214.0,-98.0,102378.0,-8.737000465393066,0,0
901.4669969990047,0.62762451171875,-0.4970703125,0.10174560546875,-0.590423583984375,0.244140625,0.06103515625,0.1220703125,0.4588623046875,-0.7425537109375,0.4852294921875,-244.0,214.0,-98.0,102378.0,-8.737000465393066,0,0
901.4719939990047,0.62762451171875,-0.4970703125,0.10174560546875,-0.590423583984375,-0.18310546875,-0.1220703125,0.18310546875,0.458984375,-0.7437744140625,0.4852294921875,-244.0,214.0,-98.0,102378.0,-8.737000465393066,0,0
901.4869969990046,0.62762451171875,-0.4970703125,0.10174560546875,-0.590423583984375,0.30517578125,0.0,0.06103515625,0.45947265625,-0.744140625,0.4866943359375,-245.0,215.0,-98.0,102378.0,-8.737000465393066,0,0
901.4919969990046,0.62786865234375,-0.497100830078125,0.101531982421875,-0.590179443359375,-0.244140625,0.0,-0.244140625,0.4578857421875,-0.74267578125,0.4864501953125,-245.0,215.0,-98.0,102378.0,-8.737000465393066,0,0
901.4969939990046,0.62786865234375,-0.497100830078125,0.101531982421875,-0.590179443359375,-0.06103515625,0.1220703125,0.06103515625,0.4581298828125,-0.7432861328125,0.4854736328125,-245.0,215.0,-98.0,102378.0,-8.737000465393066,0,0
901.5019929990046,0.62786865234375,-0.497100830078125,0.101531982421875,-0.590179443359375,0.244140625,0.0,0.1220703125,0.4573974609375,-0.7432861328125,0.486083984375,-245.0,215.0,-98.0,102378.0,-8.737000465393066,0,0
901.5069939990046,0.62786865234375,-0.497100830078125,0.101531982421875,-0.590179443359375,-0.30517578125,0.0,0.0,0.4598388671875,-0.74365234375,0.484375,-245.0,215.0,-98.0,102378.0,-8.737000465393066,0,0
901.5119959990046,0.62786865234375,-0.497100830078125,0.101531982421875,-0.590179443359375,-0.18310546875,-0.1220703125,-0.06103515625,0.459228515625,-0.7445068359375,0.4859619140625,-245.0,215.0,-98.0,102378.0,-8.737000465393066,0,0
901.5160279990047,0.62786865234375,-0.497100830078125,0.101531982421875,-0.590179443359375,-0.18310546875,-0.1220703125,-0.06103515625,0.459228515625,-0.7445068359375,0.4859619140625,-245.0,215.0,-98.0,102378.0,-8.737000465393066,0,0
901.5209959990046,0.62786865234375,-0.497100830078125,0.101531982421875,-0.590179443359375,0.0,0.244140625,-0.06103515625,0.4573974609375,-0.7437744140625,0.4854736328125,-245.0,215.0,-98.0,102378.0,-8.737000465393066,0,0
901.5259929990046,0.62786865234375,-0.4970703125,0.101531982421875,-0.590179443359375,-0.30517578125,0.1220703125,-0.06103515625,0.458984375,-0.742431640625,0.4857177734375,-245.0,215.0,-98.0,102378.0,-8.737000465393066,0,0
901.5309929990046,0.62786865234375,-0.4970703125,0.101531982421875,-0.590179443359375,0.1220703125,0.1220703125,0.1220703125,0.460205078125,-0.7423095703125,0.4859619140625,-245.0,215.0,-98.0,102378.0,-8.737000465393066,0,0
901.5359939990046,0.62786865234375,-0.4970703125,0.101531982421875,-0.590179443359375,0.0,0.30517578125,0.1220703125,0.4595947265625,-0.7449951171875,0.4857177734375,-245.0,215.0,-98.0,102379.0,-8.738000869750977,0,0
901.5409949990046,0.62786865234375,-0.4970703125,0.101531982421875,-0.590179443359375,-0.30517578125,0.244140625,-0.18310546875,0.4583740234375,-0.7442626953125,0.4847412109375,-245.0,215.0,-98.0,102379.0,-8.738000869750977,0,0
901.5459919990046,0.62786865234375,-0.4970703125,0.101531982421875,-0.590179443359375,0.06103515625,0.1220703125,-0.18310546875,0.4598388671875,-0.7413330078125,0.485595703125,-245.0,215.0,-98.0,102379.0,-8.738000869750977,0,0
901.5509929990046,0.627899169921875,-0.4970703125,0.101531982421875,-0.590179443359375,-0.244140625,0.0,0.1220703125,0.4581298828125,-0.7431640625,0.486083984375,-245.0,215.0,-98.0,102379.0,-8.738000869750977,0,0
901.5559929990046,0.627899169921875,-0.4970703125,0.101531982421875,-0.590179443359375,0.0,0.1220703125,-0.06103515625,0.4581298828125,-0.7449951171875,0.4857177734375,-245.0,215.0,-98.0,102379.0,-8.738000869750977,0,0
901.5609939990046,0.627899169921875,-0.4970703125,0.101531982421875,-0.590179443359375,0.244140625,0.244140625,-0.18310546875,0.4578857421875,-0.7435302734375,0.4864501953125,-245.0,215.0,-98.0,102379.0,-8.738000869750977,0,0
901.5659959990046,0.627899169921875,-0.4970703125,0.101531982421875,-0.590179443359375,-0.18310546875,0.0,0.1220703125,0.45947265625,-0.7431640625,0.4874267578125,-245.0,215.0,-98.0,102379.0,-8.738000869750977,0,0
901.5709929990046,0.627899169921875,-0.4970703125,0.101531982421875,-0.590179443359375,0.0,0.244140625,-0.1220703125,0.4595947265625,-0.745849609375,0.4873046875,-245.0,215.0,-98.0,102379.0,-8.738000869750977,0,0
901.5759929990046,0.627899169921875,-0.4970703125,0.101531982421875,-0.590179443359375,0.3662109375,0.06103515625,-0.06103515625,0.46044921875,-0.745361328125,0.485107421875,-245.0,215.0,-98.0,102379.0,-8.738000869750977,0,0
901.5800219990045,0.627899169921875,-0.4970703125,0.101531982421875,-0.590179443359375,0.3662109375,0.06103515625,-0.06103515625,0.46044921875,-0.745361328125,0.485107421875,-245.0,215.0,-98.0,102379.0,-8.738000869750977,0,0
901.5849929990045,0.627899169921875,-0.4970703125,0.101531982421875,-0.590179443359375,-0.1220703125,0.1220703125,-0.18310546875,0.45849609375,-0.744140625,0.48583984375,-245.0,215.0,-98.0,102379.0,-8.738000869750977,0,0
901.5899939990045,0.628021240234375,-0.497100830078125,0.101409912109375,-0.590057373046875,-0.3662109375,0.06103515625,0.18310546875,0.45947265625,-0.7440185546875,0.4842529296875,-244.0,216.0,-97.0,102379.0,-8.738000869750977,0,0
901.5949949990045,0.628021240234375,-0.497100830078125,0.101409912109375,-0.590057373046875,0.06103515625,0.18310546875,0.0,0.4613037109375,-0.7435302734375,0.4852294921875,-244.0,216.0,-97.0,102379.0,-8.738000869750977,0,0
901.6099929990045,0.628021240234375,-0.497100830078125,0.1014404296875,-0.590057373046875,-0.18310546875,0.06103515625,-0.1220703125,0.45751953125,-0.74462890625,0.484130859375,-244.0,216.0,-97.0,102379.0,-8.738000869750977,0,0
901.6149939990045,0.628021240234375,-0.4970703125,0.1014404296875,-0.590057373046875,-0.54931640625,0.30517578125,0.06103515625,0.4561767578125,-0.7420654296875,0.4847412109375,-244.0,216.0,-97.0,102379.0,-8.738000869750977,0,0
901.6199959990045,0.628021240234375,-0.4970703125,0.1014404296875,-0.590057373046875,0.18310546875,0.1220703125,0.0,0.457763671875,-0.7442626953125,0.48681640625,-244.0,216.0,-97.0,102379.0,-8.738000869750977,0,0
901.6249929990045,0.628021240234375,-0.4970703125,0.1014404296875,-0.590057373046875,-0.18310546875,0.1220703125,0.06103515625,0.4581298828125,-0.742919921875,0.486083984375,-244.0,216.0,-97.0,102379.0,-8.738000869750977,0,0
901.6299929990045,0.628021240234375,-0.4970703125,0.1014404296875,-0.590057373046875,0.0,0.18310546875,-0.06103515625,0.4593505859375,-0.7435302734375,0.4862060546875,-244.0,216.0,-97.0,102379.0,-8.738000869750977,0,0
901.6349939990045,0.628021240234375,-0.4970703125,0.101409912109375,-0.590057373046875,0.1220703125,0.0,-0.1220703125,0.4600830078125,-0.7435302734375,0.48681640625,-244.0,216.0,-97.0,102379.0,-8.738000869750977,0,0
901.6399949990044,0.628021240234375,-0.4970703125,0.101409912109375,-0.590057373046875,-0.18310546875,0.30517578125,-0.1220703125,0.4598388671875,-0.7427978515625,0.4852294921875,-244.0,216.0,-97.0,102379.0,-8.738000869750977,0,0
901.6449959990044,0.628021240234375,-0.497039794921875,0.101409912109375,-0.590057373046875,0.0,-0.1220703125,0.06103515625,0.45947265625,-0.7442626953125,0.4873046875,-244.0,216.0,-97.0,102379.0,-8.738000869750977,0,0
901.6490229990044,0.628021240234375,-0.497039794921875,0.101409912109375,-0.590057373046875,0.0,-0.1220703125,0.06103515625,0.45947265625,-0.7442626953125,0.4873046875,-244.0,216.0,-97.0,102379.0,-8.738000869750977,0,0
901.6539969990043,0.6280517578125,-0.497039794921875,0.101409912109375,-0.590057373046875,-0.3662109375,0.1220703125,-0.1220703125,0.459716796875,-0.7432861328125,0.4876708984375,-244.0,216.0,-97.0,102379.0,-8.738000869750977,0,0
901.6589939990043,0.6280517578125,-0.497039794921875,0.101409912109375,-0.590057373046875,0.1220703125,0.06103515625,-0.1220703125,0.4599609375,-0.7432861328125,0.48583984375,-244.0,216.0,-97.0,102379.0,-8.738000869750977,0,0
901.6739969990043,0.6280517578125,-0.49700927734375,0.101409912109375,-0.590087890625,-0.1220703125,-0.06103515625,-0.18310546875,0.460205078125,-0.7432861328125,0.488525390625,-244.0,216.0,-97.0,102379.0,-8.738000869750977,0,0
901.6789939990043,0.6280517578125,-0.49700927734375,0.101409912109375,-0.590087890625,0.0,-0.06103515625,0.1220703125,0.4583740234375,-0.743408203125,0.4869384765625,-244.0,216.0,-97.0,102379.0,-8.738000869750977,0,0
901.6839939990043,0.6280517578125,-0.49700927734375,0.101409912109375,-0.590087890625,-0.06103515625,0.1220703125,-0.06103515625,0.4581298828125,-0.744140625,0.48681640625,-244.0,216.0,-97.0,102379.0,-8.738000869750977,0,0
901.6889949990043,0.628173828125,-0.497039794921875,0.101287841796875,-0.589935302734375,-0.06103515625,0.1220703125,-0.06103515625,0.4581298828125,-0.744140625,0.48681640625,-245.0,216.0,-96.0,102379.0,-8.738000869750977,0,0
901.6939969990043,0.628173828125,-0.497039794921875,0.101287841796875,-0.589935302734375,0.0,0.30517578125,0.1220703125,0.459716796875,-0.7421875,0.4864501953125,-245.0,216.0,-96.0,102379.0,-8.738000869750977,0,0
901.6989969990043,0.628173828125,-0.49700927734375,0.101287841796875,-0.589935302734375,-0.1220703125,0.1220703125,-0.1220703125,0.4583740234375,-0.7440185546875,0.486572265625,-245.0,216.0,-96.0,102379.0,-8.738000869750977,0,0
901.7039939990043,0.628173828125,-0.49700927734375,0.101287841796875,-0.589935302734375,0.18310546875,-0.06103515625,-0.06103515625,0.4566650390625,-0.7457275390625,0.485595703125,-245.0,216.0,-96.0,102379.0,-8.738000869750977,0,0
901.7089939990043,0.628173828125,-0.49700927734375,0.101287841796875,-0.589935302734375,0.30517578125,0.1220703125,-0.06103515625,0.4581298828125,-0.7431640625,0.4859619140625,-245.0,216.0,-96.0,102379.0,-8.738000869750977,0,0
901.7130229990042,0.628173828125,-0.49700927734375,0.101287841796875,-0.589935302734375,0.30517578125,0.1220703125,-0.06103515625,0.4581298828125,-0.7431640625,0.4859619140625,-245.0,216.0,-96.0,102379.0,-8.738000869750977,0,0
901.7179929990042,0.628173828125,-0.49700927734375,0.101287841796875,-0.589935302734375,0.18310546875,0.1220703125,-0.1220703125,0.459228515625,-0.742431640625,0.4853515625,-245.0,216.0,-96.0,102379.0,-8.738000869750977,0,0
901.7229939990042,0.628173828125,-0.49700927734375,0.101287841796875,-0.5899658203125,-0.244140625,0.244140625,0.06103515625,0.4608154296875,-0.742431640625,0.4866943359375,-245.0,216.0,-96.0,102379.0,-8.738000869750977,0,0
901.7279959990042,0.628173828125,-0.49700927734375,0.101287841796875,-0.5899658203125,-0.18310546875,0.244140625,-0.1220703125,0.460693359375,-0.743896484375,0.486328125,-245.0,216.0,-96.0,102379.0,-8.738000869750977,0,0
901.7329929990042,0.628204345703125,-0.49700927734375,0.101287841796875,-0.5899658203125,-0.06103515625,0.06103515625,0.1220703125,0.458740234375,-0.7432861328125,0.486328125,-245.0,216.0,-96.0,102379.0,-8.738000869750977,0,0
901.7379929990042,0.628173828125,-0.49700927734375,0.101287841796875,-0.5899658203125,-0.06103515625,0.06103515625,0.1220703125,0.458740234375,-0.7432861328125,0.486328125,-245.0,216.0,-96.0,102378.0,-8.737000465393066,0,0
901.7429939990042,0.628173828125,-0.49700927734375,0.101287841796875,-0.5899658203125,0.3662109375,0.30517578125,-0.18310546875,0.4603271484375,-0.74365234375,0.48583984375,-245.0,216.0,-96.0,102378.0,-8.737000465393066,0,0
901.7479949990042,0.628173828125,-0.49700927734375,0.101287841796875,-0.5899658203125,0.18310546875,0.0,-0.18310546875,0.460205078125,-0.7457275390625,0.483642578125,-245.0,216.0,-96.0,102378.0,-8.737000465393066,0,0
901.7529959990042,0.628204345703125,-0.49700927734375,0.101287841796875,-0.5899658203125,-0.1220703125,0.0,-0.06103515625,0.457763671875,-0.7435302734375,0.486328125,-245.0,216.0,-96.0,102378.0,-8.737000465393066,0,0
901.7579929990042,0.628204345703125,-0.49700927734375,0.101287841796875,-0.5899658203125,0.0,0.06103515625,0.0,0.4581298828125,-0.7449951171875,0.486328125,-245.0,216.0,-96.0,102378.0,-8.737000465393066,0,0
901.7629929990042,0.628204345703125,-0.496978759765625,0.101287841796875,-0.5899658203125,0.0,-0.1220703125,0.0,0.458740234375,-0.742431640625,0.48681640625,-245.0,216.0,-96.0,102378.0,-8.737000465393066,0,0
901.7679939990041,0.628204345703125,-0.496978759765625,0.101287841796875,-0.5899658203125,0.0,-0.1220703125,0.0,0.458740234375,-0.742431640625,0.48681640625,-245.0,216.0,-96.0,102378.0,-8.737000465393066,0,0
901.7729959990041,0.628204345703125,-0.496978759765625,0.101287841796875,-0.5899658203125,0.18310546875,0.18310546875,0.06103515625,0.4599609375,-0.743408203125,0.4852294921875,-245.0,216.0,-96.0,102378.0,-8.737000465393066,0,0
901.7779929990041,0.628204345703125,-0.496978759765625,0.10125732421875,-0.5899658203125,0.06103515625,0.1220703125,0.06103515625,0.45849609375,-0.74169921875,0.48681640625,-245.0,216.0,-96.0,102378.0,-8.737000465393066,0,0
901.7820219990041,0.628204345703125,-0.496978759765625,0.10125732421875,-0.5899658203125,0.06103515625,0.1220703125,0.06103515625,0.45849609375,-0.74169921875,0.48681640625,-245.0,216.0,-96.0,102378.0,-8.737000465393066,0,0
901.796993999004,0.628448486328125,-0.49700927734375,0.101043701171875,-0.589691162109375,0.06103515625,0.1220703125,0.06103515625,0.4578857421875,-0.7427978515625,0.4859619140625,-243.0,216.0,-97.0,102378.0,-8.737000465393066,0,0
901.801994999004,0.628448486328125,-0.49700927734375,0.101043701171875,-0.589691162109375,-0.06103515625,0.06103515625,-0.244140625,0.45947265625,-0.743896484375,0.485595703125,-243.0,216.0,-97.0,102378.0,-8.737000465393066,0,0
901.806995999004,0.628448486328125,-0.49700927734375,0.101043701171875,-0.589691162109375,0.244140625,0.0,-0.06103515625,0.461669921875,-0.741455078125,0.486328125,-243.0,216.0,-97.0,102378.0,-8.737000465393066,0,0
901.811992999004,0.628448486328125,-0.49700927734375,0.101043701171875,-0.5897216796875,-0.244140625,0.3662109375,0.06103515625,0.45751953125,-0.7437744140625,0.487060546875,-243.0,216.0,-97.0,102378.0,-8.737000465393066,0,0
901.816992999004,0.628448486328125,-0.49700927734375,0.101043701171875,-0.589691162109375,-0.18310546875,0.1220703125,0.0,0.46142578125,-0.7440185546875,0.48681640625,-243.0,216.0,-97.0,102378.0,-8.737000465393066,0,0
901.821993999004,0.62847900390625,-0.496978759765625,0.101043701171875,-0.5897216796875,0.06103515625,0.1220703125,-0.18310546875,0.458251953125,-0.7445068359375,0.486083984375,-243.0,216.0,-97.0,102378.0,-8.737000465393066,0,0
901.826995999004,0.62847900390625,-0.496978759765625,0.101043701171875,-0.5897216796875,-0.06103515625,0.0,-0.1220703125,0.458984375,-0.7420654296875,0.488037109375,-243.0,216.0,-97.0,102378.0,-8.737000465393066,0,0
901.831992999004,0.62847900390625,-0.496978759765625,0.101043701171875,-0.5897216796875,-0.18310546875,0.1220703125,0.1220703125,0.4603271484375,-0.7435302734375,0.487548828125,-243.0,216.0,-97.0,102379.0,-8.73900032043457,0,0
901.836992999004,0.62847900390625,-0.496978759765625,0.101043701171875,-0.5897216796875,0.30517578125,0.30517578125,-0.18310546875,0.4595947265625,-0.7431640625,0.4869384765625,-243.0,216.0,-97.0,102379.0,-8.73900032043457,0,0
901.841993999004,0.62847900390625,-0.496978759765625,0.101043701171875,-0.5897216796875,0.06103515625,0.1220703125,-0.06103515625,0.4573974609375,-0.74267578125,0.4866943359375,-243.0,216.0,-97.0,102379.0,-8.73900032043457,0,0
901.8460229990039,0.62847900390625,-0.496978759765625,0.101043701171875,-0.5897216796875,0.06103515625,0.1220703125,-0.06103515625,0.4573974609375,-0.74267578125,0.4866943359375,-243.0,216.0,-97.0,102379.0,-8.73900032043457,0,0
901.8609969990039,0.62847900390625,-0.496978759765625,0.101043701171875,-0.5897216796875,-0.1220703125,0.06103515625,0.06103515625,0.4581298828125,-0.7432861328125,0.4871826171875,-243.0,216.0,-97.0,102379.0,-8.73900032043457,0,0
901.8659939990039,0.62847900390625,-0.4969482421875,0.101043701171875,-0.5897216796875,0.06103515625,0.06103515625,0.0,0.4569091796875,-0.744873046875,0.486328125,-243.0,216.0,-97.0,102379.0,-8.73900032043457,0,0
901.8709939990039,0.62847900390625,-0.4969482421875,0.101043701171875,-0.5897216796875,0.244140625,0.06103515625,0.0,0.458251953125,-0.7427978515625,0.4874267578125,-243.0,216.0,-97.0,102379.0,-8.73900032043457,0,0
901.8759939990039,0.62847900390625,-0.4969482421875,0.101043701171875,-0.5897216796875,-0.06103515625,0.18310546875,0.0,0.4586181640625,-0.74365234375,0.4864501953125,-243.0,216.0,-97.0,102379.0,-8.73900032043457,0,0
901.8809969990039,0.62847900390625,-0.4969482421875,0.101043701171875,-0.5897216796875,-0.18310546875,0.06103515625,0.06103515625,0.45947265625,-0.742919921875,0.4866943359375,-243.0,216.0,-97.0,102379.0,-8.73900032043457,0,0
901.8859939990039,0.62847900390625,-0.4969482421875,0.10101318359375,-0.589752197265625,-0.42724609375,-0.18310546875,0.18310546875,0.4603271484375,-0.7440185546875,0.4876708984375,-243.0,216.0,-97.0,102379.0,-8.73900032043457,0,0
901.8909939990039,0.62847900390625,-0.4969482421875,0.10101318359375,-0.589752197265625,0.0,0.06103515625,0.0,0.4573974609375,-0.7432861328125,0.4862060546875,-243.0,216.0,-98.0,102379.0,-8.73900032043457,0,0
901.8959949990038,0.62847900390625,-0.4969482421875,0.10101318359375,-0.589752197265625,0.0,0.0,0.30517578125,0.4600830078125,-0.7427978515625,0.485595703125,-243.0,216.0,-98.0,102379.0,-8.73900032043457,0,0
901.9009969990038,0.62847900390625,-0.4969482421875,0.10101318359375,-0.589752197265625,-0.30517578125,0.0,0.0,0.459716796875,-0.7425537109375,0.4857177734375,-243.0,216.0,-98.0,102379.0,-8.73900032043457,0,0
901.9059969990038,0.62847900390625,-0.4969482421875,0.10101318359375,-0.589752197265625,0.18310546875,0.06103515625,-0.1220703125,0.4600830078125,-0.742919921875,0.4866943359375,-243.0,216.0,-98.0,102379.0,-8.73900032043457,0,0
901.9109939990038,0.62847900390625,-0.4969482421875,0.10101318359375,-0.589752197265625,-0.30517578125,0.06103515625,0.1220703125,0.46142578125,-0.7447509765625,0.488525390625,-243.0,216.0,-98.0,102379.0,-8.73900032043457,0,0
901.9150239990038,0.62847900390625,-0.4969482421875,0.10101318359375,-0.589752197265625,-0.30517578125,0.06103515625,0.1220703125,0.46142578125,-0.7447509765625,0.488525390625,-243.0,216.0,-98.0,102379.0,-8.73900032043457,0,0
901.9199939990037,0.62847900390625,-0.4969482421875,0.10101318359375,-0.589752197265625,-0.1220703125,0.0,0.1220703125,0.459228515625,-0.7423095703125,0.485107421875,-243.0,216.0,-98.0,102379.0,-8.73900032043457,0,0
901.9249929990037,0.62847900390625,-0.496917724609375,0.10101318359375,-0.589752197265625,-0.1220703125,0.06103515625,-0.06103515625,0.4595947265625,-0.7418212890625,0.4873046875,-243.0,216.0,-98.0,102379.0,-8.73900032043457,0,0
901.9299939990037,0.62847900390625,-0.496917724609375,0.10101318359375,-0.589752197265625,0.1220703125,0.18310546875,0.0,0.4600830078125,-0.74365234375,0.488525390625,-243.0,216.0,-98.0,102379.0,-8.73900032043457,0,0
901.9349959990037,0.62847900390625,-0.496917724609375,0.10101318359375,-0.589752197265625,-0.1220703125,0.30517578125,-0.18310546875,0.458740234375,-0.7431640625,0.48486328125,-243.0,216.0,-98.0,102378.0,-8.738000869750977,0,0
901.9399929990037,0.62847900390625,-0.496917724609375,0.10101318359375,-0.589752197265625,-0.244140625,0.244140625,0.0,0.4588623046875,-0.7430419921875,0.484619140625,-243.0,216.0,-98.0,102378.0,-8.738000869750977,0,0
901.9449929990037,0.62847900390625,-0.496917724609375,0.100982666015625,-0.589752197265625,-0.1220703125,0.06103515625,0.0,0.4588623046875,-0.74462890625,0.4869384765625,-243.0,216.0,-98.0,102378.0,-8.738000869750977,0,0
901.9499939990037,0.62847900390625,-0.496917724609375,0.100982666015625,-0.589752197265625,-0.1220703125,0.06103515625,-0.06103515625,0.461181640625,-0.7440185546875,0.4852294921875,-243.0,216.0,-98.0,102378.0,-8.738000869750977,0,0
901.9549949990037,0.62847900390625,-0.496917724609375,0.100982666015625,-0.589752197265625,0.18310546875,0.18310546875,0.0,0.4588623046875,-0.744384765625,0.4869384765625,-243.0,216.0,-98.0,102378.0,-8.738000869750977,0,0
901.9599919990037,0.628509521484375,-0.496917724609375,0.100982666015625,-0.589752197265625,-0.244140625,0.06103515625,0.06103515625,0.4581298828125,-0.7435302734375,0.48779296875,-243.0,216.0,-98.0,102378.0,-8.738000869750977,0,0
901.9649929990037,0.628509521484375,-0.496917724609375,0.100982666015625,-0.589752197265625,-0.06103515625,0.0,-0.1220703125,0.4603271484375,-0.7427978515625,0.48583984375,-243.0,216.0,-98.0,102378.0,-8.738000869750977,0,0
901.9699929990037,0.628509521484375,-0.496917724609375,0.100982666015625,-0.589752197265625,0.1220703125,0.3662109375,0.18310546875,0.460205078125,-0.741943359375,0.48583984375,-243.0,216.0,-98.0,102378.0,-8.738000869750977,0,0
901.9839939990037,0.628509521484375,-0.49688720703125,0.100982666015625,-0.58978271484375,-0.18310546875,0.18310546875,-0.244140625,0.45849609375,-0.7430419921875,0.48779296875,-243.0,216.0,-98.0,102378.0,-8.738000869750977,0,0
901.9889959990037,0.628509521484375,-0.49688720703125,0.100982666015625,-0.58978271484375,-0.3662109375,0.244140625,0.0,0.4603271484375,-0.7452392578125,0.48828125,-243.0,216.0,-98.0,102378.0,-8.738000869750977,0,0
901.9939929990037,0.628509521484375,-0.49688720703125,0.100982666015625,-0.58978271484375,-0.06103515625,0.18310546875,0.1220703125,0.4588623046875,-0.74560546875,0.4874267578125,-243.0,216.0,-98.0,102378.0,-8.738000869750977,0,0
901.9989929990037,0.628509521484375,-0.49688720703125,0.100982666015625,-0.58978271484375,0.1220703125,-0.06103515625,-0.18310546875,0.4583740234375,-0.743896484375,0.488037109375,-243.0,216.0,-98.0,102378.0,-8.738000869750977,0,0
902.0039939990037,0.628509521484375,-0.49688720703125,0.100982666015625,-0.58978271484375,-0.18310546875,0.06103515625,-0.06103515625,0.4578857421875,-0.74462890625,0.4849853515625,-243.0,216.0,-98.0,102378.0,-8.738000869750977,0,0
902.0089949990037,0.628509521484375,-0.49688720703125,0.100982666015625,-0.58978271484375,0.244140625,0.244140625,-0.06103515625,0.4569091796875,-0.74267578125,0.486572265625,-243.0,216.0,-98.0,102378.0,-8.738000869750977,0,0
902.0139919990037,0.628509521484375,-0.49688720703125,0.100982666015625,-0.58978271484375,0.0,0.3662109375,-0.18310546875,0.4591064453125,-0.7431640625,0.488037109375,-243.0,216.0,-98.0,102378.0,-8.738000869750977,0,0
902.0189929990037,0.628509521484375,-0.496856689453125,0.100982666015625,-0.58978271484375,0.42724609375,0.06103515625,-0.1220703125,0.4580078125,-0.7427978515625,0.487548828125,-243.0,216.0,-98.0,102378.0,-8.738000869750977,0,0
902.0239929990037,0.628509521484375,-0.496856689453125,0.100982666015625,-0.58978271484375,-0.06103515625,0.0,0.0,0.4583740234375,-0.7445068359375,0.486083984375,-243.0,216.0,-98.0,102378.0,-8.738000869750977,0,0
902.0289939990037,0.628509521484375,-0.496856689453125,0.100982666015625,-0.58978271484375,-0.06103515625,0.0,-0.1220703125,0.459716796875,-0.742919921875,0.4857177734375,-243.0,216.0,-98.0,102378.0,-8.738000869750977,0,0
902.0339959990037,0.628509521484375,-0.496856689453125,0.100982666015625,-0.58978271484375,-0.06103515625,0.0,-0.1220703125,0.459716796875,-0.742919921875,0.4857177734375,-243.0,216.0,-98.0,102379.0,-8.73900032043457,0,0
902.0480219990036,0.628509521484375,-0.496856689453125,0.100982666015625,-0.58978271484375,-0.42724609375,0.18310546875,0.0,0.458251953125,-0.7445068359375,0.4864501953125,-243.0,216.0,-98.0,102379.0,-8.73900032043457,0,0
902.0529929990035,0.628509521484375,-0.496856689453125,0.100982666015625,-0.58978271484375,-0.06103515625,0.06103515625,-0.18310546875,0.460205078125,-0.742431640625,0.4864501953125,-243.0,216.0,-98.0,102379.0,-8.73900032043457,0,0
902.0579939990035,0.628509521484375,-0.496856689453125,0.100982666015625,-0.58978271484375,-0.18310546875,0.18310546875,-0.18310546875,0.4598388671875,-0.742431640625,0.4857177734375,-243.0,216.0,-98.0,102379.0,-8.73900032043457,0,0
902.0629949990035,0.628509521484375,-0.496856689453125,0.100982666015625,-0.58978271484375,0.06103515625,0.244140625,0.0,0.460205078125,-0.7430419921875,0.4862060546875,-243.0,216.0,-98.0,102379.0,-8.73900032043457,0,0
902.0679919990035,0.628509521484375,-0.496856689453125,0.100982666015625,-0.58978271484375,-0.1220703125,0.0,-0.18310546875,0.46044921875,-0.745849609375,0.4876708984375,-243.0,216.0,-98.0,102379.0,-8.73900032043457,0,0
902.0729939990035,0.628509521484375,-0.496856689453125,0.100982666015625,-0.58978271484375,-0.06103515625,0.30517578125,0.18310546875,0.4588623046875,-0.74658203125,0.4854736328125,-243.0,216.0,-98.0,102379.0,-8.73900032043457,0,0
902.0779939990035,0.628509521484375,-0.496856689453125,0.100982666015625,-0.58978271484375,-0.1220703125,0.1220703125,-0.1220703125,0.4588623046875,-0.7442626953125,0.486083984375,-243.0,216.0,-98.0,102379.0,-8.73900032043457,0,0
902.0829939990035,0.628509521484375,-0.496856689453125,0.100982666015625,-0.58978271484375,0.0,0.30517578125,-0.06103515625,0.4588623046875,-0.7423095703125,0.4866943359375,-244.0,217.0,-98.0,102379.0,-8.73900032043457,0,0
902.0879969990035,0.628509521484375,-0.496856689453125,0.100982666015625,-0.58978271484375,-0.18310546875,0.06103515625,-0.18310546875,0.458740234375,-0.74365234375,0.4857177734375,-244.0,217.0,-98.0,102379.0,-8.73900032043457,0,0
902.0929939990035,0.628662109375,-0.49688720703125,0.10089111328125,-0.589630126953125,-0.1220703125,-0.06103515625,-0.1220703125,0.4583740234375,-0.742431640625,0.485595703125,-244.0,217.0,-98.0,102379.0,-8.73900032043457,0,0
902.0979939990035,0.628662109375,-0.49688720703125,0.10089111328125,-0.589630126953125,-0.06103515625,0.06103515625,0.0,0.4605712890625,-0.7449951171875,0.486328125,-244.0,217.0,-98.0,102379.0,-8.73900032043457,0,0
902.1029949990035,0.628662109375,-0.49688720703125,0.10089111328125,-0.589630126953125,0.0,0.30517578125,0.0,0.4580078125,-0.7445068359375,0.486572265625,-244.0,217.0,-98.0,102379.0,-8.73900032043457,0,0
902.1079969990035,0.628662109375,-0.49688720703125,0.10089111328125,-0.58966064453125,0.06103515625,0.18310546875,-0.06103515625,0.4622802734375,-0.7437744140625,0.4854736328125,-244.0,217.0,-98.0,102379.0,-8.73900032043457,0,0
902.1120269990034,0.628662109375,-0.49688720703125,0.10089111328125,-0.58966064453125,0.06103515625,0.18310546875,-0.06103515625,0.4622802734375,-0.7437744140625,0.4854736328125,-244.0,217.0,-98.0,102379.0,-8.73900032043457,0,0
902.1169979990034,0.628662109375,-0.496856689453125,0.10089111328125,-0.58966064453125,-0.18310546875,0.0,-0.06103515625,0.4576416015625,-0.74267578125,0.4871826171875,-244.0,217.0,-98.0,102379.0,-8.73900032043457,0,0
902.1219959990034,0.628662109375,-0.496856689453125,0.10089111328125,-0.58966064453125,0.1220703125,0.06103515625,-0.06103515625,0.4571533203125,-0.7423095703125,0.4873046875,-244.0,217.0,-98.0,102379.0,-8.73900032043457,0,0
902.1269939990034,0.628662109375,-0.496856689453125,0.10089111328125,-0.58966064453125,0.18310546875,0.06103515625,0.06103515625,0.45947265625,-0.74267578125,0.48583984375,-244.0,217.0,-98.0,102379.0,-8.73900032043457,0,0
902.1319939990034,0.628662109375,-0.496856689453125,0.10089111328125,-0.58966064453125,-0.1220703125,0.1220703125,0.0,0.458740234375,-0.7449951171875,0.4876708984375,-244.0,217.0,-98.0,102379.0,-8.73900032043457,0,0
902.1369939990034,0.628662109375,-0.496856689453125,0.10089111328125,-0.58966064453125,-0.1220703125,0.18310546875,0.18310546875,0.459716796875,-0.74560546875,0.4852294921875,-244.0,217.0,-98.0,102379.0,-8.73900032043457,0,0
902.1419959990034,0.628662109375,-0.496856689453125,0.10089111328125,-0.58966064453125,-0.244140625,0.06103515625,-0.1220703125,0.4588623046875,-0.7432861328125,0.4869384765625,-244.0,217.0,-98.0,102379.0,-8.73900032043457,0,0
902.1469929990034,0.628662109375,-0.496856689453125,0.10089111328125,-0.58966064453125,-0.244140625,0.0,0.06103515625,0.4610595703125,-0.7451171875,0.4876708984375,-244.0,217.0,-98.0,102379.0,-8.73900032043457,0,0
902.1519929990034,0.628662109375,-0.496856689453125,0.10089111328125,-0.58966064453125,-0.1220703125,0.06103515625,0.06103515625,0.4586181640625,-0.743896484375,0.4876708984375,-244.0,217.0,-98.0,102379.0,-8.73900032043457,0,0
902.1569939990034,0.628662109375,-0.496856689453125,0.10089111328125,-0.58966064453125,-0.18310546875,0.30517578125,-0.06103515625,0.4583740234375,-0.7431640625,0.487060546875,-244.0,217.0,-98.0,102379.0,-8.73900032043457,0,0
902.1719929990034,0.628662109375,-0.496856689453125,0.100860595703125,-0.58966064453125,0.18310546875,0.0,-0.30517578125,0.4591064453125,-0.7445068359375,0.4879150390625,-244.0,217.0,-98.0,102379.0,-8.73900032043457,0,0
902.1769929990033,0.628662109375,-0.496856689453125,0.100860595703125,-0.58966064453125,-0.1220703125,0.1220703125,0.1220703125,0.4593505859375,-0.743896484375,0.486328125,-244.0,217.0,-98.0,102379.0,-8.73900032043457,0,0
902.1810219990033,0.628662109375,-0.496856689453125,0.100860595703125,-0.58966064453125,-0.1220703125,0.1220703125,0.1220703125,0.4593505859375,-0.743896484375,0.486328125,-244.0,217.0,-98.0,102379.0,-8.73900032043457,0,0
902.1859929990032,0.628662109375,-0.496826171875,0.100860595703125,-0.58966064453125,-0.18310546875,0.3662109375,0.30517578125,0.4600830078125,-0.7432861328125,0.4864501953125,-245.0,217.0,-98.0,102379.0,-8.73900032043457,0,0
902.1909939990032,0.6287841796875,-0.496856689453125,0.10076904296875,-0.58953857421875,-0.54931640625,0.1220703125,-0.30517578125,0.4593505859375,-0.7431640625,0.486083984375,-245.0,217.0,-98.0,102379.0,-8.73900032043457,0,0
902.1959959990032,0.6287841796875,-0.496856689453125,0.10076904296875,-0.58953857421875,0.06103515625,0.3662109375,-0.06103515625,0.45849609375,-0.7447509765625,0.486083984375,-245.0,217.0,-98.0,102379.0,-8.73900032043457,0,0
902.2009929990032,0.6287841796875,-0.496856689453125,0.10076904296875,-0.58953857421875,-0.06103515625,-0.06103515625,-0.1220703125,0.4566650390625,-0.7412109375,0.4849853515625,-245.0,217.0,-98.0,102379.0,-8.73900032043457,0,0
902.2059929990032,0.628814697265625,-0.496856689453125,0.10076904296875,-0.58953857421875,-0.06103515625,0.1220703125,-0.1220703125,0.4566650390625,-0.7440185546875,0.4873046875,-245.0,217.0,-98.0,102379.0,-8.73900032043457,0,0
902.2109939990032,0.628814697265625,-0.496856689453125,0.10076904296875,-0.58953857421875,0.1220703125,0.1220703125,0.06103515625,0.459716796875,-0.7427978515625,0.486328125,-245.0,217.0,-98.0,102379.0,-8.73900032043457,0,0
902.2159949990032,0.628814697265625,-0.496856689453125,0.10076904296875,-0.58953857421875,-0.18310546875,0.18310546875,-0.30517578125,0.4593505859375,-0.743408203125,0.487548828125,-245.0,217.0,-98.0,102379.0,-8.73900032043457,0,0
902.2309929990032,0.628814697265625,-0.496826171875,0.10076904296875,-0.58953857421875,-0.18310546875,0.06103515625,0.18310546875,0.4578857421875,-0.7435302734375,0.4857177734375,-245.0,217.0,-98.0,102379.0,-8.73900032043457,0,0
902.2359939990032,0.628814697265625,-0.496826171875,0.10076904296875,-0.58953857421875,-0.18310546875,0.18310546875,-0.06103515625,0.45654296875,-0.743896484375,0.4862060546875,-245.0,217.0,-98.0,102379.0,-8.741000175476074,0,0
902.2409959990032,0.628814697265625,-0.496826171875,0.10076904296875,-0.58953857421875,-0.18310546875,0.18310546875,0.18310546875,0.45849609375,-0.7442626953125,0.488037109375,-245.0,217.0,-98.0,102379.0,-8.741000175476074,0,0
902.2450279990032,0.628814697265625,-0.496826171875,0.10076904296875,-0.58953857421875,-0.18310546875,0.18310546875,0.18310546875,0.45849609375,-0.7442626953125,0.488037109375,-245.0,217.0,-98.0,102379.0,-8.741000175476074,0,0
902.2499959990032,0.628814697265625,-0.496826171875,0.10076904296875,-0.58953857421875,0.0,0.1220703125,0.0,0.457275390625,-0.7423095703125,0.487548828125,-245.0,217.0,-98.0,102379.0,-8.741000175476074,0,0
902.2549929990032,0.628814697265625,-0.496826171875,0.10076904296875,-0.58953857421875,-0.1220703125,0.18310546875,0.0,0.45703125,-0.74560546875,0.4874267578125,-245.0,217.0,-98.0,102379.0,-8.741000175476074,0,0
902.2599929990032,0.628814697265625,-0.496826171875,0.10076904296875,-0.58953857421875,-0.30517578125,0.06103515625,-0.18310546875,0.459716796875,-0.7447509765625,0.4884033203125,-245.0,217.0,-98.0,102379.0,-8.741000175476074,0,0
902.2649939990032,0.628814697265625,-0.496826171875,0.10076904296875,-0.58953857421875,-0.1220703125,0.18310546875,-0.1220703125,0.4581298828125,-0.7427978515625,0.4852294921875,-245.0,217.0,-98.0,102379.0,-8.741000175476074,0,0
902.2699949990032,0.628814697265625,-0.496795654296875,0.10076904296875,-0.58953857421875,-0.18310546875,0.244140625,0.1220703125,0.4588623046875,-0.7437744140625,0.4864501953125,-245.0,217.0,-98.0,102379.0,-8.741000175476074,0,0
902.2749929990032,0.628814697265625,-0.496795654296875,0.10076904296875,-0.58953857421875,-0.06103515625,0.30517578125,0.0,0.4595947265625,-0.7451171875,0.487548828125,-245.0,217.0,-98.0,102379.0,-8.741000175476074,0,0
902.2799929990032,0.628814697265625,-0.496795654296875,0.10076904296875,-0.58953857421875,0.1220703125,0.18310546875,-0.06103515625,0.459716796875,-0.744140625,0.4873046875,-245.0,217.0,-98.0,102379.0,-8.741000175476074,0,0
902.2849939990032,0.628814697265625,-0.496795654296875,0.10076904296875,-0.58953857421875,-0.244140625,0.30517578125,0.06103515625,0.4593505859375,-0.742431640625,0.4871826171875,-246.0,218.0,-99.0,102379.0,-8.741000175476074,0,0
902.2899939990032,0.628814697265625,-0.496795654296875,0.10076904296875,-0.58953857421875,-0.30517578125,-0.1220703125,0.0,0.4580078125,-0.7418212890625,0.488525390625,-246.0,218.0,-99.0,102379.0,-8.741000175476074,0,0
902.2949959990032,0.62884521484375,-0.496795654296875,0.10076904296875,-0.58953857421875,-0.1220703125,0.3662109375,-0.1220703125,0.4560546875,-0.7437744140625,0.4859619140625,-246.0,218.0,-99.0,102379.0,-8.741000175476074,0,0
902.2999939990032,0.62884521484375,-0.496795654296875,0.10076904296875,-0.58953857421875,-0.1220703125,0.18310546875,-0.06103515625,0.4578857421875,-0.7442626953125,0.488037109375,-246.0,218.0,-99.0,102379.0,-8.741000175476074,0,0
902.3049939990032,0.62884521484375,-0.496795654296875,0.10076904296875,-0.58953857421875,-0.244140625,0.18310546875,-0.18310546875,0.4599609375,-0.7440185546875,0.48583984375,-246.0,218.0,-99.0,102379.0,-8.741000175476074,0,0
902.3099949990032,0.62884521484375,-0.49676513671875,0.10076904296875,-0.58953857421875,-0.06103515625,0.30517578125,0.0,0.4599609375,-0.7432861328125,0.487548828125,-246.0,218.0,-99.0,102379.0,-8.741000175476074,0,0
902.3140249990031,0.62884521484375,-0.49676513671875,0.10076904296875,-0.58953857421875,-0.06103515625,0.30517578125,0.0,0.4599609375,-0.7432861328125,0.487548828125,-246.0,218.0,-99.0,102379.0,-8.741000175476074,0,0
902.318995999003,0.62884521484375,-0.49676513671875,0.10076904296875,-0.58953857421875,-0.18310546875,0.1220703125,-0.1220703125,0.4576416015625,-0.7425537109375,0.4884033203125,-246.0,218.0,-99.0,102379.0,-8.741000175476074,0,0
902.323996999003,0.62884521484375,-0.49676513671875,0.10076904296875,-0.58953857421875,0.18310546875,0.1220703125,0.0,0.45849609375,-0.7425537109375,0.4879150390625,-246.0,218.0,-99.0,102379.0,-8.741000175476074,0,0
902.328996999003,0.62884521484375,-0.49676513671875,0.10076904296875,-0.58953857421875,-0.06103515625,0.06103515625,0.1220703125,0.460693359375,-0.744140625,0.4852294921875,-246.0,218.0,-99.0,102379.0,-8.741000175476074,0,0
902.333993999003,0.62884521484375,-0.49676513671875,0.10076904296875,-0.58953857421875,-0.42724609375,0.244140625,-0.1220703125,0.4573974609375,-0.742919921875,0.485595703125,-246.0,218.0,-99.0,102378.0,-8.737000465393066,0,0
902.338993999003,0.62884521484375,-0.49676513671875,0.10076904296875,-0.58953857421875,0.0,0.18310546875,-0.06103515625,0.4588623046875,-0.7432861328125,0.488037109375,-246.0,218.0,-99.0,102378.0,-8.737000465393066,0,0
902.353992999003,0.62884521484375,-0.496734619140625,0.10076904296875,-0.589569091796875,-0.06103515625,0.18310546875,-0.06103515625,0.457275390625,-0.7423095703125,0.4871826171875,-246.0,218.0,-99.0,102378.0,-8.737000465393066,0,0
902.358992999003,0.62884521484375,-0.496734619140625,0.10076904296875,-0.589569091796875,-0.1220703125,0.18310546875,-0.06103515625,0.4591064453125,-0.7423095703125,0.4876708984375,-246.0,218.0,-99.0,102378.0,-8.737000465393066,0,0
902.363993999003,0.62884521484375,-0.496734619140625,0.10076904296875,-0.589569091796875,0.1220703125,0.244140625,0.244140625,0.459228515625,-0.7425537109375,0.4874267578125,-246.0,218.0,-99.0,102378.0,-8.737000465393066,0,0
902.368994999003,0.628875732421875,-0.496734619140625,0.10076904296875,-0.589569091796875,-0.06103515625,0.0,0.06103515625,0.4581298828125,-0.7435302734375,0.4879150390625,-246.0,218.0,-99.0,102378.0,-8.737000465393066,0,0
902.373991999003,0.628875732421875,-0.4967041015625,0.10076904296875,-0.589569091796875,0.06103515625,0.06103515625,-0.18310546875,0.458740234375,-0.74267578125,0.489501953125,-246.0,218.0,-99.0,102378.0,-8.737000465393066,0,0
902.378020999003,0.628875732421875,-0.4967041015625,0.10076904296875,-0.589569091796875,0.06103515625,0.06103515625,-0.18310546875,0.458740234375,-0.74267578125,0.489501953125,-246.0,218.0,-99.0,102378.0,-8.737000465393066,0,0
902.3829959990029,0.628875732421875,-0.4967041015625,0.10076904296875,-0.589569091796875,-0.1220703125,0.244140625,-0.18310546875,0.457275390625,-0.7431640625,0.488037109375,-246.0,218.0,-99.0,102378.0,-8.737000465393066,0,0
902.3879929990029,0.628997802734375,-0.496734619140625,0.10064697265625,-0.589447021484375,0.06103515625,0.1220703125,0.0,0.4598388671875,-0.7435302734375,0.48583984375,-246.0,218.0,-99.0,102378.0,-8.737000465393066,0,0
902.3929929990029,0.628997802734375,-0.496734619140625,0.10064697265625,-0.589447021484375,0.18310546875,0.06103515625,0.06103515625,0.4580078125,-0.7420654296875,0.4857177734375,-246.0,218.0,-99.0,102378.0,-8.737000465393066,0,0
902.3979939990029,0.628997802734375,-0.496734619140625,0.10064697265625,-0.589447021484375,-0.1220703125,-0.1220703125,-0.18310546875,0.4583740234375,-0.7427978515625,0.4869384765625,-246.0,218.0,-99.0,102378.0,-8.737000465393066,0,0
902.4029959990029,0.628997802734375,-0.4967041015625,0.10064697265625,-0.589447021484375,0.18310546875,0.244140625,0.244140625,0.4583740234375,-0.7445068359375,0.487548828125,-246.0,218.0,-99.0,102378.0,-8.737000465393066,0,0
902.4179939990029,0.628997802734375,-0.4967041015625,0.10064697265625,-0.589447021484375,0.06103515625,0.1220703125,0.244140625,0.4588623046875,-0.7410888671875,0.486572265625,-246.0,218.0,-99.0,102378.0,-8.737000465393066,0,0
902.4229949990029,0.628997802734375,-0.4967041015625,0.10064697265625,-0.589447021484375,-0.06103515625,0.18310546875,0.1220703125,0.458984375,-0.7467041015625,0.4866943359375,-246.0,218.0,-99.0,102378.0,-8.737000465393066,0,0
902.4279919990029,0.628997802734375,-0.4967041015625,0.10064697265625,-0.589447021484375,0.244140625,0.30517578125,0.0,0.4576416015625,-0.74462890625,0.488525390625,-246.0,218.0,-99.0,102378.0,-8.737000465393066,0,0
902.4329929990029,0.628997802734375,-0.4967041015625,0.10064697265625,-0.589447021484375,-0.18310546875,0.18310546875,0.0,0.4588623046875,-0.7425537109375,0.4886474609375,-246.0,218.0,-99.0,102378.0,-8.737000465393066,0,0
902.4379929990029,0.6290283203125,-0.4967041015625,0.10064697265625,-0.589447021484375,-0.6103515625,-0.06103515625,-0.06103515625,0.4598388671875,-0.742431640625,0.4884033203125,-246.0,218.0,-99.0,102379.0,-8.73900032043457,0,0
902.4429939990029,0.6290283203125,-0.4967041015625,0.10064697265625,-0.589447021484375,-0.18310546875,0.0,0.0,0.4593505859375,-0.7431640625,0.4869384765625,-246.0,218.0,-99.0,102379.0,-8.73900032043457,0,0
902.4470259990029,0.6290283203125,-0.4967041015625,0.10064697265625,-0.589447021484375,-0.18310546875,0.0,0.0,0.4593505859375,-0.7431640625,0.4869384765625,-246.0,218.0,-99.0,102379.0,-8.73900032043457,0,0
902.4519939990029,0.6290283203125,-0.496673583984375,0.10064697265625,-0.589447021484375,0.244140625,-0.18310546875,-0.1220703125,0.4608154296875,-0.744384765625,0.4876708984375,-246.0,218.0,-99.0,102379.0,-8.73900032043457,0,0
902.4569959990029,0.6290283203125,-0.496673583984375,0.10064697265625,-0.589447021484375,-0.18310546875,0.0,-0.1220703125,0.45849609375,-0.743896484375,0.4866943359375,-246.0,218.0,-99.0,102379.0,-8.73900032043457,0,0
902.4619929990029,0.628997802734375,-0.4967041015625,0.10064697265625,-0.589447021484375,0.06103515625,0.1220703125,-0.06103515625,0.4603271484375,-0.74462890625,0.48779296875,-246.0,218.0,-99.0,102379.0,-8.73900032043457,0,0
902.4669929990029,0.628997802734375,-0.4967041015625,0.10064697265625,-0.589447021484375,-0.06103515625,0.18310546875,-0.3662109375,0.459716796875,-0.7445068359375,0.4869384765625,-246.0,218.0,-99.0,102379.0,-8.73900032043457,0,0
902.4719939990028,0.6290283203125,-0.496673583984375,0.10064697265625,-0.589447021484375,-0.1220703125,0.06103515625,-0.06103515625,0.4576416015625,-0.7437744140625,0.48828125,-246.0,218.0,-99.0,102379.0,-8.73900032043457,0,0
902.4769949990028,0.6290283203125,-0.496673583984375,0.10064697265625,-0.589447021484375,-0.06103515625,0.30517578125,0.06103515625,0.458984375,-0.744140625,0.4888916015625,-246.0,218.0,-99.0,102379.0,-8.73900032043457,0,0
902.4819919990028,0.6290283203125,-0.496673583984375,0.100616455078125,-0.5894775390625,-0.18310546875,-0.1220703125,-0.18310546875,0.4615478515625,-0.7442626953125,0.4871826171875,-246.0,218.0,-99.0,102379.0,-8.73900032043457,0,0
902.4869929990028,0.6290283203125,-0.496673583984375,0.100616455078125,-0.5894775390625,-0.18310546875,-0.1220703125,-0.18310546875,0.4615478515625,-0.7442626953125,0.4871826171875,-246.0,218.0,-99.0,102379.0,-8.73900032043457,0,0
902.4919929990028,0.629150390625,-0.4967041015625,0.10052490234375,-0.589324951171875,0.1220703125,0.42724609375,-0.42724609375,0.4599609375,-0.744873046875,0.4866943359375,-246.0,218.0,-99.0,102379.0,-8.73900032043457,0,0
902.4969939990028,0.629150390625,-0.4967041015625,0.10052490234375,-0.589324951171875,0.06103515625,0.244140625,0.1220703125,0.458251953125,-0.74365234375,0.487060546875,-246.0,218.0,-99.0,102379.0,-8.73900032043457,0,0
902.5019959990028,0.629150390625,-0.4967041015625,0.10052490234375,-0.589324951171875,-0.30517578125,-0.18310546875,-0.1220703125,0.4578857421875,-0.743896484375,0.4881591796875,-246.0,218.0,-99.0,102379.0,-8.73900032043457,0,0
902.5069939990028,0.629150390625,-0.496673583984375,0.100494384765625,-0.58935546875,0.18310546875,-0.06103515625,0.0,0.4608154296875,-0.740234375,0.4896240234375,-246.0,218.0,-99.0,102379.0,-8.73900032043457,0,0
902.5110239990028,0.629150390625,-0.496673583984375,0.100494384765625,-0.58935546875,0.18310546875,-0.06103515625,0.0,0.4608154296875,-0.740234375,0.4896240234375,-246.0,218.0,-99.0,102379.0,-8.73900032043457,0,0
902.5159939990027,0.629150390625,-0.496673583984375,0.100494384765625,-0.58935546875,0.1220703125,-0.1220703125,0.1220703125,0.4600830078125,-0.744873046875,0.48779296875,-246.0,218.0,-99.0,102379.0,-8.73900032043457,0,0
902.5209939990027,0.629150390625,-0.496673583984375,0.100494384765625,-0.58935546875,-0.1220703125,-0.1220703125,0.0,0.4586181640625,-0.743408203125,0.486572265625,-246.0,218.0,-99.0,102379.0,-8.73900032043457,0,0
902.5259949990027,0.629150390625,-0.496673583984375,0.100494384765625,-0.58935546875,0.0,0.0,-0.18310546875,0.456787109375,-0.74267578125,0.48681640625,-246.0,218.0,-99.0,102379.0,-8.73900032043457,0,0
902.5409939990027,0.629150390625,-0.496673583984375,0.100494384765625,-0.58935546875,0.0,0.06103515625,0.1220703125,0.4600830078125,-0.7427978515625,0.4862060546875,-246.0,218.0,-99.0,102378.0,-8.736000061035156,0,0
902.5459939990027,0.629150390625,-0.496673583984375,0.100494384765625,-0.58935546875,0.06103515625,0.1220703125,-0.1220703125,0.45849609375,-0.743408203125,0.486083984375,-246.0,218.0,-99.0,102378.0,-8.736000061035156,0,0
902.5509939990027,0.629150390625,-0.496673583984375,0.100494384765625,-0.58935546875,-0.244140625,0.1220703125,-0.18310546875,0.45947265625,-0.742919921875,0.4888916015625,-246.0,218.0,-99.0,102378.0,-8.736000061035156,0,0
902.5559969990027,0.629150390625,-0.496673583984375,0.100494384765625,-0.58935546875,-0.06103515625,0.0,-0.18310546875,0.4581298828125,-0.7430419921875,0.487548828125,-246.0,218.0,-99.0,102378.0,-8.736000061035156,0,0
902.5609939990027,0.629150390625,-0.496673583984375,0.100494384765625,-0.58935546875,-0.06103515625,0.0,-0.244140625,0.460205078125,-0.7454833984375,0.486328125,-246.0,218.0,-99.0,102378.0,-8.736000061035156,0,0
902.5659929990027,0.629150390625,-0.496673583984375,0.100494384765625,-0.58935546875,-0.18310546875,0.1220703125,0.06103515625,0.458984375,-0.7437744140625,0.486572265625,-246.0,218.0,-99.0,102378.0,-8.736000061035156,0,0
902.5709939990027,0.629150390625,-0.496673583984375,0.100494384765625,-0.58935546875,0.0,0.06103515625,-0.1220703125,0.4588623046875,-0.7440185546875,0.4857177734375,-246.0,218.0,-99.0,102378.0,-8.736000061035156,0,0
902.5759949990027,0.629150390625,-0.496673583984375,0.100494384765625,-0.58935546875,-0.1220703125,0.18310546875,0.0,0.460693359375,-0.742919921875,0.486572265625,-246.0,218.0,-99.0,102378.0,-8.736000061035156,0,0
902.5800239990026,0.629150390625,-0.496673583984375,0.100494384765625,-0.58935546875,-0.1220703125,0.18310546875,0.0,0.460693359375,-0.742919921875,0.486572265625,-246.0,218.0,-99.0,102378.0,-8.736000061035156,0,0
