Time stamp(sec),quaternion_0,quaternion_1,quaternion_2,quaternion_3,roll_angular_rate,pitch_angular_rate,yaw_angular_rate,acc_X,acc_Y,acc_Z,mag_X,mag_Y,mag_Z,pressure,altitude
0.04996770003344864,0.630218505859375,-0.49639892578125,0.10003662109375,-0.5885009765625,0.0,0.1220703125,0.18310546875,0.4595947265625,-0.7445068359375,0.48681640625,-242.0,216.0,-99.0,102394.0,-8.869000434875488,0,0
0.050105600035749376,0.630218505859375,-0.49639892578125,0.10003662109375,-0.5885009765625,0.0,0.244140625,0.18310546875,0.4586181640625,-0.742431640625,0.4871826171875,-242.0,216.0,-99.0,102394.0,-8.869000434875488,0,0
0.05023870000150055,0.630218505859375,-0.496429443359375,0.10003662109375,-0.5885009765625,0.244140625,0.18310546875,0.244140625,0.459716796875,-0.74462890625,0.486572265625,-242.0,216.0,-99.0,102394.0,-8.867000579833984,0,0
0.05036759999347851,0.630218505859375,-0.496429443359375,0.10003662109375,-0.5885009765625,-0.18310546875,0.18310546875,-0.1220703125,0.4598388671875,-0.74560546875,0.4854736328125,-242.0,216.0,-99.0,102394.0,-8.867000579833984,0,0
0.05051380000077188,0.630218505859375,-0.496429443359375,0.10003662109375,-0.5885009765625,-0.18310546875,0.06103515625,-0.06103515625,0.458984375,-0.7440185546875,0.487060546875,-242.0,216.0,-99.0,102394.0,-8.867000579833984,0,0
0.05063970002811402,0.630218505859375,-0.496429443359375,0.10003662109375,-0.5885009765625,-0.18310546875,0.0,0.1220703125,0.4586181640625,-0.7440185546875,0.486572265625,-242.0,216.0,-99.0,102394.0,-8.867000579833984,0,0
0.05076840001856908,0.630218505859375,-0.496429443359375,0.10003662109375,-0.588470458984375,-0.42724609375,0.0,0.06103515625,0.4571533203125,-0.7431640625,0.4853515625,-242.0,216.0,-99.0,102394.0,-8.867000579833984,0,0
0.05089589999988675,0.630218505859375,-0.496429443359375,0.10003662109375,-0.588470458984375,0.06103515625,-0.30517578125,-0.18310546875,0.457275390625,-0.743408203125,0.4879150390625,-242.0,216.0,-99.0,102394.0,-8.867000579833984,0,0
0.051031599985435605,0.630218505859375,-0.496429443359375,0.10003662109375,-0.588470458984375,0.0,0.18310546875,0.18310546875,0.4591064453125,-0.7449951171875,0.486328125,-242.0,216.0,-99.0,102394.0,-8.867000579833984,0,0
0.051170799997635186,0.630218505859375,-0.496429443359375,0.10003662109375,-0.588470458984375,-0.3662109375,0.244140625,0.3662109375,0.4586181640625,-0.742431640625,0.4864501953125,-242.0,216.0,-99.0,102394.0,-8.867000579833984,0,0
0.05131220002658665,0.630218505859375,-0.496429443359375,0.10003662109375,-0.588470458984375,0.18310546875,-0.1220703125,0.0,0.4576416015625,-0.7435302734375,0.4866943359375,-242.0,216.0,-99.0,102394.0,-8.867000579833984,0,0
0.11437070003012195,0.630218505859375,-0.496429443359375,0.10003662109375,-0.588470458984375,0.18310546875,-0.1220703125,0.0,0.4576416015625,-0.7435302734375,0.4866943359375,-242.0,216.0,-99.0,102394.0,-8.867000579833984,0,0
0.11445029999595135,0.630218505859375,-0.496429443359375,0.10003662109375,-0.588470458984375,0.06103515625,0.1220703125,-0.1220703125,0.4609375,-0.7447509765625,0.48681640625,-243.0,216.0,-99.0,102394.0,-8.867000579833984,0,0
0.11452290002489462,0.630218505859375,-0.4964599609375,0.100006103515625,-0.588470458984375,-0.1220703125,-0.1220703125,0.0,0.46044921875,-0.7423095703125,0.486572265625,-243.0,216.0,-99.0,102394.0,-8.867000579833984,0,0
0.11459459998877719,0.630218505859375,-0.4964599609375,0.100006103515625,-0.588470458984375,0.06103515625,0.0,0.0,0.4603271484375,-0.743408203125,0.4854736328125,-243.0,216.0,-99.0,102394.0,-8.867000579833984,0,0
0.11466530000325292,0.63018798828125,-0.4964599609375,0.100006103515625,-0.588470458984375,-0.1220703125,0.0,0.0,0.4595947265625,-0.7440185546875,0.486083984375,-243.0,216.0,-99.0,102394.0,-8.867000579833984,0,0
0.11473530001239851,0.63018798828125,-0.4964599609375,0.100006103515625,-0.588470458984375,-0.3662109375,0.18310546875,0.0,0.458251953125,-0.7432861328125,0.48583984375,-243.0,216.0,-99.0,102394.0,-8.867000579833984,0,0
0.11548630002653226,0.63018798828125,-0.4964599609375,0.100006103515625,-0.588470458984375,0.06103515625,0.244140625,-0.06103515625,0.4576416015625,-0.7440185546875,0.48681640625,-243.0,216.0,-99.0,102394.0,-8.867000579833984,0,0
0.11555650003720075,0.63018798828125,-0.4964599609375,0.100006103515625,-0.588470458984375,-0.244140625,-0.06103515625,-0.06103515625,0.460205078125,-0.74560546875,0.4869384765625,-243.0,216.0,-99.0,102394.0,-8.867000579833984,0,0
0.11562619998585433,0.63018798828125,-0.496490478515625,0.100006103515625,-0.588470458984375,-0.06103515625,0.244140625,-0.1220703125,0.4581298828125,-0.74267578125,0.4864501953125,-243.0,216.0,-99.0,102394.0,-8.867000579833984,0,0
0.11569770000642166,0.63018798828125,-0.496490478515625,0.100006103515625,-0.588470458984375,-0.06103515625,0.06103515625,0.1220703125,0.45849609375,-0.7449951171875,0.4864501953125,-243.0,216.0,-99.0,102394.0,-8.867000579833984,0,0
0.11576509999576956,0.63018798828125,-0.496490478515625,0.100006103515625,-0.588470458984375,-0.1220703125,0.18310546875,-0.1220703125,0.45703125,-0.745361328125,0.4849853515625,-243.0,216.0,-99.0,102394.0,-8.867000579833984,0,0
0.11583349999273196,0.63018798828125,-0.496490478515625,0.100006103515625,-0.588470458984375,0.244140625,0.06103515625,-0.1220703125,0.4599609375,-0.7442626953125,0.48681640625,-243.0,216.0,-99.0,102394.0,-8.868000030517578,0,0
0.1783782999846153,0.63018798828125,-0.496490478515625,0.100006103515625,-0.588470458984375,-0.18310546875,0.244140625,0.06103515625,0.4576416015625,-0.7427978515625,0.487548828125,-243.0,216.0,-99.0,102394.0,-8.868000030517578,0,0
0.17845559999113902,0.63018798828125,-0.496490478515625,0.100006103515625,-0.588470458984375,0.0,0.18310546875,0.1220703125,0.457763671875,-0.74267578125,0.487548828125,-243.0,216.0,-99.0,102394.0,-8.868000030517578,0,0
0.1785282000200823,0.63018798828125,-0.496490478515625,0.100006103515625,-0.588470458984375,0.1220703125,-0.06103515625,0.0,0.4598388671875,-0.74267578125,0.48681640625,-243.0,216.0,-99.0,102394.0,-8.868000030517578,0,0
0.17859710002085194,0.63018798828125,-0.496490478515625,0.100006103515625,-0.588470458984375,-0.30517578125,0.18310546875,0.06103515625,0.458984375,-0.74267578125,0.4857177734375,-243.0,216.0,-99.0,102394.0,-8.868000030517578,0,0
0.17866510001476854,0.63018798828125,-0.496490478515625,0.100006103515625,-0.588470458984375,-0.18310546875,0.18310546875,0.1220703125,0.459716796875,-0.7447509765625,0.4854736328125,-243.0,216.0,-99.0,102394.0,-8.868000030517578,0,0
0.17874980001943186,0.63018798828125,-0.496490478515625,0.100006103515625,-0.588470458984375,0.0,0.244140625,0.18310546875,0.458251953125,-0.7452392578125,0.486328125,-243.0,216.0,-99.0,102394.0,-8.868000030517578,0,0
0.17881589999888092,0.63018798828125,-0.49652099609375,0.100006103515625,-0.588470458984375,0.0,0.244140625,0.18310546875,0.458251953125,-0.7452392578125,0.486328125,-243.0,216.0,-99.0,102394.0,-8.868000030517578,0,0
0.17892829998163506,0.630157470703125,-0.49652099609375,0.100006103515625,-0.588470458984375,0.18310546875,-0.1220703125,0.0,0.458251953125,-0.745849609375,0.4840087890625,-243.0,216.0,-99.0,102394.0,-8.868000030517578,0,0
0.1789975999854505,0.630157470703125,-0.49652099609375,0.100006103515625,-0.588470458984375,0.244140625,0.06103515625,-0.30517578125,0.4588623046875,-0.7445068359375,0.48486328125,-244.0,216.0,-99.0,102394.0,-8.868000030517578,0,0
0.17906300001777709,0.630157470703125,-0.49652099609375,0.100006103515625,-0.588470458984375,0.06103515625,0.06103515625,0.18310546875,0.4581298828125,-0.7425537109375,0.4833984375,-244.0,216.0,-99.0,102394.0,-8.868000030517578,0,0
0.17913190001854673,0.630157470703125,-0.49652099609375,0.100006103515625,-0.588470458984375,-0.1220703125,0.244140625,-0.1220703125,0.4595947265625,-0.740966796875,0.48681640625,-244.0,216.0,-99.0,102394.0,-8.868000030517578,0,0
0.23764160001883283,0.630157470703125,-0.496551513671875,0.100006103515625,-0.588470458984375,-0.1220703125,0.18310546875,0.0,0.458251953125,-0.7437744140625,0.4891357421875,-244.0,216.0,-99.0,102394.0,-8.868000030517578,0,0
0.23771770001621917,0.630157470703125,-0.496551513671875,0.100006103515625,-0.588470458984375,-0.18310546875,0.30517578125,0.06103515625,0.458984375,-0.74365234375,0.4852294921875,-244.0,216.0,-99.0,102394.0,-8.868000030517578,0,0
0.23778830002993345,0.630157470703125,-0.496551513671875,0.100006103515625,-0.588470458984375,0.06103515625,-0.1220703125,0.0,0.456787109375,-0.742919921875,0.48486328125,-244.0,216.0,-99.0,102394.0,-8.868000030517578,0,0
0.2378612000029534,0.630157470703125,-0.496551513671875,0.100006103515625,-0.588470458984375,0.06103515625,0.1220703125,0.06103515625,0.4591064453125,-0.74560546875,0.486572265625,-244.0,216.0,-99.0,102394.0,-8.868000030517578,0,0
0.2379555000225082,0.630157470703125,-0.496551513671875,0.100006103515625,-0.588470458984375,-0.06103515625,0.0,-0.30517578125,0.4578857421875,-0.744873046875,0.48681640625,-244.0,216.0,-99.0,102394.0,-8.866000175476074,0,0
0.23802620003698394,0.630157470703125,-0.496551513671875,0.100006103515625,-0.588470458984375,0.0,0.18310546875,-0.1220703125,0.4573974609375,-0.74560546875,0.4859619140625,-244.0,216.0,-99.0,102394.0,-8.866000175476074,0,0
0.23809609998716041,0.630157470703125,-0.49658203125,0.100006103515625,-0.588470458984375,-0.244140625,0.1220703125,-0.18310546875,0.4593505859375,-0.74365234375,0.4859619140625,-244.0,216.0,-99.0,102394.0,-8.866000175476074,0,0
0.2381658999947831,0.630157470703125,-0.49658203125,0.100006103515625,-0.58843994140625,0.1220703125,0.3662109375,0.06103515625,0.45947265625,-0.744873046875,0.4857177734375,-244.0,216.0,-99.0,102394.0,-8.866000175476074,0,0
0.238233299984131,0.630126953125,-0.49658203125,0.100006103515625,-0.58843994140625,0.0,0.18310546875,0.18310546875,0.458984375,-0.74267578125,0.486083984375,-244.0,216.0,-99.0,102394.0,-8.866000175476074,0,0
0.23830319999251515,0.630126953125,-0.49658203125,0.100006103515625,-0.588470458984375,-0.30517578125,0.18310546875,0.06103515625,0.4599609375,-0.7421875,0.48779296875,-244.0,216.0,-99.0,102394.0,-8.866000175476074,0,0
0.3012122000218369,0.630126953125,-0.49658203125,0.100006103515625,-0.58843994140625,0.67138671875,0.18310546875,0.06103515625,0.4593505859375,-0.74560546875,0.4857177734375,-244.0,216.0,-99.0,102394.0,-8.866000175476074,0,0
0.30129169998690486,0.630126953125,-0.49658203125,0.100006103515625,-0.58843994140625,-0.244140625,0.06103515625,-0.1220703125,0.457763671875,-0.7440185546875,0.48681640625,-244.0,216.0,-99.0,102394.0,-8.866000175476074,0,0
0.30136310000671074,0.630126953125,-0.49658203125,0.100006103515625,-0.58843994140625,0.1220703125,-0.06103515625,0.0,0.457763671875,-0.74462890625,0.487548828125,-244.0,216.0,-99.0,102394.0,-8.866000175476074,0,0
0.30143250001128763,0.630126953125,-0.49658203125,0.100006103515625,-0.58843994140625,0.1220703125,-0.06103515625,0.0,0.457763671875,-0.74462890625,0.487548828125,-244.0,216.0,-99.0,102394.0,-8.866000175476074,0,0
0.30149929999606684,0.630126953125,-0.49658203125,0.100006103515625,-0.58843994140625,-0.3662109375,0.18310546875,0.0,0.461669921875,-0.7452392578125,0.487060546875,-244.0,216.0,-99.0,102394.0,-8.866000175476074,0,0
0.30156829999759793,0.630126953125,-0.49658203125,0.100006103515625,-0.58843994140625,-0.3662109375,0.18310546875,0.0,0.461669921875,-0.7452392578125,0.487060546875,-244.0,216.0,-99.0,102394.0,-8.866000175476074,0,0
0.30163460003677756,0.630126953125,-0.49658203125,0.100006103515625,-0.58843994140625,0.0,0.18310546875,0.06103515625,0.460693359375,-0.7432861328125,0.484130859375,-244.0,216.0,-99.0,102394.0,-8.866000175476074,0,0
0.3019242000300437,0.630126953125,-0.496612548828125,0.100006103515625,-0.58843994140625,-0.1220703125,0.0,0.1220703125,0.4573974609375,-0.7430419921875,0.4847412109375,-244.0,216.0,-99.0,102394.0,-8.866000175476074,0,0
0.3019940000376664,0.630126953125,-0.496612548828125,0.100006103515625,-0.58843994140625,-0.18310546875,0.18310546875,-0.244140625,0.459716796875,-0.7437744140625,0.484619140625,-244.0,216.0,-99.0,102394.0,-8.866000175476074,0,0
0.30206270003691316,0.630126953125,-0.496612548828125,0.100006103515625,-0.58843994140625,0.0,0.18310546875,-0.06103515625,0.4561767578125,-0.7423095703125,0.487548828125,-244.0,216.0,-99.0,102394.0,-8.866000175476074,0,0
0.3021314000361599,0.630126953125,-0.496612548828125,0.100006103515625,-0.58843994140625,0.1220703125,0.0,0.0,0.4573974609375,-0.7423095703125,0.4866943359375,-244.0,216.0,-99.0,102394.0,-8.866000175476074,0,0
0.30219710001256317,0.630126953125,-0.49658203125,0.100006103515625,-0.58843994140625,0.0,0.1220703125,-0.1220703125,0.455078125,-0.742919921875,0.486328125,-244.0,216.0,-99.0,102394.0,-8.866000175476074,0,0
0.3022640999988653,0.630126953125,-0.496612548828125,0.100006103515625,-0.58843994140625,0.06103515625,0.1220703125,0.1220703125,0.458740234375,-0.7442626953125,0.4853515625,-244.0,216.0,-99.0,102394.0,-8.866000175476074,0,0
0.35961630003293976,0.630126953125,-0.496612548828125,0.100006103515625,-0.58843994140625,0.1220703125,0.06103515625,-0.1220703125,0.4586181640625,-0.74365234375,0.4862060546875,-244.0,216.0,-99.0,102394.0,-8.867000579833984,0,0
0.35969950002618134,0.630126953125,-0.496612548828125,0.100006103515625,-0.58843994140625,-0.30517578125,0.18310546875,0.06103515625,0.4583740234375,-0.7425537109375,0.484130859375,-244.0,216.0,-99.0,102394.0,-8.867000579833984,0,0
0.3597767000319436,0.630126953125,-0.496612548828125,0.100006103515625,-0.58843994140625,-0.30517578125,0.18310546875,0.06103515625,0.4583740234375,-0.7425537109375,0.484130859375,-244.0,216.0,-99.0,102394.0,-8.867000579833984,0,0
0.35986299999058247,0.630126953125,-0.496612548828125,0.100006103515625,-0.58843994140625,0.0,0.06103515625,0.18310546875,0.4600830078125,-0.7457275390625,0.4847412109375,-244.0,216.0,-99.0,102394.0,-8.867000579833984,0,0
0.3599482999998145,0.630126953125,-0.496612548828125,0.10003662109375,-0.58843994140625,-0.1220703125,0.1220703125,-0.06103515625,0.45849609375,-0.7440185546875,0.4857177734375,-244.0,216.0,-99.0,102394.0,-8.867000579833984,0,0
0.36002030002418905,0.630126953125,-0.49664306640625,0.100006103515625,-0.58843994140625,0.42724609375,0.42724609375,0.244140625,0.45947265625,-0.7459716796875,0.4853515625,-244.0,216.0,-99.0,102394.0,-8.867000579833984,0,0
0.3600892000249587,0.630126953125,-0.496612548828125,0.10003662109375,-0.58843994140625,-0.30517578125,0.1220703125,0.0,0.45654296875,-0.742431640625,0.487548828125,-244.0,216.0,-99.0,102394.0,-8.867000579833984,0,0
0.3601848999969661,0.630126953125,-0.496612548828125,0.10003662109375,-0.58843994140625,-0.06103515625,0.244140625,0.06103515625,0.45849609375,-0.74365234375,0.487548828125,-244.0,216.0,-99.0,102394.0,-8.867000579833984,0,0
0.3602555000106804,0.630126953125,-0.496612548828125,0.10003662109375,-0.58843994140625,0.0,0.18310546875,-0.244140625,0.45751953125,-0.7431640625,0.4864501953125,-244.0,216.0,-99.0,102394.0,-8.867000579833984,0,0
0.360328099981416,0.630126953125,-0.496612548828125,0.10003662109375,-0.58843994140625,-0.1220703125,0.1220703125,-0.1220703125,0.4595947265625,-0.744873046875,0.488525390625,-244.0,216.0,-99.0,102394.0,-8.867000579833984,0,0
0.4202282000333071,0.630126953125,-0.496612548828125,0.10003662109375,-0.58843994140625,-0.54931640625,0.0,-0.06103515625,0.4586181640625,-0.7447509765625,0.4844970703125,-244.0,217.0,-99.0,102394.0,-8.867000579833984,0,0
0.4203111000242643,0.630126953125,-0.496612548828125,0.10003662109375,-0.58843994140625,-0.30517578125,0.06103515625,-0.244140625,0.45703125,-0.7451171875,0.4854736328125,-244.0,217.0,-99.0,102394.0,-8.867000579833984,0,0
0.4203840999980457,0.630126953125,-0.49664306640625,0.10003662109375,-0.588409423828125,-0.18310546875,0.18310546875,0.0,0.45703125,-0.7423095703125,0.4873046875,-244.0,217.0,-99.0,102394.0,-8.867000579833984,0,0
0.4204543000087142,0.630126953125,-0.49664306640625,0.10003662109375,-0.588409423828125,-0.18310546875,0.18310546875,0.0,0.45703125,-0.7423095703125,0.4873046875,-244.0,217.0,-99.0,102394.0,-8.867000579833984,0,0
0.42052280000643805,0.630126953125,-0.49664306640625,0.10003662109375,-0.588409423828125,-0.18310546875,0.1220703125,-0.06103515625,0.45751953125,-0.744384765625,0.48486328125,-244.0,217.0,-99.0,102394.0,-8.867000579833984,0,0
0.42227249999996275,0.630126953125,-0.49664306640625,0.10003662109375,-0.588409423828125,-0.30517578125,0.0,-0.1220703125,0.4586181640625,-0.7440185546875,0.4853515625,-244.0,217.0,-99.0,102394.0,-8.867000579833984,0,0
0.4223447000258602,0.630126953125,-0.49664306640625,0.10003662109375,-0.588409423828125,0.18310546875,0.244140625,-0.18310546875,0.4576416015625,-0.744140625,0.48828125,-244.0,217.0,-99.0,102394.0,-8.867000579833984,0,0
0.4224155999836512,0.630126953125,-0.49664306640625,0.10003662109375,-0.588409423828125,0.0,-0.06103515625,0.0,0.46044921875,-0.7451171875,0.4864501953125,-244.0,217.0,-99.0,102394.0,-8.867000579833984,0,0
0.42248340003425255,0.630126953125,-0.49664306640625,0.10003662109375,-0.588409423828125,-0.06103515625,0.1220703125,0.06103515625,0.4593505859375,-0.74365234375,0.4852294921875,-244.0,217.0,-99.0,102394.0,-8.86400032043457,0,0
0.42255140002816916,0.630126953125,-0.49664306640625,0.10003662109375,-0.588409423828125,0.244140625,0.244140625,-0.1220703125,0.4581298828125,-0.742919921875,0.4854736328125,-244.0,217.0,-99.0,102394.0,-8.86400032043457,0,0
0.4226232999935746,0.630126953125,-0.496673583984375,0.10003662109375,-0.588409423828125,-0.06103515625,0.244140625,-0.06103515625,0.457763671875,-0.7442626953125,0.4837646484375,-244.0,217.0,-99.0,102394.0,-8.86400032043457,0,0
0.4889905999880284,0.630126953125,-0.496673583984375,0.100067138671875,-0.588409423828125,0.1220703125,0.06103515625,0.0,0.4591064453125,-0.7445068359375,0.4854736328125,-244.0,217.0,-99.0,102394.0,-8.86400032043457,0,0
0.48907300003338605,0.630126953125,-0.49664306640625,0.100067138671875,-0.588409423828125,0.06103515625,0.18310546875,-0.30517578125,0.4569091796875,-0.7442626953125,0.485595703125,-244.0,217.0,-99.0,102394.0,-8.86400032043457,0,0
0.48914640001021326,0.630126953125,-0.49664306640625,0.100067138671875,-0.588409423828125,0.0,0.18310546875,0.18310546875,0.45458984375,-0.74267578125,0.4871826171875,-244.0,217.0,-99.0,102394.0,-8.86400032043457,0,0
0.48921620001783594,0.630126953125,-0.49664306640625,0.100067138671875,-0.588409423828125,0.1220703125,0.1220703125,-0.1220703125,0.45751953125,-0.743408203125,0.4866943359375,-244.0,217.0,-99.0,102394.0,-8.86400032043457,0,0
0.48928600002545863,0.630126953125,-0.49664306640625,0.100067138671875,-0.588409423828125,0.244140625,0.18310546875,-0.1220703125,0.4591064453125,-0.74462890625,0.4871826171875,-244.0,217.0,-99.0,102394.0,-8.86400032043457,0,0
0.4893529000109993,0.630126953125,-0.496673583984375,0.100067138671875,-0.588409423828125,-0.42724609375,-0.06103515625,-0.30517578125,0.4583740234375,-0.74462890625,0.4854736328125,-244.0,217.0,-99.0,102394.0,-8.86400032043457,0,0
0.48948540003038943,0.630126953125,-0.496673583984375,0.100067138671875,-0.588409423828125,-0.42724609375,-0.06103515625,-0.30517578125,0.4583740234375,-0.74462890625,0.4854736328125,-244.0,217.0,-99.0,102394.0,-8.86400032043457,0,0
0.4895538000273518,0.630126953125,-0.496673583984375,0.100067138671875,-0.588409423828125,-0.06103515625,-0.06103515625,0.18310546875,0.4583740234375,-0.7423095703125,0.48583984375,-244.0,217.0,-99.0,102394.0,-8.86400032043457,0,0
0.48967199999606237,0.630126953125,-0.496673583984375,0.100067138671875,-0.588409423828125,-0.06103515625,0.0,-0.1220703125,0.459228515625,-0.743896484375,0.486328125,-245.0,217.0,-99.0,102394.0,-8.86400032043457,0,0
0.4897517000208609,0.630126953125,-0.496673583984375,0.100067138671875,-0.588409423828125,-0.06103515625,0.244140625,-0.06103515625,0.4583740234375,-0.7427978515625,0.484375,-245.0,217.0,-99.0,102394.0,-8.86400032043457,0,0
0.4898209000239149,0.630126953125,-0.496673583984375,0.100067138671875,-0.588409423828125,-0.244140625,0.244140625,0.06103515625,0.4588623046875,-0.744384765625,0.4859619140625,-245.0,217.0,-99.0,102394.0,-8.86400032043457,0,0
0.4898900000262074,0.630096435546875,-0.496673583984375,0.100067138671875,-0.58837890625,-0.42724609375,-0.1220703125,0.0,0.4571533203125,-0.7447509765625,0.484619140625,-245.0,217.0,-99.0,102394.0,-8.86400032043457,0,0
0.5488054000306875,0.630096435546875,-0.496673583984375,0.100067138671875,-0.58837890625,0.244140625,0.1220703125,0.1220703125,0.45751953125,-0.7459716796875,0.4876708984375,-245.0,217.0,-99.0,102394.0,-8.86400032043457,0,0
0.5488809000235051,0.630126953125,-0.496673583984375,0.10009765625,-0.58837890625,0.18310546875,0.1220703125,-0.06103515625,0.4566650390625,-0.7447509765625,0.4849853515625,-245.0,217.0,-99.0,102394.0,-8.86400032043457,0,0
0.6082239000243135,0.630096435546875,-0.496734619140625,0.10009765625,-0.588348388671875,-0.1220703125,0.06103515625,-0.06103515625,0.4591064453125,-0.743896484375,0.486328125,-245.0,217.0,-99.0,102394.0,-8.868000030517578,0,0
0.6082998000201769,0.630096435546875,-0.496734619140625,0.10009765625,-0.588348388671875,-0.1220703125,0.06103515625,-0.06103515625,0.4591064453125,-0.743896484375,0.486328125,-245.0,216.0,-99.0,102394.0,-8.868000030517578,0,0
0.6083703000331298,0.630096435546875,-0.496734619140625,0.10009765625,-0.588348388671875,0.1220703125,0.1220703125,0.06103515625,0.4595947265625,-0.74365234375,0.483642578125,-245.0,216.0,-99.0,102394.0,-8.868000030517578,0,0
0.6084402999840677,0.630096435546875,-0.496734619140625,0.10009765625,-0.588348388671875,-0.18310546875,0.0,-0.06103515625,0.459228515625,-0.746337890625,0.48583984375,-245.0,216.0,-99.0,102394.0,-8.868000030517578,0,0
0.6085078000323847,0.630096435546875,-0.496734619140625,0.10009765625,-0.588348388671875,-0.1220703125,-0.06103515625,0.0,0.45849609375,-0.744384765625,0.4840087890625,-245.0,216.0,-99.0,102394.0,-8.868000030517578,0,0
0.6087093999958597,0.630096435546875,-0.49676513671875,0.10009765625,-0.588348388671875,0.0,0.1220703125,0.06103515625,0.45947265625,-0.7423095703125,0.4827880859375,-245.0,216.0,-99.0,102394.0,-8.868000030517578,0,0
0.6087777999928221,0.630096435546875,-0.49676513671875,0.10009765625,-0.588348388671875,0.0,0.1220703125,0.06103515625,0.45947265625,-0.7423095703125,0.4827880859375,-245.0,216.0,-99.0,102394.0,-8.868000030517578,0,0
0.6088837999850512,0.63006591796875,-0.49676513671875,0.10009765625,-0.588348388671875,0.06103515625,0.0,-0.1220703125,0.45849609375,-0.7427978515625,0.4847412109375,-245.0,216.0,-99.0,102394.0,-8.868000030517578,0,0
0.6089500000234693,0.63006591796875,-0.49676513671875,0.10009765625,-0.588348388671875,0.06103515625,0.1220703125,0.0,0.4573974609375,-0.7432861328125,0.4842529296875,-245.0,216.0,-99.0,102394.0,-8.868000030517578,0,0
0.609017800015863,0.63006591796875,-0.49676513671875,0.100128173828125,-0.588348388671875,-0.1220703125,0.18310546875,0.06103515625,0.45849609375,-0.7459716796875,0.4852294921875,-245.0,216.0,-99.0,102394.0,-8.868000030517578,0,0
0.6090833999915048,0.63006591796875,-0.49676513671875,0.100128173828125,-0.588348388671875,-0.18310546875,0.18310546875,0.18310546875,0.4598388671875,-0.7451171875,0.4830322265625,-245.0,216.0,-99.0,102394.0,-8.868000030517578,0,0
0.6774751000339165,0.63006591796875,-0.496795654296875,0.100128173828125,-0.58831787109375,-0.18310546875,0.18310546875,0.18310546875,0.4598388671875,-0.7451171875,0.4830322265625,-245.0,216.0,-99.0,102394.0,-8.866000175476074,0,0
0.6775657000252977,0.63006591796875,-0.496795654296875,0.100128173828125,-0.58831787109375,-0.1220703125,0.1220703125,0.244140625,0.4591064453125,-0.74609375,0.4827880859375,-245.0,216.0,-99.0,102394.0,-8.866000175476074,0,0
0.6776428000302985,0.63006591796875,-0.496795654296875,0.100128173828125,-0.58831787109375,-0.244140625,0.1220703125,-0.18310546875,0.4573974609375,-0.74609375,0.4852294921875,-245.0,216.0,-99.0,102394.0,-8.866000175476074,0,0
0.6778126999852248,0.63006591796875,-0.496795654296875,0.100128173828125,-0.58831787109375,0.1220703125,0.18310546875,-0.1220703125,0.456787109375,-0.74365234375,0.48583984375,-245.0,216.0,-99.0,102394.0,-8.866000175476074,0,0
0.6779000000096858,0.63006591796875,-0.496795654296875,0.100128173828125,-0.58831787109375,0.0,0.06103515625,0.06103515625,0.45751953125,-0.74365234375,0.48388671875,-245.0,216.0,-99.0,102394.0,-8.866000175476074,0,0
0.6779773000162095,0.63006591796875,-0.496795654296875,0.100128173828125,-0.58831787109375,0.0,0.244140625,-0.18310546875,0.458251953125,-0.7449951171875,0.4853515625,-245.0,216.0,-99.0,102394.0,-8.866000175476074,0,0
0.686124200001359,0.63006591796875,-0.496826171875,0.100128173828125,-0.58831787109375,0.06103515625,0.244140625,-0.18310546875,0.4580078125,-0.74462890625,0.484130859375,-245.0,216.0,-99.0,102394.0,-8.866000175476074,0,0
0.6862101000151597,0.63006591796875,-0.496826171875,0.100128173828125,-0.58831787109375,-0.3662109375,0.18310546875,0.30517578125,0.460205078125,-0.744873046875,0.48486328125,-245.0,216.0,-99.0,102394.0,-8.866000175476074,0,0
0.6862866000155918,0.63006591796875,-0.496826171875,0.100128173828125,-0.58831787109375,-0.3662109375,0.18310546875,0.30517578125,0.460205078125,-0.744873046875,0.48486328125,-245.0,216.0,-99.0,102394.0,-8.866000175476074,0,0
0.6863605999969877,0.63006591796875,-0.496826171875,0.100128173828125,-0.58831787109375,-0.06103515625,0.1220703125,0.18310546875,0.462158203125,-0.744384765625,0.4842529296875,-245.0,216.0,-99.0,102394.0,-8.866000175476074,0,0
0.6864360999898054,0.63006591796875,-0.496826171875,0.100128173828125,-0.58831787109375,-0.30517578125,0.244140625,0.0,0.4588623046875,-0.7445068359375,0.485107421875,-245.0,216.0,-100.0,102394.0,-8.866000175476074,0,0
0.6865104000316933,0.629913330078125,-0.496826171875,0.100250244140625,-0.58843994140625,-0.1220703125,-0.06103515625,-0.06103515625,0.457763671875,-0.7447509765625,0.485595703125,-245.0,216.0,-100.0,102394.0,-8.866000175476074,0,0
0.7332248000311665,0.629913330078125,-0.496826171875,0.100250244140625,-0.58843994140625,-0.1220703125,0.1220703125,-0.18310546875,0.4583740234375,-0.7449951171875,0.485107421875,-245.0,216.0,-100.0,102394.0,-8.866000175476074,0,0
0.7333120999974199,0.629913330078125,-0.496856689453125,0.100250244140625,-0.58843994140625,0.18310546875,0.06103515625,-0.06103515625,0.4588623046875,-0.74462890625,0.4835205078125,-245.0,216.0,-100.0,102394.0,-8.866000175476074,0,0
0.7333869999856688,0.629913330078125,-0.496856689453125,0.100250244140625,-0.58843994140625,-0.244140625,0.0,0.06103515625,0.4617919921875,-0.745361328125,0.4847412109375,-245.0,216.0,-100.0,102394.0,-8.866000175476074,0,0
0.7334599000168964,0.629913330078125,-0.496856689453125,0.100250244140625,-0.58843994140625,-0.1220703125,-0.06103515625,0.1220703125,0.4591064453125,-0.7451171875,0.4871826171875,-245.0,216.0,-100.0,102394.0,-8.866000175476074,0,0
0.7335326999891549,0.629913330078125,-0.496856689453125,0.100250244140625,-0.58843994140625,-0.1220703125,0.30517578125,-0.06103515625,0.4581298828125,-0.7452392578125,0.48583984375,-245.0,216.0,-100.0,102394.0,-8.866000175476074,0,0
0.7338391999946907,0.629913330078125,-0.496826171875,0.100250244140625,-0.58843994140625,-0.06103515625,0.1220703125,-0.3662109375,0.4583740234375,-0.745361328125,0.487548828125,-245.0,216.0,-100.0,102394.0,-8.866000175476074,0,0
0.7339200000278652,0.629913330078125,-0.496826171875,0.100250244140625,-0.58843994140625,0.0,0.06103515625,0.18310546875,0.4573974609375,-0.7435302734375,0.4864501953125,-245.0,216.0,-100.0,102394.0,-8.866000175476074,0,0
0.7339925999986008,0.629913330078125,-0.496826171875,0.100250244140625,-0.58843994140625,-0.30517578125,-0.06103515625,-0.1220703125,0.455810546875,-0.743408203125,0.484619140625,-245.0,216.0,-100.0,102394.0,-8.866000175476074,0,0
0.7340653000283055,0.629913330078125,-0.496826171875,0.100250244140625,-0.58843994140625,-0.30517578125,-0.06103515625,-0.1220703125,0.455810546875,-0.743408203125,0.484619140625,-245.0,216.0,-100.0,102394.0,-8.866000175476074,0,0
0.7341384000028484,0.629913330078125,-0.496856689453125,0.100250244140625,-0.58843994140625,0.3662109375,0.1220703125,0.18310546875,0.459228515625,-0.74560546875,0.4862060546875,-245.0,216.0,-100.0,102394.0,-8.866000175476074,0,0
0.7342136999941431,0.629913330078125,-0.496856689453125,0.10028076171875,-0.58843994140625,-0.244140625,0.30517578125,0.0,0.4583740234375,-0.74560546875,0.4853515625,-245.0,216.0,-100.0,102394.0,-8.866000175476074,0,0
0.7993191999848932,0.629913330078125,-0.496856689453125,0.10028076171875,-0.588409423828125,-0.06103515625,0.0,-0.1220703125,0.4591064453125,-0.742919921875,0.486572265625,-245.0,216.0,-100.0,102394.0,-8.866000175476074,0,0
0.7994084000238217,0.629913330078125,-0.496856689453125,0.100250244140625,-0.588409423828125,0.18310546875,0.244140625,0.06103515625,0.4595947265625,-0.74365234375,0.483154296875,-245.0,216.0,-100.0,102394.0,-8.866000175476074,0,0
0.7994853000272997,0.629913330078125,-0.496856689453125,0.100250244140625,-0.588409423828125,-0.244140625,-0.06103515625,-0.06103515625,0.4583740234375,-0.7425537109375,0.4837646484375,-245.0,216.0,-100.0,102394.0,-8.866000175476074,0,0
0.7995613000239246,0.629913330078125,-0.496856689453125,0.100250244140625,-0.588409423828125,0.30517578125,0.244140625,0.0,0.457763671875,-0.7415771484375,0.4857177734375,-245.0,216.0,-100.0,102394.0,-8.866000175476074,0,0
0.7996866999892518,0.629638671875,-0.496826171875,0.1004638671875,-0.58868408203125,-0.30517578125,-0.1220703125,0.244140625,0.458984375,-0.7442626953125,0.48388671875,-245.0,215.0,-100.0,102394.0,-8.866000175476074,0,0
0.8000098000047728,0.629638671875,-0.496826171875,0.1004638671875,-0.58868408203125,-0.244140625,0.244140625,0.18310546875,0.458984375,-0.742431640625,0.4857177734375,-245.0,215.0,-100.0,102394.0,-8.866000175476074,0,0
0.8000858000013977,0.629638671875,-0.496826171875,0.1004638671875,-0.58868408203125,0.18310546875,0.42724609375,0.18310546875,0.4571533203125,-0.7454833984375,0.48388671875,-245.0,215.0,-100.0,102394.0,-8.866000175476074,0,0
0.8001605999888852,0.629638671875,-0.496856689453125,0.1004638671875,-0.58868408203125,0.1220703125,0.3662109375,-0.1220703125,0.458740234375,-0.7427978515625,0.4857177734375,-245.0,215.0,-100.0,102394.0,-8.866000175476074,0,0
0.8002336000208743,0.629638671875,-0.496856689453125,0.1004638671875,-0.58868408203125,0.1220703125,0.3662109375,-0.1220703125,0.458740234375,-0.7427978515625,0.4857177734375,-245.0,215.0,-100.0,102394.0,-8.866000175476074,0,0
0.8003054999862798,0.629638671875,-0.496856689453125,0.1004638671875,-0.58868408203125,0.0,-0.06103515625,0.0,0.4609375,-0.7449951171875,0.4844970703125,-245.0,215.0,-100.0,102394.0,-8.866000175476074,0,0
0.8003770000068471,0.629638671875,-0.496856689453125,0.1004638671875,-0.58868408203125,0.0,0.1220703125,0.06103515625,0.4586181640625,-0.7425537109375,0.486083984375,-245.0,215.0,-100.0,102394.0,-8.866000175476074,0,0
0.869906100037042,0.629638671875,-0.496856689453125,0.1004638671875,-0.58868408203125,-0.1220703125,0.244140625,0.0,0.458984375,-0.7437744140625,0.48583984375,-245.0,215.0,-100.0,102394.0,-8.866000175476074,0,0
0.8699868000112474,0.629638671875,-0.496856689453125,0.1004638671875,-0.58868408203125,-0.1220703125,0.18310546875,0.0,0.458984375,-0.744140625,0.4864501953125,-245.0,215.0,-100.0,102394.0,-8.866000175476074,0,0
0.870056800020393,0.629608154296875,-0.496856689453125,0.1004638671875,-0.58868408203125,-0.1220703125,0.18310546875,0.0,0.458984375,-0.744140625,0.4864501953125,-245.0,215.0,-100.0,102394.0,-8.866000175476074,0,0
0.8701238000066951,0.629608154296875,-0.496856689453125,0.1004638671875,-0.58868408203125,-0.1220703125,0.06103515625,0.06103515625,0.4583740234375,-0.7449951171875,0.4864501953125,-245.0,215.0,-100.0,102394.0,-8.866000175476074,0,0
0.8701922000036575,0.629638671875,-0.496856689453125,0.1004638671875,-0.58868408203125,0.3662109375,0.1220703125,0.0,0.4571533203125,-0.7464599609375,0.4852294921875,-245.0,215.0,-100.0,102394.0,-8.866000175476074,0,0
0.8702619000105187,0.629638671875,-0.496856689453125,0.1004638671875,-0.58868408203125,-0.1220703125,0.06103515625,-0.06103515625,0.4560546875,-0.7454833984375,0.4866943359375,-245.0,215.0,-100.0,102394.0,-8.866000175476074,0,0
0.8704249000293203,0.629638671875,-0.496856689453125,0.1004638671875,-0.58868408203125,-0.18310546875,0.0,0.0,0.4591064453125,-0.742431640625,0.4853515625,-245.0,215.0,-100.0,102394.0,-8.866000175476074,0,0
0.8704976000008173,0.629608154296875,-0.496856689453125,0.1004638671875,-0.58868408203125,0.0,0.0,-0.1220703125,0.460205078125,-0.74267578125,0.4852294921875,-245.0,215.0,-100.0,102394.0,-8.866000175476074,0,0
0.8705631000339054,0.629608154296875,-0.496856689453125,0.1004638671875,-0.58868408203125,-0.1220703125,0.06103515625,-0.1220703125,0.458984375,-0.7431640625,0.4849853515625,-245.0,215.0,-100.0,102394.0,-8.866000175476074,0,0
0.8706287000095472,0.629638671875,-0.496856689453125,0.1004638671875,-0.58868408203125,-0.1220703125,0.1220703125,0.0,0.4580078125,-0.7437744140625,0.4871826171875,-245.0,215.0,-100.0,102394.0,-8.866000175476074,0,0
0.8706932000350207,0.629608154296875,-0.496856689453125,0.1004638671875,-0.58868408203125,0.1220703125,0.18310546875,0.1220703125,0.458984375,-0.74462890625,0.4859619140625,-245.0,215.0,-100.0,102394.0,-8.866000175476074,0,0
0.8707572999992408,0.629608154296875,-0.496856689453125,0.1004638671875,-0.58868408203125,0.1220703125,0.18310546875,0.1220703125,0.458984375,-0.74462890625,0.4859619140625,-245.0,215.0,-100.0,102394.0,-8.866000175476074,0,0
0.9250822000321932,0.629364013671875,-0.496826171875,0.100677490234375,-0.588958740234375,-0.3662109375,0.06103515625,0.0,0.45849609375,-0.7430419921875,0.4853515625,-245.0,214.0,-100.0,102394.0,-8.866000175476074,0,0
0.9251590000349097,0.629364013671875,-0.496826171875,0.100677490234375,-0.588958740234375,0.0,-0.06103515625,-0.18310546875,0.4591064453125,-0.7445068359375,0.4854736328125,-245.0,214.0,-100.0,102394.0,-8.866000175476074,0,0
0.9252293999888934,0.629364013671875,-0.496826171875,0.100677490234375,-0.588958740234375,0.18310546875,0.1220703125,-0.1220703125,0.456787109375,-0.7432861328125,0.488037109375,-245.0,214.0,-100.0,102394.0,-8.866000175476074,0,0
0.9252990999957547,0.629364013671875,-0.496795654296875,0.100677490234375,-0.588958740234375,-0.244140625,0.18310546875,-0.30517578125,0.4583740234375,-0.7430419921875,0.4869384765625,-245.0,214.0,-100.0,102394.0,-8.866000175476074,0,0
0.9253673999919556,0.629364013671875,-0.496795654296875,0.100677490234375,-0.588958740234375,0.18310546875,0.06103515625,0.0,0.458251953125,-0.7452392578125,0.4876708984375,-245.0,214.0,-100.0,102394.0,-8.866000175476074,0,0
0.9259885000064969,0.629364013671875,-0.496795654296875,0.100677490234375,-0.588958740234375,0.1220703125,0.1220703125,0.1220703125,0.4593505859375,-0.7442626953125,0.486328125,-245.0,214.0,-100.0,102394.0,-8.866000175476074,0,0
0.926059500023257,0.629364013671875,-0.496826171875,0.100677490234375,-0.588958740234375,-0.18310546875,0.1220703125,-0.06103515625,0.460205078125,-0.7432861328125,0.486328125,-245.0,214.0,-100.0,102394.0,-8.866000175476074,0,0
0.9261282000225037,0.629364013671875,-0.496826171875,0.100677490234375,-0.588958740234375,-0.06103515625,0.1220703125,-0.06103515625,0.45947265625,-0.74462890625,0.4849853515625,-245.0,214.0,-100.0,102394.0,-8.866000175476074,0,0
0.9261949000065215,0.629364013671875,-0.496826171875,0.100677490234375,-0.588958740234375,0.244140625,0.3662109375,0.06103515625,0.4588623046875,-0.744140625,0.4862060546875,-245.0,214.0,-100.0,102394.0,-8.866000175476074,0,0
0.9262629000004381,0.629364013671875,-0.496826171875,0.100677490234375,-0.588958740234375,0.0,-0.1220703125,-0.244140625,0.458251953125,-0.744140625,0.4859619140625,-245.0,214.0,-100.0,102394.0,-8.866000175476074,0,0
0.9263306999928318,0.629364013671875,-0.496826171875,0.100677490234375,-0.588958740234375,0.0,-0.1220703125,-0.244140625,0.458251953125,-0.744140625,0.4859619140625,-245.0,214.0,-100.0,102394.0,-8.866000175476074,0,0
0.9843379000085406,0.629364013671875,-0.496795654296875,0.10064697265625,-0.5889892578125,0.1220703125,0.06103515625,0.06103515625,0.4586181640625,-0.7432861328125,0.48779296875,-245.0,214.0,-100.0,102394.0,-8.866000175476074,0,0
0.9844145000097342,0.629364013671875,-0.496795654296875,0.10064697265625,-0.5889892578125,0.1220703125,0.0,-0.244140625,0.460693359375,-0.743896484375,0.4857177734375,-245.0,214.0,-100.0,102394.0,-8.866000175476074,0,0
0.9844831000082195,0.629364013671875,-0.496795654296875,0.10064697265625,-0.5889892578125,0.06103515625,0.0,0.1220703125,0.4593505859375,-0.744873046875,0.4864501953125,-245.0,214.0,-100.0,102394.0,-8.866000175476074,0,0
0.9845525000127964,0.629364013671875,-0.496795654296875,0.10064697265625,-0.5889892578125,-0.1220703125,0.06103515625,0.0,0.458740234375,-0.7451171875,0.48681640625,-245.0,214.0,-100.0,102394.0,-8.866000175476074,0,0
0.9846330999862403,0.629364013671875,-0.496795654296875,0.10064697265625,-0.5889892578125,-0.06103515625,0.244140625,-0.1220703125,0.4588623046875,-0.743896484375,0.4864501953125,-245.0,214.0,-100.0,102394.0,-8.866000175476074,0,0
0.9847016999847256,0.629364013671875,-0.496795654296875,0.10064697265625,-0.5889892578125,-0.3662109375,0.18310546875,-0.244140625,0.4603271484375,-0.7440185546875,0.4866943359375,-245.0,214.0,-100.0,102394.0,-8.866000175476074,0,0
0.984770099981688,0.629364013671875,-0.496826171875,0.10064697265625,-0.5889892578125,-0.06103515625,0.0,0.1220703125,0.462646484375,-0.744873046875,0.4854736328125,-247.0,216.0,-100.0,102394.0,-8.866000175476074,0,0
0.9849477999960072,0.629241943359375,-0.496795654296875,0.10076904296875,-0.589111328125,-0.1220703125,0.1220703125,-0.06103515625,0.4573974609375,-0.7437744140625,0.4847412109375,-247.0,216.0,-100.0,102394.0,-8.866000175476074,0,0
0.9850475999992341,0.629241943359375,-0.496795654296875,0.10076904296875,-0.589111328125,-0.244140625,0.06103515625,0.1220703125,0.45849609375,-0.7440185546875,0.48681640625,-247.0,216.0,-100.0,102394.0,-8.866000175476074,0,0
0.985123599995859,0.629241943359375,-0.496795654296875,0.10076904296875,-0.589111328125,0.06103515625,0.0,-0.06103515625,0.45751953125,-0.744140625,0.4847412109375,-247.0,216.0,-100.0,102394.0,-8.866000175476074,0,0
0.9851960000232793,0.629241943359375,-0.496795654296875,0.10076904296875,-0.589111328125,0.06103515625,0.0,-0.06103515625,0.45751953125,-0.744140625,0.4847412109375,-247.0,216.0,-100.0,102394.0,-8.866000175476074,0,0
1.0554344999836758,0.629241943359375,-0.496795654296875,0.10076904296875,-0.589111328125,-0.1220703125,0.18310546875,-0.244140625,0.457763671875,-0.7427978515625,0.4873046875,-247.0,216.0,-100.0,102394.0,-8.866000175476074,0,0
1.055510799982585,0.629241943359375,-0.496795654296875,0.10076904296875,-0.589111328125,-0.244140625,0.18310546875,0.0,0.457763671875,-0.743896484375,0.4879150390625,-247.0,216.0,-100.0,102394.0,-8.866000175476074,0,0
1.0555836000130512,0.629241943359375,-0.496795654296875,0.10076904296875,-0.589111328125,0.0,0.244140625,0.244140625,0.4581298828125,-0.7427978515625,0.485595703125,-247.0,216.0,-100.0,102394.0,-8.866000175476074,0,0
1.0556525000138208,0.629241943359375,-0.496795654296875,0.10076904296875,-0.589111328125,0.1220703125,0.30517578125,0.06103515625,0.45849609375,-0.743896484375,0.4864501953125,-247.0,216.0,-100.0,102394.0,-8.866000175476074,0,0
1.055723300029058,0.629241943359375,-0.496795654296875,0.10076904296875,-0.589111328125,0.06103515625,0.244140625,0.06103515625,0.4591064453125,-0.744384765625,0.4854736328125,-247.0,216.0,-100.0,102394.0,-8.866000175476074,0,0
1.0557936999830417,0.629241943359375,-0.496795654296875,0.10076904296875,-0.589111328125,-0.06103515625,0.18310546875,0.0,0.4593505859375,-0.7435302734375,0.48681640625,-247.0,216.0,-100.0,102394.0,-8.866000175476074,0,0
1.0569342999951914,0.629241943359375,-0.496795654296875,0.10076904296875,-0.589111328125,0.1220703125,0.18310546875,-0.1220703125,0.4588623046875,-0.7445068359375,0.4852294921875,-247.0,216.0,-100.0,102394.0,-8.866000175476074,0,0
1.057094199990388,0.629241943359375,-0.496795654296875,0.10076904296875,-0.589111328125,-0.06103515625,-0.06103515625,-0.06103515625,0.4583740234375,-0.744384765625,0.4869384765625,-247.0,216.0,-100.0,102394.0,-8.866000175476074,0,0
1.0572434000205249,0.629241943359375,-0.496795654296875,0.10076904296875,-0.589111328125,-0.18310546875,0.06103515625,-0.18310546875,0.4600830078125,-0.7423095703125,0.4844970703125,-247.0,216.0,-100.0,102394.0,-8.866000175476074,0,0
1.0573906000354327,0.629241943359375,-0.496795654296875,0.10076904296875,-0.589111328125,0.1220703125,0.1220703125,-0.06103515625,0.46044921875,-0.7445068359375,0.48681640625,-247.0,216.0,-100.0,102394.0,-8.866000175476074,0,0
1.0575344000244513,0.629241943359375,-0.496795654296875,0.10076904296875,-0.589111328125,-0.244140625,-0.06103515625,0.1220703125,0.458251953125,-0.7445068359375,0.4884033203125,-247.0,216.0,-100.0,102394.0,-8.866000175476074,0,0
1.0576785000157543,0.629241943359375,-0.496795654296875,0.10076904296875,-0.589111328125,-0.30517578125,0.0,0.06103515625,0.458740234375,-0.743896484375,0.4852294921875,-247.0,216.0,-100.0,102394.0,-8.866000175476074,0,0
1.1106971999979578,0.629241943359375,-0.496795654296875,0.10076904296875,-0.589111328125,0.1220703125,0.244140625,0.0,0.45849609375,-0.7423095703125,0.4854736328125,-247.0,216.0,-100.0,102394.0,-8.866000175476074,0,0
1.1107768000219949,0.629241943359375,-0.496795654296875,0.10076904296875,-0.589111328125,0.1220703125,0.244140625,0.0,0.45849609375,-0.7423095703125,0.4854736328125,-247.0,217.0,-100.0,102394.0,-8.866000175476074,0,0
1.110854400030803,0.629119873046875,-0.49676513671875,0.100860595703125,-0.589263916015625,-0.30517578125,0.18310546875,0.06103515625,0.4571533203125,-0.74267578125,0.4862060546875,-247.0,217.0,-100.0,102394.0,-8.866000175476074,0,0
1.1109296000213362,0.629119873046875,-0.49676513671875,0.100860595703125,-0.5892333984375,0.06103515625,0.1220703125,-0.244140625,0.458251953125,-0.7449951171875,0.48486328125,-247.0,217.0,-100.0,102394.0,-8.866000175476074,0,0
1.1110345000051893,0.629119873046875,-0.49676513671875,0.100860595703125,-0.5892333984375,-0.06103515625,0.06103515625,0.06103515625,0.4576416015625,-0.7432861328125,0.48583984375,-247.0,217.0,-100.0,102394.0,-8.866000175476074,0,0
1.1112574000144377,0.629119873046875,-0.49676513671875,0.100860595703125,-0.5892333984375,-0.06103515625,0.30517578125,0.0,0.4593505859375,-0.74560546875,0.485595703125,-247.0,217.0,-100.0,102394.0,-8.866000175476074,0,0
1.111324199999217,0.62908935546875,-0.49676513671875,0.100860595703125,-0.5892333984375,0.30517578125,0.18310546875,-0.06103515625,0.4609375,-0.7442626953125,0.4874267578125,-247.0,217.0,-100.0,102394.0,-8.866000175476074,0,0
1.1113898000330664,0.62908935546875,-0.49676513671875,0.100860595703125,-0.5892333984375,0.244140625,-0.18310546875,0.06103515625,0.4588623046875,-0.744873046875,0.4859619140625,-247.0,217.0,-100.0,102394.0,-8.866000175476074,0,0
1.1114583000307903,0.629119873046875,-0.49676513671875,0.100860595703125,-0.5892333984375,-0.244140625,0.18310546875,-0.18310546875,0.4576416015625,-0.744384765625,0.486083984375,-247.0,217.0,-100.0,102394.0,-8.866000175476074,0,0
1.1115282000391744,0.62908935546875,-0.49676513671875,0.100860595703125,-0.5892333984375,-0.244140625,0.1220703125,-0.18310546875,0.4600830078125,-0.7449951171875,0.4869384765625,-247.0,217.0,-100.0,102394.0,-8.866000175476074,0,0
1.1115950000239536,0.629119873046875,-0.49676513671875,0.100860595703125,-0.5892333984375,-0.18310546875,0.18310546875,-0.1220703125,0.4573974609375,-0.7445068359375,0.4857177734375,-247.0,217.0,-100.0,102394.0,-8.866000175476074,0,0
1.1756586999981664,0.62908935546875,-0.49676513671875,0.100860595703125,-0.5892333984375,0.18310546875,0.0,0.06103515625,0.4583740234375,-0.7432861328125,0.4859619140625,-247.0,217.0,-100.0,102394.0,-8.866000175476074,0,0
1.1757419999921694,0.62908935546875,-0.496795654296875,0.100860595703125,-0.589263916015625,-0.30517578125,0.1220703125,-0.18310546875,0.4593505859375,-0.7435302734375,0.48681640625,-247.0,217.0,-100.0,102394.0,-8.866000175476074,0,0
1.1758214000146836,0.62908935546875,-0.49676513671875,0.100860595703125,-0.589263916015625,-0.18310546875,0.18310546875,0.18310546875,0.4609375,-0.744384765625,0.486572265625,-247.0,217.0,-100.0,102394.0,-8.866000175476074,0,0
1.1758948999922723,0.62908935546875,-0.496795654296875,0.100860595703125,-0.5892333984375,-0.244140625,-0.1220703125,0.06103515625,0.458251953125,-0.7449951171875,0.4876708984375,-247.0,217.0,-100.0,102394.0,-8.866000175476074,0,0
1.176084400038235,0.62908935546875,-0.496795654296875,0.100860595703125,-0.5892333984375,0.0,0.06103515625,-0.1220703125,0.4591064453125,-0.745849609375,0.4852294921875,-247.0,217.0,-100.0,102394.0,-8.866000175476074,0,0
1.1761697999900207,0.62908935546875,-0.496795654296875,0.100860595703125,-0.5892333984375,0.1220703125,0.1220703125,-0.244140625,0.4603271484375,-0.7437744140625,0.4853515625,-247.0,217.0,-100.0,102394.0,-8.866000175476074,0,0
1.1762466999934986,0.62908935546875,-0.496795654296875,0.100860595703125,-0.5892333984375,-0.06103515625,0.1220703125,-0.18310546875,0.4591064453125,-0.7440185546875,0.48583984375,-247.0,217.0,-100.0,102394.0,-8.866000175476074,0,0
1.176384499995038,0.62908935546875,-0.496795654296875,0.100860595703125,-0.5892333984375,0.244140625,0.18310546875,0.0,0.4588623046875,-0.7440185546875,0.4849853515625,-247.0,217.0,-100.0,102394.0,-8.866000175476074,0,0
1.1764570000232197,0.62908935546875,-0.496795654296875,0.100860595703125,-0.5892333984375,0.79345703125,-0.06103515625,0.18310546875,0.457763671875,-0.741455078125,0.486328125,-246.0,217.0,-100.0,102394.0,-8.866000175476074,0,0
1.176530400000047,0.62908935546875,-0.496795654296875,0.100860595703125,-0.5892333984375,-0.3662109375,0.30517578125,0.1220703125,0.45947265625,-0.743408203125,0.4853515625,-246.0,217.0,-100.0,102394.0,-8.866000175476074,0,0
1.244400300027337,0.62896728515625,-0.49676513671875,0.1009521484375,-0.589385986328125,0.18310546875,0.0,0.0,0.459228515625,-0.74462890625,0.486083984375,-246.0,217.0,-100.0,102394.0,-8.866000175476074,0,0
1.2444871999905445,0.62896728515625,-0.49676513671875,0.1009521484375,-0.589385986328125,-0.18310546875,0.18310546875,0.06103515625,0.4593505859375,-0.7435302734375,0.486572265625,-246.0,217.0,-100.0,102394.0,-8.866000175476074,0,0
1.2445600000210106,0.62896728515625,-0.49676513671875,0.1009521484375,-0.589385986328125,0.0,0.244140625,-0.18310546875,0.4580078125,-0.742431640625,0.4854736328125,-246.0,217.0,-100.0,102394.0,-8.866000175476074,0,0
1.2446348000084981,0.62896728515625,-0.49676513671875,0.1009521484375,-0.589385986328125,0.0,0.244140625,-0.18310546875,0.4580078125,-0.742431640625,0.4854736328125,-246.0,217.0,-100.0,102394.0,-8.866000175476074,0,0
1.2447082999860868,0.62896728515625,-0.49676513671875,0.1009521484375,-0.589385986328125,-0.06103515625,-0.1220703125,-0.18310546875,0.4580078125,-0.7459716796875,0.4866943359375,-246.0,217.0,-100.0,102394.0,-8.866000175476074,0,0
1.2447815000195988,0.62896728515625,-0.49676513671875,0.1009521484375,-0.589385986328125,-0.06103515625,-0.06103515625,-0.06103515625,0.4593505859375,-0.74267578125,0.4862060546875,-246.0,217.0,-100.0,102394.0,-8.866000175476074,0,0
1.244854699994903,0.62896728515625,-0.49676513671875,0.1009521484375,-0.589385986328125,0.0,0.1220703125,0.0,0.4581298828125,-0.7435302734375,0.4853515625,-246.0,217.0,-100.0,102394.0,-8.866000175476074,0,0
1.2457271000021137,0.62896728515625,-0.49676513671875,0.1009521484375,-0.589385986328125,-0.30517578125,0.1220703125,-0.06103515625,0.4588623046875,-0.7447509765625,0.4859619140625,-246.0,217.0,-100.0,102394.0,-8.866000175476074,0,0
1.245805400016252,0.62896728515625,-0.49676513671875,0.1009521484375,-0.589385986328125,-0.244140625,0.30517578125,0.06103515625,0.4608154296875,-0.7454833984375,0.4857177734375,-246.0,217.0,-100.0,102394.0,-8.866000175476074,0,0
1.2458776999847032,0.62896728515625,-0.49676513671875,0.1009521484375,-0.589385986328125,-0.18310546875,0.1220703125,-0.1220703125,0.4581298828125,-0.7425537109375,0.487548828125,-246.0,217.0,-100.0,102394.0,-8.866000175476074,0,0
1.2459501000121236,0.62896728515625,-0.49676513671875,0.1009521484375,-0.589385986328125,0.0,0.1220703125,0.0,0.45703125,-0.74462890625,0.4864501953125,-246.0,217.0,-100.0,102394.0,-8.866000175476074,0,0
1.2460193000151776,0.62896728515625,-0.49676513671875,0.1009521484375,-0.589385986328125,0.0,0.244140625,-0.1220703125,0.4586181640625,-0.7437744140625,0.485595703125,-246.0,217.0,-100.0,102394.0,-8.866000175476074,0,0
1.2465346999815665,0.62896728515625,-0.49676513671875,0.100982666015625,-0.589385986328125,-0.06103515625,0.0,0.06103515625,0.4573974609375,-0.744140625,0.4852294921875,-246.0,217.0,-100.0,102394.0,-8.866000175476074,0,0
1.2943790000281297,0.62896728515625,-0.49676513671875,0.1009521484375,-0.589385986328125,-0.1220703125,0.18310546875,-0.1220703125,0.460693359375,-0.743896484375,0.4853515625,-246.0,217.0,-100.0,102394.0,-8.866000175476074,0,0
1.2944633000297472,0.62896728515625,-0.49676513671875,0.1009521484375,-0.589385986328125,-0.1220703125,0.18310546875,-0.1220703125,0.460693359375,-0.743896484375,0.4853515625,-246.0,217.0,-100.0,102394.0,-8.866000175476074,0,0
1.2945370000088587,0.62896728515625,-0.49676513671875,0.1009521484375,-0.589385986328125,0.0,0.30517578125,0.0,0.4600830078125,-0.745849609375,0.486083984375,-246.0,217.0,-100.0,102394.0,-8.866000175476074,0,0
1.2946113999933004,0.62896728515625,-0.49676513671875,0.1009521484375,-0.589385986328125,0.1220703125,0.1220703125,-0.18310546875,0.4581298828125,-0.74267578125,0.4859619140625,-246.0,217.0,-100.0,102394.0,-8.866000175476074,0,0
1.2949748000246473,0.62896728515625,-0.496795654296875,0.1009521484375,-0.589385986328125,0.1220703125,0.0,-0.18310546875,0.457275390625,-0.7457275390625,0.48486328125,-246.0,217.0,-99.0,102394.0,-8.866000175476074,0,0
1.2950588000239804,0.62896728515625,-0.496795654296875,0.1009521484375,-0.589385986328125,-0.244140625,0.244140625,-0.06103515625,0.4564208984375,-0.7437744140625,0.4844970703125,-246.0,217.0,-99.0,102394.0,-8.866000175476074,0,0
1.2951318999985233,0.62896728515625,-0.496795654296875,0.1009521484375,-0.589385986328125,0.0,0.3662109375,0.1220703125,0.4593505859375,-0.743408203125,0.4852294921875,-246.0,217.0,-99.0,102394.0,-8.866000175476074,0,0
1.2952032000175677,0.62896728515625,-0.496795654296875,0.1009521484375,-0.589385986328125,-0.244140625,0.1220703125,0.18310546875,0.4591064453125,-0.7437744140625,0.48583984375,-246.0,217.0,-99.0,102394.0,-8.866000175476074,0,0
1.2952741000335664,0.62896728515625,-0.496795654296875,0.1009521484375,-0.589385986328125,-0.1220703125,0.30517578125,0.06103515625,0.4603271484375,-0.7435302734375,0.486083984375,-246.0,217.0,-99.0,102394.0,-8.866000175476074,0,0
1.2953453999944031,0.62896728515625,-0.496795654296875,0.1009521484375,-0.589385986328125,0.0,0.30517578125,-0.1220703125,0.4593505859375,-0.7406005859375,0.485595703125,-246.0,217.0,-99.0,102394.0,-8.866000175476074,0,0
1.350694500026293,0.62896728515625,-0.49676513671875,0.1009521484375,-0.589385986328125,-0.244140625,0.1220703125,-0.30517578125,0.4573974609375,-0.7454833984375,0.48583984375,-246.0,217.0,-99.0,102394.0,-8.866000175476074,0,0
1.3507707000244409,0.62896728515625,-0.49676513671875,0.1009521484375,-0.589385986328125,-0.1220703125,0.06103515625,-0.1220703125,0.4593505859375,-0.7454833984375,0.4864501953125,-246.0,217.0,-99.0,102394.0,-8.866000175476074,0,0
1.350842299987562,0.62896728515625,-0.49676513671875,0.1009521484375,-0.589385986328125,0.1220703125,-0.06103515625,0.06103515625,0.4573974609375,-0.7442626953125,0.4849853515625,-246.0,217.0,-99.0,102394.0,-8.866000175476074,0,0
1.350913500005845,0.62896728515625,-0.49676513671875,0.1009521484375,-0.589385986328125,0.1220703125,-0.06103515625,0.06103515625,0.4573974609375,-0.7442626953125,0.4849853515625,-246.0,217.0,-99.0,102394.0,-8.866000175476074,0,0
1.350985600030981,0.62896728515625,-0.496795654296875,0.1009521484375,-0.589385986328125,0.06103515625,0.244140625,0.0,0.4583740234375,-0.7440185546875,0.485107421875,-246.0,217.0,-99.0,102394.0,-8.866000175476074,0,0
1.352587000001222,0.628936767578125,-0.496795654296875,0.1009521484375,-0.589385986328125,-0.244140625,0.0,-0.244140625,0.460205078125,-0.7432861328125,0.485595703125,-246.0,217.0,-99.0,102394.0,-8.866000175476074,0,0
1.352667700033635,0.628936767578125,-0.496795654296875,0.1009521484375,-0.589385986328125,-0.06103515625,0.244140625,0.06103515625,0.4595947265625,-0.7432861328125,0.485107421875,-246.0,217.0,-99.0,102394.0,-8.866000175476074,0,0
1.3527390999952331,0.628936767578125,-0.496795654296875,0.1009521484375,-0.589385986328125,0.06103515625,-0.1220703125,0.244140625,0.4580078125,-0.7435302734375,0.48681640625,-246.0,217.0,-99.0,102394.0,-8.866000175476074,0,0
1.3528095000074245,0.628936767578125,-0.496795654296875,0.1009521484375,-0.589385986328125,-0.30517578125,-0.1220703125,0.06103515625,0.4583740234375,-0.742919921875,0.485595703125,-246.0,217.0,-99.0,102394.0,-8.866000175476074,0,0
1.3528762999922037,0.628936767578125,-0.496795654296875,0.1009521484375,-0.589385986328125,0.1220703125,0.1220703125,-0.1220703125,0.459228515625,-0.7447509765625,0.486083984375,-246.0,217.0,-99.0,102394.0,-8.866000175476074,0,0
1.3529427000321448,0.628936767578125,-0.496795654296875,0.1009521484375,-0.589385986328125,-0.18310546875,0.244140625,0.30517578125,0.45849609375,-0.744873046875,0.4864501953125,-246.0,217.0,-99.0,102394.0,-8.866000175476074,0,0
1.4211248999927193,0.628936767578125,-0.496795654296875,0.1009521484375,-0.589385986328125,0.18310546875,0.18310546875,0.0,0.45947265625,-0.7447509765625,0.4853515625,-246.0,217.0,-99.0,102394.0,-8.866000175476074,0,0
1.421203100006096,0.628936767578125,-0.496795654296875,0.1009521484375,-0.589385986328125,0.18310546875,0.18310546875,0.0,0.45947265625,-0.7447509765625,0.4853515625,-245.0,217.0,-98.0,102394.0,-8.866000175476074,0,0
1.4212729000137188,0.629058837890625,-0.496826171875,0.100830078125,-0.5892333984375,-0.18310546875,0.0,-0.1220703125,0.4588623046875,-0.7454833984375,0.4862060546875,-245.0,217.0,-98.0,102394.0,-8.866000175476074,0,0
1.4213414000114426,0.629058837890625,-0.496826171875,0.100830078125,-0.589263916015625,-0.244140625,0.06103515625,0.0,0.4600830078125,-0.744384765625,0.4866943359375,-245.0,217.0,-98.0,102394.0,-8.866000175476074,0,0
1.4214094000053592,0.629058837890625,-0.496826171875,0.100830078125,-0.589263916015625,-0.30517578125,0.06103515625,0.06103515625,0.4588623046875,-0.7451171875,0.4849853515625,-245.0,217.0,-98.0,102394.0,-8.866000175476074,0,0
1.4214786000084132,0.629058837890625,-0.496826171875,0.100830078125,-0.589263916015625,-0.30517578125,0.06103515625,0.06103515625,0.4588623046875,-0.7451171875,0.4849853515625,-245.0,217.0,-98.0,102394.0,-8.866000175476074,0,0
1.421585000003688,0.629058837890625,-0.496826171875,0.100830078125,-0.589263916015625,0.0,0.0,0.0,0.459716796875,-0.7447509765625,0.4857177734375,-245.0,217.0,-98.0,102394.0,-8.866000175476074,0,0
1.4216529999976046,0.629058837890625,-0.496826171875,0.100830078125,-0.589263916015625,-0.06103515625,0.3662109375,0.06103515625,0.4588623046875,-0.7447509765625,0.485107421875,-245.0,217.0,-98.0,102394.0,-8.866000175476074,0,0
1.4217209999915212,0.629058837890625,-0.496826171875,0.100830078125,-0.5892333984375,-0.30517578125,-0.06103515625,-0.06103515625,0.4561767578125,-0.7432861328125,0.4853515625,-245.0,217.0,-98.0,102394.0,-8.866000175476074,0,0
1.4217883000383154,0.629058837890625,-0.496826171875,0.100830078125,-0.5892333984375,-0.30517578125,-0.06103515625,-0.06103515625,0.4561767578125,-0.7432861328125,0.4853515625,-245.0,217.0,-98.0,102394.0,-8.866000175476074,0,0
1.4218556000269018,0.62908935546875,-0.496826171875,0.100830078125,-0.5892333984375,-0.18310546875,0.18310546875,0.06103515625,0.4576416015625,-0.7435302734375,0.48681640625,-245.0,217.0,-98.0,102394.0,-8.866000175476074,0,0
1.4219257000368088,0.629058837890625,-0.496826171875,0.100830078125,-0.5892333984375,-0.18310546875,0.18310546875,0.06103515625,0.4576416015625,-0.7435302734375,0.48681640625,-245.0,217.0,-98.0,102394.0,-8.866000175476074,0,0
1.422002000035718,0.62908935546875,-0.496826171875,0.100830078125,-0.5892333984375,-0.1220703125,-0.18310546875,0.06103515625,0.458740234375,-0.743408203125,0.485107421875,-245.0,217.0,-98.0,102394.0,-8.866000175476074,0,0
1.4809702000347897,0.62908935546875,-0.496795654296875,0.100830078125,-0.589263916015625,0.06103515625,0.244140625,-0.18310546875,0.4560546875,-0.742919921875,0.486083984375,-245.0,217.0,-98.0,102394.0,-8.866000175476074,0,0
1.4810477999853902,0.62908935546875,-0.496795654296875,0.100830078125,-0.589263916015625,0.06103515625,0.1220703125,0.18310546875,0.4576416015625,-0.7427978515625,0.4864501953125,-245.0,217.0,-98.0,102394.0,-8.866000175476074,0,0
1.4811181999975815,0.62908935546875,-0.496795654296875,0.100830078125,-0.589263916015625,-0.06103515625,0.06103515625,-0.1220703125,0.4605712890625,-0.7432861328125,0.4859619140625,-245.0,217.0,-98.0,102394.0,-8.866000175476074,0,0
1.4811907000257634,0.62908935546875,-0.496795654296875,0.100830078125,-0.589263916015625,0.06103515625,0.1220703125,0.06103515625,0.456298828125,-0.7431640625,0.4852294921875,-245.0,217.0,-98.0,102394.0,-8.866000175476074,0,0
1.4812600000295788,0.62908935546875,-0.496795654296875,0.100860595703125,-0.5892333984375,-0.18310546875,0.1220703125,0.06103515625,0.4578857421875,-0.7459716796875,0.4874267578125,-245.0,217.0,-98.0,102394.0,-8.866000175476074,0,0
1.4864446999854408,0.62908935546875,-0.496795654296875,0.100860595703125,-0.5892333984375,-0.18310546875,0.1220703125,0.06103515625,0.4578857421875,-0.7459716796875,0.4874267578125,-245.0,217.0,-98.0,102394.0,-8.866000175476074,0,0
1.4865185000235215,0.62908935546875,-0.496795654296875,0.100860595703125,-0.5892333984375,0.06103515625,0.244140625,-0.1220703125,0.4586181640625,-0.7447509765625,0.4854736328125,-245.0,217.0,-98.0,102394.0,-8.866000175476074,0,0
1.4865866000181995,0.62908935546875,-0.496795654296875,0.100860595703125,-0.5892333984375,-0.42724609375,0.0,0.06103515625,0.4581298828125,-0.744140625,0.4862060546875,-245.0,217.0,-97.0,102394.0,-8.866000175476074,0,0
1.486654800013639,0.62908935546875,-0.496795654296875,0.100860595703125,-0.5892333984375,-0.06103515625,0.06103515625,0.0,0.4588623046875,-0.74365234375,0.4842529296875,-245.0,217.0,-97.0,102394.0,-8.866000175476074,0,0
1.4867219000007026,0.62921142578125,-0.496826171875,0.100738525390625,-0.589111328125,-0.3662109375,0.06103515625,0.06103515625,0.4586181640625,-0.7469482421875,0.4847412109375,-245.0,217.0,-97.0,102394.0,-8.866000175476074,0,0
1.4867908000014722,0.62921142578125,-0.496826171875,0.100738525390625,-0.589111328125,0.1220703125,-0.1220703125,-0.30517578125,0.45947265625,-0.7437744140625,0.4857177734375,-245.0,217.0,-97.0,102394.0,-8.866000175476074,0,0
1.545547700021416,0.62921142578125,-0.496826171875,0.100738525390625,-0.589111328125,-0.06103515625,0.0,0.18310546875,0.4583740234375,-0.7440185546875,0.486083984375,-245.0,217.0,-97.0,102394.0,-8.866000175476074,0,0
1.5456298000062816,0.62921142578125,-0.496826171875,0.100738525390625,-0.589111328125,-0.06103515625,0.244140625,0.06103515625,0.4599609375,-0.744873046875,0.4864501953125,-245.0,217.0,-97.0,102394.0,-8.866000175476074,0,0
1.5457010000245646,0.62921142578125,-0.496826171875,0.100738525390625,-0.589111328125,-0.30517578125,0.244140625,0.06103515625,0.4598388671875,-0.7440185546875,0.48681640625,-245.0,217.0,-97.0,102394.0,-8.866000175476074,0,0
1.5457716000382788,0.62921142578125,-0.496826171875,0.100738525390625,-0.589111328125,-0.06103515625,0.30517578125,-0.1220703125,0.4581298828125,-0.74560546875,0.4862060546875,-245.0,217.0,-97.0,102394.0,-8.866000175476074,0,0
1.5458412999869324,0.62921142578125,-0.496826171875,0.100738525390625,-0.589111328125,0.0,0.06103515625,0.1220703125,0.456787109375,-0.7432861328125,0.4840087890625,-245.0,217.0,-97.0,102394.0,-8.866000175476074,0,0
1.5459425000008196,0.62921142578125,-0.496826171875,0.100738525390625,-0.589111328125,0.0,0.06103515625,0.1220703125,0.456787109375,-0.7432861328125,0.4840087890625,-245.0,217.0,-97.0,102394.0,-8.866000175476074,0,0
1.5460124000092037,0.62921142578125,-0.496856689453125,0.100738525390625,-0.589111328125,0.1220703125,0.06103515625,-0.30517578125,0.4571533203125,-0.7442626953125,0.4832763671875,-245.0,217.0,-97.0,102394.0,-8.866000175476074,0,0
1.5460805000038818,0.62921142578125,-0.496856689453125,0.100738525390625,-0.589111328125,-0.18310546875,0.06103515625,-0.1220703125,0.4581298828125,-0.74462890625,0.4854736328125,-245.0,217.0,-97.0,102394.0,-8.866000175476074,0,0
1.5461467999848537,0.62921142578125,-0.496856689453125,0.100738525390625,-0.589111328125,-0.1220703125,0.06103515625,-0.1220703125,0.459228515625,-0.744140625,0.48486328125,-245.0,217.0,-97.0,102394.0,-8.866000175476074,0,0
1.5462138000293635,0.62921142578125,-0.496856689453125,0.100738525390625,-0.589111328125,0.0,0.1220703125,-0.06103515625,0.458251953125,-0.742919921875,0.4840087890625,-245.0,217.0,-97.0,102394.0,-8.866000175476074,0,0
1.5462817000225186,0.62921142578125,-0.496856689453125,0.100738525390625,-0.589111328125,0.244140625,0.1220703125,-0.06103515625,0.4581298828125,-0.74462890625,0.4862060546875,-245.0,217.0,-97.0,102394.0,-8.866000175476074,0,0
1.6016395000042394,0.62921142578125,-0.496856689453125,0.100738525390625,-0.589111328125,0.06103515625,0.18310546875,0.06103515625,0.4586181640625,-0.7435302734375,0.4854736328125,-245.0,217.0,-97.0,102394.0,-8.866000175476074,0,0
1.6017157000023872,0.62921142578125,-0.496856689453125,0.100738525390625,-0.589111328125,-0.3662109375,0.1220703125,-0.18310546875,0.457763671875,-0.744384765625,0.4876708984375,-245.0,217.0,-97.0,102394.0,-8.866000175476074,0,0
1.6017889000358991,0.62921142578125,-0.496856689453125,0.100738525390625,-0.589111328125,-0.18310546875,0.1220703125,0.1220703125,0.4600830078125,-0.745849609375,0.487060546875,-245.0,217.0,-97.0,102394.0,-8.866000175476074,0,0
1.601901700021699,0.62921142578125,-0.496856689453125,0.100738525390625,-0.589111328125,-0.06103515625,0.0,0.1220703125,0.459228515625,-0.7471923828125,0.4854736328125,-245.0,217.0,-97.0,102394.0,-8.866000175476074,0,0
1.6019675999996252,0.62921142578125,-0.496856689453125,0.10076904296875,-0.589111328125,-0.1220703125,0.06103515625,-0.18310546875,0.4564208984375,-0.742919921875,0.486083984375,-244.0,217.0,-97.0,102394.0,-8.866000175476074,0,0
1.6020327000296675,0.62933349609375,-0.496856689453125,0.10064697265625,-0.588958740234375,0.1220703125,0.0,-0.06103515625,0.458984375,-0.7442626953125,0.486083984375,-244.0,217.0,-97.0,102394.0,-8.866000175476074,0,0
1.602207100018859,0.62933349609375,-0.496856689453125,0.10064697265625,-0.588958740234375,-0.244140625,0.30517578125,-0.1220703125,0.458984375,-0.7459716796875,0.487060546875,-244.0,217.0,-97.0,102394.0,-8.866000175476074,0,0
1.6022736000013538,0.62933349609375,-0.496856689453125,0.10064697265625,-0.588958740234375,0.30517578125,0.244140625,-0.3662109375,0.4600830078125,-0.7447509765625,0.4866943359375,-244.0,217.0,-97.0,102394.0,-8.866000175476074,0,0
1.6023407999891788,0.62933349609375,-0.496856689453125,0.10064697265625,-0.588958740234375,0.30517578125,0.244140625,-0.3662109375,0.4600830078125,-0.7447509765625,0.4866943359375,-244.0,217.0,-97.0,102394.0,-8.866000175476074,0,0
1.6024248999892734,0.62933349609375,-0.49688720703125,0.10064697265625,-0.588958740234375,-0.1220703125,0.06103515625,0.0,0.459228515625,-0.744873046875,0.4859619140625,-244.0,217.0,-97.0,102394.0,-8.866000175476074,0,0
1.6024909000261687,0.62933349609375,-0.496856689453125,0.10064697265625,-0.588958740234375,0.18310546875,0.30517578125,0.1220703125,0.4588623046875,-0.7425537109375,0.4864501953125,-244.0,217.0,-97.0,102394.0,-8.866000175476074,0,0
1.602556400001049,0.62933349609375,-0.49688720703125,0.10064697265625,-0.588958740234375,-0.18310546875,0.244140625,0.0,0.458251953125,-0.7442626953125,0.485107421875,-244.0,217.0,-97.0,102394.0,-8.866000175476074,0,0
1.6664810000220314,0.62933349609375,-0.49688720703125,0.10064697265625,-0.588958740234375,-0.18310546875,0.0,-0.18310546875,0.4576416015625,-0.74462890625,0.486572265625,-244.0,217.0,-97.0,102394.0,-8.866000175476074,0,0
1.6665616999962367,0.62933349609375,-0.49688720703125,0.10064697265625,-0.588958740234375,-0.1220703125,0.06103515625,0.06103515625,0.4610595703125,-0.74267578125,0.4864501953125,-244.0,217.0,-97.0,102394.0,-8.866000175476074,0,0
1.6666327000129968,0.62933349609375,-0.496856689453125,0.10064697265625,-0.588958740234375,0.06103515625,0.06103515625,-0.1220703125,0.4588623046875,-0.74462890625,0.48779296875,-244.0,217.0,-97.0,102394.0,-8.866000175476074,0,0
1.6667047000373714,0.62933349609375,-0.496856689453125,0.10064697265625,-0.588958740234375,0.1220703125,0.1220703125,0.0,0.459716796875,-0.7451171875,0.4879150390625,-244.0,217.0,-97.0,102394.0,-8.866000175476074,0,0
1.6667812000378035,0.62933349609375,-0.496856689453125,0.10064697265625,-0.588958740234375,-0.06103515625,0.1220703125,0.06103515625,0.46044921875,-0.744140625,0.48681640625,-244.0,217.0,-97.0,102394.0,-8.866000175476074,0,0
1.667995100026019,0.62933349609375,-0.496856689453125,0.10064697265625,-0.588958740234375,-0.1220703125,0.1220703125,-0.244140625,0.4580078125,-0.743408203125,0.4859619140625,-244.0,217.0,-97.0,102394.0,-8.866000175476074,0,0
1.6680700000142679,0.62933349609375,-0.496856689453125,0.10064697265625,-0.588958740234375,-0.3662109375,0.18310546875,0.18310546875,0.458740234375,-0.7418212890625,0.486083984375,-244.0,217.0,-97.0,102394.0,-8.866000175476074,0,0
1.668138100008946,0.62933349609375,-0.496856689453125,0.10064697265625,-0.588958740234375,-0.3662109375,0.18310546875,0.18310546875,0.458740234375,-0.7418212890625,0.486083984375,-244.0,217.0,-97.0,102394.0,-8.866000175476074,0,0
1.6682095000287518,0.62933349609375,-0.496856689453125,0.10064697265625,-0.588958740234375,-0.244140625,0.0,-0.18310546875,0.458251953125,-0.744140625,0.4874267578125,-244.0,217.0,-97.0,102394.0,-8.866000175476074,0,0
1.6747533000307158,0.62933349609375,-0.496856689453125,0.100616455078125,-0.5889892578125,-0.1220703125,0.244140625,0.0,0.4599609375,-0.7445068359375,0.4871826171875,-244.0,217.0,-97.0,102394.0,-8.866000175476074,0,0
1.6748701999895275,0.62933349609375,-0.496856689453125,0.10064697265625,-0.5889892578125,-0.1220703125,0.244140625,0.0,0.4599609375,-0.7445068359375,0.4871826171875,-245.0,216.0,-97.0,102394.0,-8.867000579833984,0,0
1.7315044000279158,0.62921142578125,-0.496795654296875,0.100738525390625,-0.589111328125,0.06103515625,0.18310546875,0.06103515625,0.4591064453125,-0.7445068359375,0.486572265625,-245.0,216.0,-97.0,102394.0,-8.867000579833984,0,0
1.7315889000310563,0.62921142578125,-0.496795654296875,0.100738525390625,-0.589111328125,0.18310546875,0.18310546875,0.0,0.4569091796875,-0.742919921875,0.48876953125,-245.0,216.0,-97.0,102394.0,-8.867000579833984,0,0
1.7317441999912262,0.62921142578125,-0.496795654296875,0.100738525390625,-0.589111328125,0.1220703125,0.1220703125,-0.1220703125,0.460205078125,-0.7435302734375,0.486572265625,-245.0,216.0,-97.0,102394.0,-8.867000579833984,0,0
1.7318549000192434,0.62921142578125,-0.496795654296875,0.100738525390625,-0.589111328125,-0.06103515625,0.18310546875,-0.1220703125,0.458251953125,-0.74462890625,0.4862060546875,-245.0,216.0,-97.0,102394.0,-8.867000579833984,0,0
1.7319644000381231,0.62921142578125,-0.496795654296875,0.100738525390625,-0.589111328125,-0.244140625,-0.1220703125,0.1220703125,0.457763671875,-0.743408203125,0.4879150390625,-245.0,216.0,-97.0,102394.0,-8.867000579833984,0,0
1.7322189999977127,0.62921142578125,-0.496795654296875,0.100738525390625,-0.589111328125,0.06103515625,-0.18310546875,-0.1220703125,0.4608154296875,-0.740234375,0.4869384765625,-245.0,216.0,-97.0,102394.0,-8.867000579833984,0,0
1.7322970000095665,0.62921142578125,-0.496795654296875,0.100738525390625,-0.589141845703125,-0.1220703125,0.06103515625,0.1220703125,0.45849609375,-0.7437744140625,0.487060546875,-245.0,216.0,-97.0,102394.0,-8.867000579833984,0,0
1.7323700999841094,0.62921142578125,-0.496795654296875,0.100738525390625,-0.589141845703125,-0.1220703125,0.06103515625,0.1220703125,0.45849609375,-0.7437744140625,0.487060546875,-245.0,216.0,-97.0,102394.0,-8.867000579833984,0,0
1.7324437000206672,0.62921142578125,-0.496795654296875,0.100738525390625,-0.589141845703125,-0.1220703125,0.06103515625,0.1220703125,0.45849609375,-0.7437744140625,0.487060546875,-245.0,216.0,-97.0,102394.0,-8.867000579833984,0,0
1.7325204000226222,0.629241943359375,-0.496795654296875,0.100738525390625,-0.589141845703125,0.1220703125,0.42724609375,0.06103515625,0.457275390625,-0.7440185546875,0.488037109375,-245.0,216.0,-97.0,102394.0,-8.867000579833984,0,0
1.7325959000154398,0.629241943359375,-0.49676513671875,0.100738525390625,-0.589141845703125,-0.244140625,0.3662109375,-0.06103515625,0.45751953125,-0.7447509765625,0.487060546875,-245.0,216.0,-97.0,102394.0,-8.867000579833984,0,0
1.7882191999815404,0.629241943359375,-0.496795654296875,0.100738525390625,-0.589141845703125,-0.1220703125,-0.18310546875,0.0,0.4578857421875,-0.742919921875,0.487060546875,-245.0,216.0,-97.0,102394.0,-8.867000579833984,0,0
1.7882997000124305,0.629241943359375,-0.49676513671875,0.100738525390625,-0.589141845703125,0.0,0.30517578125,-0.244140625,0.458740234375,-0.744384765625,0.4857177734375,-245.0,216.0,-97.0,102394.0,-8.867000579833984,0,0
1.7883751000044867,0.629241943359375,-0.496795654296875,0.100738525390625,-0.589141845703125,-0.18310546875,0.06103515625,0.0,0.4600830078125,-0.7437744140625,0.4871826171875,-245.0,216.0,-97.0,102394.0,-8.867000579833984,0,0
1.7885951999924146,0.629241943359375,-0.496795654296875,0.1007080078125,-0.589141845703125,0.244140625,0.18310546875,-0.1220703125,0.460205078125,-0.74462890625,0.4854736328125,-245.0,216.0,-97.0,102394.0,-8.867000579833984,0,0
1.788672199996654,0.629241943359375,-0.496795654296875,0.1007080078125,-0.589141845703125,-0.18310546875,0.0,0.06103515625,0.4591064453125,-0.742919921875,0.486328125,-245.0,216.0,-97.0,102394.0,-8.867000579833984,0,0
1.7887938999920152,0.629241943359375,-0.49676513671875,0.1007080078125,-0.589141845703125,-0.18310546875,0.18310546875,-0.06103515625,0.4603271484375,-0.74365234375,0.4869384765625,-245.0,216.0,-97.0,102394.0,-8.867000579833984,0,0
1.788964000006672,0.629241943359375,-0.49676513671875,0.1007080078125,-0.589141845703125,-0.06103515625,0.244140625,-0.06103515625,0.458740234375,-0.7423095703125,0.4869384765625,-244.0,217.0,-96.0,102394.0,-8.866000175476074,0,0
1.7890447999816388,0.629241943359375,-0.49676513671875,0.1007080078125,-0.589141845703125,-0.18310546875,-0.06103515625,0.18310546875,0.455810546875,-0.745361328125,0.4874267578125,-244.0,217.0,-96.0,102394.0,-8.866000175476074,0,0
1.789120500034187,0.629608154296875,-0.496826171875,0.10040283203125,-0.588714599609375,-0.06103515625,0.3662109375,-0.30517578125,0.459228515625,-0.744384765625,0.487548828125,-244.0,217.0,-96.0,102394.0,-8.866000175476074,0,0
1.7892374999937601,0.629638671875,-0.496826171875,0.10040283203125,-0.588714599609375,-0.3662109375,0.244140625,-0.18310546875,0.4591064453125,-0.7437744140625,0.488037109375,-244.0,217.0,-96.0,102394.0,-8.866000175476074,0,0
1.789312000037171,0.629638671875,-0.496826171875,0.10040283203125,-0.588714599609375,-0.3662109375,0.244140625,-0.18310546875,0.4591064453125,-0.7437744140625,0.488037109375,-244.0,217.0,-96.0,102394.0,-8.866000175476074,0,0
1.7912580000120215,0.629638671875,-0.496826171875,0.100372314453125,-0.5887451171875,0.30517578125,0.06103515625,-0.1220703125,0.45947265625,-0.741943359375,0.489013671875,-244.0,217.0,-96.0,102394.0,-8.866000175476074,0,0
1.8525387999834493,0.629608154296875,-0.496826171875,0.100372314453125,-0.5887451171875,-0.06103515625,0.18310546875,0.18310546875,0.4581298828125,-0.74560546875,0.48681640625,-244.0,217.0,-96.0,102394.0,-8.866000175476074,0,0
1.8526229999843054,0.629608154296875,-0.496826171875,0.100372314453125,-0.5887451171875,-0.06103515625,0.1220703125,0.06103515625,0.4598388671875,-0.7425537109375,0.4873046875,-244.0,217.0,-96.0,102394.0,-8.866000175476074,0,0
1.8526978000300005,0.629608154296875,-0.496826171875,0.100372314453125,-0.5887451171875,-0.1220703125,0.18310546875,-0.244140625,0.4595947265625,-0.743896484375,0.48681640625,-244.0,217.0,-96.0,102394.0,-8.866000175476074,0,0
1.852770800003782,0.629638671875,-0.496826171875,0.100372314453125,-0.5887451171875,0.06103515625,0.18310546875,0.1220703125,0.458251953125,-0.7449951171875,0.487060546875,-244.0,217.0,-96.0,102394.0,-8.866000175476074,0,0
1.8528447999851778,0.629638671875,-0.496795654296875,0.100372314453125,-0.5887451171875,0.0,0.18310546875,-0.244140625,0.457275390625,-0.7437744140625,0.488525390625,-244.0,217.0,-96.0,102394.0,-8.866000175476074,0,0
1.8529728000285104,0.629638671875,-0.496795654296875,0.100372314453125,-0.5887451171875,0.1220703125,0.30517578125,-0.06103515625,0.4569091796875,-0.742919921875,0.4876708984375,-244.0,217.0,-96.0,102394.0,-8.866000175476074,0,0
1.853042600036133,0.629638671875,-0.496795654296875,0.100372314453125,-0.5887451171875,-0.06103515625,0.0,0.06103515625,0.4603271484375,-0.7449951171875,0.488037109375,-244.0,217.0,-96.0,102394.0,-8.866000175476074,0,0
1.8534113999921829,0.629638671875,-0.496795654296875,0.100372314453125,-0.5887451171875,0.0,-0.06103515625,0.1220703125,0.458740234375,-0.7432861328125,0.4884033203125,-244.0,217.0,-96.0,102394.0,-8.866000175476074,0,0
1.8534871999872848,0.629638671875,-0.496795654296875,0.100372314453125,-0.5887451171875,-0.06103515625,0.0,0.18310546875,0.458740234375,-0.7447509765625,0.488037109375,-244.0,217.0,-96.0,102394.0,-8.866000175476074,0,0
1.8535596000147052,0.629638671875,-0.496795654296875,0.100372314453125,-0.5887451171875,-0.18310546875,0.1220703125,0.244140625,0.4593505859375,-0.743896484375,0.48876953125,-244.0,217.0,-96.0,102394.0,-8.866000175476074,0,0
1.853632899990771,0.629638671875,-0.496795654296875,0.100372314453125,-0.5887451171875,-0.18310546875,0.1220703125,0.244140625,0.4593505859375,-0.743896484375,0.48876953125,-244.0,217.0,-96.0,102394.0,-8.866000175476074,0,0
1.924170200014487,0.630035400390625,-0.496826171875,0.10003662109375,-0.588348388671875,-0.06103515625,0.0,0.06103515625,0.459716796875,-0.744384765625,0.4876708984375,-244.0,219.0,-96.0,102394.0,-8.866000175476074,0,0
1.924250399984885,0.630035400390625,-0.496856689453125,0.10003662109375,-0.588348388671875,-0.1220703125,0.30517578125,-0.244140625,0.4599609375,-0.7437744140625,0.4862060546875,-244.0,219.0,-96.0,102394.0,-8.866000175476074,0,0
1.9243249000282958,0.630035400390625,-0.496826171875,0.10003662109375,-0.588348388671875,-0.18310546875,0.06103515625,0.06103515625,0.458984375,-0.7437744140625,0.4869384765625,-244.0,219.0,-96.0,102394.0,-8.866000175476074,0,0
1.9243960999883711,0.630035400390625,-0.496826171875,0.10003662109375,-0.588348388671875,-0.06103515625,-0.18310546875,0.0,0.4586181640625,-0.742431640625,0.4862060546875,-244.0,219.0,-96.0,102394.0,-8.866000175476074,0,0
1.924468600016553,0.630035400390625,-0.496856689453125,0.10003662109375,-0.588348388671875,-0.1220703125,0.06103515625,0.1220703125,0.4609375,-0.7430419921875,0.487060546875,-244.0,219.0,-96.0,102394.0,-8.866000175476074,0,0
1.9245626000338234,0.630035400390625,-0.496856689453125,0.10003662109375,-0.588348388671875,-0.1220703125,0.18310546875,-0.1220703125,0.460205078125,-0.7435302734375,0.487060546875,-244.0,219.0,-96.0,102394.0,-8.866000175476074,0,0
1.9246349000022747,0.630035400390625,-0.496826171875,0.10003662109375,-0.588348388671875,-0.06103515625,0.06103515625,-0.06103515625,0.4599609375,-0.7447509765625,0.489013671875,-244.0,219.0,-96.0,102394.0,-8.866000175476074,0,0
1.9247088999836706,0.630035400390625,-0.496826171875,0.10003662109375,-0.588348388671875,-0.1220703125,0.18310546875,0.18310546875,0.4599609375,-0.743896484375,0.4886474609375,-244.0,219.0,-96.0,102394.0,-8.866000175476074,0,0
1.9257724999915808,0.630035400390625,-0.496826171875,0.10003662109375,-0.588348388671875,-0.244140625,0.06103515625,-0.244140625,0.4598388671875,-0.7440185546875,0.4879150390625,-244.0,219.0,-96.0,102394.0,-8.866000175476074,0,0
1.9258704000385478,0.630035400390625,-0.496826171875,0.10003662109375,-0.588348388671875,0.0,0.18310546875,0.06103515625,0.4561767578125,-0.74462890625,0.4874267578125,-244.0,219.0,-96.0,102394.0,-8.866000175476074,0,0
1.925952600024175,0.630035400390625,-0.496826171875,0.10003662109375,-0.588348388671875,0.0,0.18310546875,0.06103515625,0.4561767578125,-0.74462890625,0.4874267578125,-244.0,219.0,-96.0,102394.0,-8.866000175476074,0,0
1.9764072999823838,0.630035400390625,-0.496826171875,0.10003662109375,-0.588348388671875,0.06103515625,0.06103515625,-0.06103515625,0.457275390625,-0.7464599609375,0.486083984375,-244.0,219.0,-96.0,102394.0,-8.869000434875488,0,0
1.9764916999847628,0.630035400390625,-0.496826171875,0.10003662109375,-0.588348388671875,0.1220703125,0.1220703125,0.1220703125,0.4586181640625,-0.7440185546875,0.486328125,-244.0,219.0,-96.0,102394.0,-8.869000434875488,0,0
1.9765657000243664,0.630035400390625,-0.496826171875,0.10003662109375,-0.588348388671875,-0.18310546875,0.0,0.0,0.458740234375,-0.743408203125,0.487548828125,-244.0,219.0,-96.0,102394.0,-8.869000434875488,0,0
1.9766384999966249,0.630035400390625,-0.496795654296875,0.10003662109375,-0.588348388671875,0.0,0.244140625,0.0,0.4569091796875,-0.743408203125,0.4901123046875,-244.0,219.0,-96.0,102394.0,-8.869000434875488,0,0
1.9767135999863967,0.630035400390625,-0.496795654296875,0.10003662109375,-0.588348388671875,0.244140625,0.1220703125,0.1220703125,0.4583740234375,-0.7431640625,0.48779296875,-244.0,219.0,-96.0,102394.0,-8.869000434875488,0,0
1.976787300023716,0.630035400390625,-0.496795654296875,0.10003662109375,-0.588348388671875,-0.18310546875,0.06103515625,0.0,0.4586181640625,-0.7451171875,0.48876953125,-244.0,219.0,-96.0,102394.0,-8.869000434875488,0,0
1.9768748999922536,0.630035400390625,-0.496795654296875,0.10003662109375,-0.588348388671875,-0.1220703125,0.18310546875,0.06103515625,0.460693359375,-0.7445068359375,0.487548828125,-244.0,219.0,-96.0,102394.0,-8.869000434875488,0,0
1.9769461000105366,0.630035400390625,-0.496795654296875,0.10003662109375,-0.58837890625,-0.244140625,0.1220703125,-0.06103515625,0.4583740234375,-0.7440185546875,0.4876708984375,-244.0,219.0,-96.0,102394.0,-8.869000434875488,0,0
1.9770179000333883,0.630035400390625,-0.496795654296875,0.10003662109375,-0.58837890625,-0.1220703125,0.0,0.0,0.4571533203125,-0.7430419921875,0.48828125,-244.0,219.0,-96.0,102394.0,-8.869000434875488,0,0
1.9770908000064082,0.63018798828125,-0.496795654296875,0.09991455078125,-0.588226318359375,-0.1220703125,0.0,0.0,0.4571533203125,-0.7430419921875,0.48828125,-244.0,218.0,-98.0,102394.0,-8.869000434875488,0,0
1.9772453000186943,0.63018798828125,-0.496795654296875,0.09991455078125,-0.588226318359375,0.244140625,-0.06103515625,0.0,0.458251953125,-0.742919921875,0.4886474609375,-244.0,218.0,-98.0,102394.0,-8.869000434875488,0,0
1.9773220000206493,0.63018798828125,-0.496795654296875,0.09991455078125,-0.588226318359375,-0.18310546875,0.06103515625,0.06103515625,0.4609375,-0.74462890625,0.489501953125,-244.0,218.0,-98.0,102394.0,-8.869000434875488,0,0
2.0397492999909446,0.63018798828125,-0.496795654296875,0.09991455078125,-0.588226318359375,-0.30517578125,0.18310546875,0.06103515625,0.458984375,-0.745849609375,0.4873046875,-244.0,218.0,-98.0,102394.0,-8.869000434875488,0,0
2.039828500011936,0.63018798828125,-0.496795654296875,0.09991455078125,-0.588226318359375,0.06103515625,0.06103515625,0.06103515625,0.460205078125,-0.745849609375,0.4869384765625,-244.0,218.0,-98.0,102394.0,-8.869000434875488,0,0
2.03990099998191,0.63018798828125,-0.496795654296875,0.09991455078125,-0.588226318359375,-0.3662109375,0.0,0.18310546875,0.459228515625,-0.745361328125,0.4874267578125,-244.0,218.0,-98.0,102394.0,-8.869000434875488,0,0
2.0399737000116147,0.63018798828125,-0.49676513671875,0.09991455078125,-0.5882568359375,0.0,0.244140625,0.06103515625,0.4583740234375,-0.744384765625,0.4871826171875,-244.0,218.0,-98.0,102394.0,-8.869000434875488,0,0
2.0400473999907263,0.63018798828125,-0.49676513671875,0.09991455078125,-0.5882568359375,-0.06103515625,0.1220703125,-0.1220703125,0.459228515625,-0.7435302734375,0.4879150390625,-244.0,218.0,-98.0,102394.0,-8.869000434875488,0,0
2.041906700003892,0.63018798828125,-0.49676513671875,0.09991455078125,-0.5882568359375,-0.06103515625,0.1220703125,-0.06103515625,0.4593505859375,-0.7447509765625,0.48779296875,-244.0,218.0,-98.0,102394.0,-8.866000175476074,0,0
2.041991500009317,0.63018798828125,-0.49676513671875,0.09991455078125,-0.5882568359375,-0.244140625,0.06103515625,-0.06103515625,0.45751953125,-0.7454833984375,0.488037109375,-244.0,218.0,-98.0,102394.0,-8.866000175476074,0,0
2.0420685000135563,0.63018798828125,-0.49676513671875,0.09991455078125,-0.5882568359375,-0.18310546875,0.06103515625,0.0,0.4603271484375,-0.7451171875,0.4886474609375,-244.0,218.0,-98.0,102394.0,-8.866000175476074,0,0
2.0421425999957137,0.630218505859375,-0.49676513671875,0.09991455078125,-0.5882568359375,0.06103515625,-0.06103515625,-0.244140625,0.45751953125,-0.7452392578125,0.487548828125,-244.0,218.0,-98.0,102394.0,-8.866000175476074,0,0
2.0422657000017352,0.630218505859375,-0.49676513671875,0.09991455078125,-0.5882568359375,-0.3662109375,0.30517578125,-0.18310546875,0.4578857421875,-0.7451171875,0.4906005859375,-244.0,218.0,-98.0,102394.0,-8.866000175476074,0,0
2.0423402999877,0.630218505859375,-0.496734619140625,0.09991455078125,-0.5882568359375,-0.244140625,0.1220703125,0.06103515625,0.459228515625,-0.743408203125,0.48828125,-244.0,218.0,-98.0,102394.0,-8.866000175476074,0,0
2.101172700000461,0.630218505859375,-0.496734619140625,0.09991455078125,-0.5882568359375,0.30517578125,0.244140625,0.0,0.458984375,-0.745361328125,0.48828125,-244.0,218.0,-98.0,102394.0,-8.866000175476074,0,0
2.101271199993789,0.630218505859375,-0.496734619140625,0.09991455078125,-0.5882568359375,0.06103515625,0.06103515625,-0.244140625,0.45703125,-0.7445068359375,0.4891357421875,-244.0,218.0,-98.0,102394.0,-8.866000175476074,0,0
2.101346699986607,0.630218505859375,-0.496734619140625,0.09991455078125,-0.5882568359375,-0.30517578125,0.06103515625,0.1220703125,0.45751953125,-0.7449951171875,0.4892578125,-243.0,218.0,-97.0,102394.0,-8.866000175476074,0,0
2.10141930001555,0.630340576171875,-0.496734619140625,0.099822998046875,-0.588134765625,0.0,0.0,-0.06103515625,0.4580078125,-0.745361328125,0.4881591796875,-243.0,218.0,-97.0,102394.0,-8.866000175476074,0,0
2.1015653000213206,0.630340576171875,-0.496734619140625,0.099822998046875,-0.588134765625,-0.244140625,0.0,0.0,0.4593505859375,-0.7430419921875,0.4881591796875,-243.0,218.0,-97.0,102394.0,-8.866000175476074,0,0
2.101637199986726,0.630340576171875,-0.496734619140625,0.099822998046875,-0.588134765625,0.0,0.30517578125,0.244140625,0.46044921875,-0.74462890625,0.488525390625,-243.0,218.0,-97.0,102394.0,-8.866000175476074,0,0
2.1017083000042476,0.63037109375,-0.496734619140625,0.099822998046875,-0.588134765625,-0.244140625,0.18310546875,0.0,0.458251953125,-0.74462890625,0.489990234375,-243.0,218.0,-97.0,102394.0,-8.866000175476074,0,0
2.1018628000165336,0.63037109375,-0.496734619140625,0.099822998046875,-0.588134765625,0.06103515625,0.18310546875,-0.1220703125,0.458984375,-0.74462890625,0.48828125,-243.0,218.0,-97.0,102394.0,-8.866000175476074,0,0
2.101938000007067,0.63037109375,-0.496734619140625,0.099822998046875,-0.588134765625,0.06103515625,0.18310546875,-0.1220703125,0.458984375,-0.74462890625,0.48828125,-243.0,218.0,-97.0,102394.0,-8.866000175476074,0,0
2.102009500027634,0.63037109375,-0.4967041015625,0.09979248046875,-0.588134765625,-0.244140625,0.0,-0.18310546875,0.459716796875,-0.741455078125,0.4892578125,-243.0,218.0,-97.0,102394.0,-8.866000175476074,0,0
2.166868100001011,0.63037109375,-0.4967041015625,0.09979248046875,-0.588134765625,-0.244140625,0.1220703125,-0.18310546875,0.45947265625,-0.7459716796875,0.4886474609375,-243.0,218.0,-97.0,102394.0,-8.866000175476074,0,0
2.1669661999912933,0.63037109375,-0.4967041015625,0.09979248046875,-0.588134765625,-0.06103515625,0.18310546875,0.1220703125,0.4603271484375,-0.74462890625,0.489013671875,-243.0,218.0,-97.0,102394.0,-8.866000175476074,0,0
2.1670463000191376,0.63037109375,-0.4967041015625,0.09979248046875,-0.588134765625,-0.1220703125,0.54931640625,0.1220703125,0.4571533203125,-0.7430419921875,0.4896240234375,-243.0,218.0,-97.0,102394.0,-8.869000434875488,0,0
2.167122900020331,0.63037109375,-0.4967041015625,0.09979248046875,-0.588134765625,-0.1220703125,0.54931640625,0.1220703125,0.4571533203125,-0.7430419921875,0.4896240234375,-243.0,218.0,-97.0,102394.0,-8.869000434875488,0,0
2.1671972000040114,0.63037109375,-0.496673583984375,0.09979248046875,-0.588165283203125,0.18310546875,0.06103515625,0.06103515625,0.45947265625,-0.7442626953125,0.490966796875,-243.0,218.0,-97.0,102394.0,-8.869000434875488,0,0
2.1672698000329547,0.63037109375,-0.496673583984375,0.09979248046875,-0.588165283203125,-0.18310546875,0.1220703125,-0.1220703125,0.45849609375,-0.7445068359375,0.489990234375,-243.0,218.0,-97.0,102394.0,-8.869000434875488,0,0
2.167345200025011,0.63037109375,-0.496673583984375,0.09979248046875,-0.588165283203125,0.244140625,0.1220703125,0.06103515625,0.457275390625,-0.7445068359375,0.4888916015625,-243.0,218.0,-97.0,102394.0,-8.869000434875488,0,0
2.1674597000237554,0.63037109375,-0.496673583984375,0.09979248046875,-0.588165283203125,-0.244140625,0.1220703125,-0.18310546875,0.4583740234375,-0.746826171875,0.48974609375,-243.0,218.0,-97.0,102394.0,-8.869000434875488,0,0
2.1675328999990597,0.630401611328125,-0.49664306640625,0.09979248046875,-0.588165283203125,-0.06103515625,0.06103515625,0.06103515625,0.45849609375,-0.744873046875,0.4891357421875,-243.0,218.0,-97.0,102394.0,-8.869000434875488,0,0
2.1676074999850243,0.630401611328125,-0.49664306640625,0.09979248046875,-0.588165283203125,0.244140625,0.18310546875,0.0,0.460205078125,-0.7431640625,0.489013671875,-243.0,218.0,-97.0,102394.0,-8.869000434875488,0,0
2.167682000028435,0.630401611328125,-0.49664306640625,0.09979248046875,-0.588165283203125,-0.06103515625,0.0,-0.1220703125,0.4586181640625,-0.742431640625,0.488525390625,-243.0,218.0,-97.0,102394.0,-8.869000434875488,0,0
2.167755500006024,0.630401611328125,-0.49664306640625,0.09979248046875,-0.588165283203125,0.18310546875,0.0,0.06103515625,0.4586181640625,-0.7459716796875,0.489501953125,-243.0,218.0,-97.0,102394.0,-8.869000434875488,0,0
2.167826500022784,0.630401611328125,-0.496612548828125,0.09979248046875,-0.588165283203125,-0.1220703125,0.1220703125,-0.1220703125,0.456787109375,-0.7437744140625,0.4896240234375,-243.0,218.0,-97.0,102394.0,-8.869000434875488,0,0
2.2215275000198744,0.630523681640625,-0.49664306640625,0.09967041015625,-0.588043212890625,-0.1220703125,0.3662109375,0.1220703125,0.459228515625,-0.744140625,0.4866943359375,-243.0,218.0,-96.0,102394.0,-8.869000434875488,0,0
2.2216022000066005,0.630523681640625,-0.49664306640625,0.09967041015625,-0.588043212890625,-0.1220703125,0.3662109375,0.1220703125,0.459228515625,-0.744140625,0.4866943359375,-243.0,218.0,-96.0,102394.0,-8.869000434875488,0,0
2.2220542000140995,0.630523681640625,-0.49664306640625,0.099700927734375,-0.588043212890625,-0.18310546875,0.06103515625,0.1220703125,0.45849609375,-0.74609375,0.486572265625,-243.0,218.0,-96.0,102394.0,-8.869000434875488,0,0
2.222132100025192,0.630523681640625,-0.49664306640625,0.099700927734375,-0.588043212890625,-0.244140625,0.0,0.0,0.45751953125,-0.7440185546875,0.488525390625,-243.0,218.0,-96.0,102394.0,-8.869000434875488,0,0
2.2238575000083074,0.630523681640625,-0.49664306640625,0.099700927734375,-0.588043212890625,0.06103515625,0.06103515625,0.0,0.4564208984375,-0.7437744140625,0.4869384765625,-243.0,218.0,-96.0,102394.0,-8.869000434875488,0,0
2.224004400020931,0.630523681640625,-0.49664306640625,0.099700927734375,-0.588043212890625,0.0,0.0,0.0,0.458984375,-0.7440185546875,0.4884033203125,-243.0,218.0,-96.0,102394.0,-8.869000434875488,0,0
2.2240830000373535,0.630523681640625,-0.49664306640625,0.09967041015625,-0.588043212890625,-0.30517578125,0.0,0.06103515625,0.4591064453125,-0.742919921875,0.4871826171875,-243.0,218.0,-96.0,102394.0,-8.869000434875488,0,0
2.224153099989053,0.630523681640625,-0.49664306640625,0.09967041015625,-0.588043212890625,-0.30517578125,0.0,0.06103515625,0.4591064453125,-0.742919921875,0.4871826171875,-243.0,218.0,-96.0,102394.0,-8.86400032043457,0,0
2.224218600022141,0.63055419921875,-0.496612548828125,0.09967041015625,-0.588043212890625,-0.1220703125,0.18310546875,-0.06103515625,0.458984375,-0.742919921875,0.4884033203125,-243.0,218.0,-96.0,102394.0,-8.86400032043457,0,0
2.224286700016819,0.63055419921875,-0.496612548828125,0.099700927734375,-0.588043212890625,0.0,0.18310546875,0.1220703125,0.4581298828125,-0.7440185546875,0.488525390625,-243.0,218.0,-96.0,102394.0,-8.86400032043457,0,0
2.2852311999886297,0.63055419921875,-0.496612548828125,0.099700927734375,-0.588043212890625,0.18310546875,0.244140625,-0.06103515625,0.457275390625,-0.74462890625,0.489501953125,-243.0,218.0,-96.0,102394.0,-8.86400032043457,0,0
2.2853098000050522,0.63055419921875,-0.496612548828125,0.099700927734375,-0.588043212890625,0.0,0.06103515625,-0.06103515625,0.460205078125,-0.744140625,0.486328125,-243.0,218.0,-96.0,102394.0,-8.86400032043457,0,0
2.2853820000309497,0.63055419921875,-0.496612548828125,0.099700927734375,-0.588043212890625,0.0,0.06103515625,-0.06103515625,0.460205078125,-0.744140625,0.486328125,-243.0,218.0,-96.0,102394.0,-8.86400032043457,0,0
2.2854511000332423,0.63055419921875,-0.496612548828125,0.09967041015625,-0.588043212890625,-0.244140625,0.06103515625,0.06103515625,0.4613037109375,-0.741455078125,0.486572265625,-243.0,218.0,-96.0,102394.0,-8.86400032043457,0,0
2.2855199000332505,0.63055419921875,-0.496612548828125,0.09967041015625,-0.588043212890625,-0.18310546875,0.0,0.1220703125,0.459716796875,-0.743408203125,0.48779296875,-243.0,218.0,-96.0,102394.0,-8.86400032043457,0,0
2.2870956999831833,0.63055419921875,-0.496612548828125,0.09967041015625,-0.588043212890625,0.0,0.0,-0.1220703125,0.4576416015625,-0.7442626953125,0.48681640625,-243.0,218.0,-96.0,102394.0,-8.86400032043457,0,0
2.2871714000357315,0.63055419921875,-0.496612548828125,0.09967041015625,-0.588043212890625,-0.06103515625,0.244140625,-0.1220703125,0.45751953125,-0.741455078125,0.488525390625,-244.0,218.0,-97.0,102394.0,-8.86400032043457,0,0
2.2872432000003755,0.63067626953125,-0.496612548828125,0.099578857421875,-0.587921142578125,-0.3662109375,0.06103515625,0.1220703125,0.458251953125,-0.7435302734375,0.4876708984375,-244.0,218.0,-97.0,102394.0,-8.86400032043457,0,0
2.287366700009443,0.63067626953125,-0.496612548828125,0.099578857421875,-0.587921142578125,0.0,0.0,-0.06103515625,0.458251953125,-0.745361328125,0.489013671875,-244.0,218.0,-97.0,102394.0,-8.86400032043457,0,0
2.287436400016304,0.63067626953125,-0.496612548828125,0.099578857421875,-0.587921142578125,0.18310546875,0.0,-0.06103515625,0.459228515625,-0.74365234375,0.4876708984375,-244.0,218.0,-97.0,102394.0,-8.86400032043457,0,0
2.2875081000383943,0.63067626953125,-0.496612548828125,0.099578857421875,-0.587921142578125,0.1220703125,0.1220703125,-0.18310546875,0.458984375,-0.7440185546875,0.488525390625,-244.0,218.0,-97.0,102394.0,-8.86400032043457,0,0
2.346346500038635,0.63067626953125,-0.496612548828125,0.099578857421875,-0.587921142578125,0.0,0.18310546875,0.06103515625,0.4588623046875,-0.742919921875,0.488525390625,-244.0,218.0,-97.0,102394.0,-8.86400032043457,0,0
2.3464231999823824,0.63067626953125,-0.496612548828125,0.099578857421875,-0.587921142578125,-0.18310546875,0.0,-0.18310546875,0.45849609375,-0.7431640625,0.487548828125,-244.0,218.0,-97.0,102394.0,-8.86400032043457,0,0
2.3464934999938123,0.63067626953125,-0.496612548828125,0.099578857421875,-0.587921142578125,-0.244140625,0.18310546875,0.06103515625,0.458984375,-0.7452392578125,0.4866943359375,-244.0,218.0,-97.0,102394.0,-8.86400032043457,0,0
2.346562899998389,0.63067626953125,-0.496612548828125,0.099578857421875,-0.587921142578125,-0.244140625,0.1220703125,-0.1220703125,0.4600830078125,-0.74365234375,0.4866943359375,-244.0,218.0,-97.0,102394.0,-8.86400032043457,0,0
2.34662979998393,0.63067626953125,-0.496612548828125,0.099578857421875,-0.587921142578125,0.1220703125,0.244140625,0.06103515625,0.4566650390625,-0.7442626953125,0.4871826171875,-244.0,218.0,-97.0,102394.0,-8.868000030517578,0,0
2.3467147999908775,0.63067626953125,-0.496612548828125,0.099578857421875,-0.587921142578125,0.1220703125,0.244140625,0.06103515625,0.4566650390625,-0.7442626953125,0.4871826171875,-244.0,218.0,-97.0,102394.0,-8.868000030517578,0,0
2.346797400037758,0.63067626953125,-0.496612548828125,0.099578857421875,-0.587921142578125,0.18310546875,0.42724609375,-0.06103515625,0.45703125,-0.744140625,0.486572265625,-244.0,218.0,-97.0,102394.0,-8.868000030517578,0,0
2.346867599990219,0.63067626953125,-0.496612548828125,0.099578857421875,-0.587921142578125,0.3662109375,0.0,-0.06103515625,0.4581298828125,-0.7437744140625,0.4874267578125,-244.0,218.0,-97.0,102394.0,-8.868000030517578,0,0
2.347005999996327,0.63067626953125,-0.496612548828125,0.099578857421875,-0.587921142578125,-0.30517578125,-0.1220703125,0.0,0.4583740234375,-0.7440185546875,0.487548828125,-244.0,218.0,-97.0,102394.0,-8.868000030517578,0,0
2.3471007000189275,0.63067626953125,-0.496612548828125,0.099578857421875,-0.587921142578125,-0.18310546875,-0.1220703125,0.0,0.4591064453125,-0.744384765625,0.487548828125,-244.0,218.0,-97.0,102394.0,-8.868000030517578,0,0
2.347172599984333,0.63067626953125,-0.496612548828125,0.099578857421875,-0.587921142578125,0.06103515625,-0.1220703125,-0.06103515625,0.4586181640625,-0.7442626953125,0.4884033203125,-244.0,218.0,-97.0,102394.0,-8.868000030517578,0,0
2.347241599985864,0.63067626953125,-0.496612548828125,0.099578857421875,-0.587921142578125,-0.30517578125,0.0,0.0,0.4598388671875,-0.7442626953125,0.488037109375,-244.0,218.0,-97.0,102394.0,-8.868000030517578,0,0
2.3473110999912024,0.63067626953125,-0.496612548828125,0.099578857421875,-0.587921142578125,-0.1220703125,0.06103515625,0.244140625,0.4600830078125,-0.7451171875,0.48828125,-244.0,218.0,-97.0,102394.0,-8.868000030517578,0,0
2.4098780000349507,0.63067626953125,-0.496612548828125,0.099578857421875,-0.587921142578125,-0.244140625,0.1220703125,-0.06103515625,0.4576416015625,-0.7440185546875,0.4852294921875,-244.0,218.0,-97.0,102394.0,-8.868000030517578,0,0
2.409955099981744,0.63079833984375,-0.49664306640625,0.099456787109375,-0.5877685546875,-0.244140625,0.0,0.0,0.4576416015625,-0.743896484375,0.48583984375,-244.0,218.0,-97.0,102394.0,-8.868000030517578,0,0
2.4100248999893665,0.630828857421875,-0.496612548828125,0.099456787109375,-0.5877685546875,0.18310546875,0.1220703125,-0.1220703125,0.456298828125,-0.7442626953125,0.4881591796875,-244.0,218.0,-97.0,102394.0,-8.868000030517578,0,0
2.410096000006888,0.630828857421875,-0.496612548828125,0.099456787109375,-0.5877685546875,0.18310546875,0.1220703125,-0.1220703125,0.456298828125,-0.7442626953125,0.4881591796875,-244.0,218.0,-97.0,102394.0,-8.868000030517578,0,0
2.4102020999998786,0.630828857421875,-0.496612548828125,0.099456787109375,-0.587799072265625,-0.30517578125,0.1220703125,-0.06103515625,0.4593505859375,-0.7423095703125,0.48681640625,-244.0,218.0,-97.0,102394.0,-8.868000030517578,0,0
2.41027180000674,0.630828857421875,-0.496612548828125,0.099456787109375,-0.587799072265625,0.0,0.0,0.06103515625,0.4599609375,-0.744140625,0.490966796875,-244.0,218.0,-97.0,102394.0,-8.868000030517578,0,0
2.410342200018931,0.630828857421875,-0.496612548828125,0.099456787109375,-0.587799072265625,-0.244140625,0.30517578125,-0.1220703125,0.457763671875,-0.7445068359375,0.4876708984375,-244.0,218.0,-97.0,102394.0,-8.868000030517578,0,0
2.410409800009802,0.630828857421875,-0.496612548828125,0.099456787109375,-0.587799072265625,-0.1220703125,0.06103515625,0.0,0.458740234375,-0.7447509765625,0.489990234375,-244.0,218.0,-97.0,102394.0,-8.868000030517578,0,0
2.410480300022755,0.630828857421875,-0.496612548828125,0.099456787109375,-0.587799072265625,0.0,0.1220703125,0.1220703125,0.458740234375,-0.744873046875,0.488525390625,-244.0,218.0,-97.0,102394.0,-8.868000030517578,0,0
2.410550000029616,0.630828857421875,-0.496612548828125,0.099456787109375,-0.587799072265625,-0.1220703125,0.18310546875,0.0,0.45849609375,-0.7432861328125,0.4874267578125,-244.0,218.0,-97.0,102394.0,-8.868000030517578,0,0
2.469742999994196,0.630828857421875,-0.49658203125,0.099456787109375,-0.587799072265625,0.06103515625,0.0,-0.06103515625,0.4598388671875,-0.7425537109375,0.489501953125,-244.0,218.0,-97.0,102394.0,-8.86400032043457,0,0
2.469824800034985,0.630828857421875,-0.49658203125,0.099456787109375,-0.587799072265625,0.1220703125,0.1220703125,-0.244140625,0.4573974609375,-0.7437744140625,0.488525390625,-244.0,218.0,-97.0,102394.0,-8.86400032043457,0,0
2.469894799985923,0.630828857421875,-0.49658203125,0.099456787109375,-0.587799072265625,-0.3662109375,0.0,-0.244140625,0.4560546875,-0.74169921875,0.489013671875,-244.0,218.0,-97.0,102394.0,-8.86400032043457,0,0
2.4699668000102974,0.630828857421875,-0.49658203125,0.099456787109375,-0.587799072265625,-0.06103515625,0.0,-0.06103515625,0.458984375,-0.7430419921875,0.4898681640625,-244.0,218.0,-97.0,102394.0,-8.86400032043457,0,0
2.4700362000148743,0.630828857421875,-0.496551513671875,0.099456787109375,-0.587799072265625,-0.06103515625,0.18310546875,0.06103515625,0.4595947265625,-0.74365234375,0.4892578125,-244.0,218.0,-97.0,102394.0,-8.86400032043457,0,0
2.4702441000263207,0.630828857421875,-0.496551513671875,0.099456787109375,-0.587799072265625,-0.06103515625,0.18310546875,0.06103515625,0.4595947265625,-0.74365234375,0.4892578125,-244.0,218.0,-97.0,102394.0,-8.86400032043457,0,0
2.4703187000122853,0.630828857421875,-0.496551513671875,0.099456787109375,-0.587799072265625,-0.3662109375,0.18310546875,0.18310546875,0.45849609375,-0.744140625,0.489990234375,-244.0,218.0,-97.0,102394.0,-8.86400032043457,0,0
2.4704444000381045,0.630859375,-0.496551513671875,0.099456787109375,-0.587799072265625,0.244140625,0.06103515625,0.18310546875,0.4581298828125,-0.744384765625,0.487548828125,-244.0,218.0,-97.0,102394.0,-8.86400032043457,0,0
2.471421600028407,0.630859375,-0.496551513671875,0.099456787109375,-0.587799072265625,-0.06103515625,0.244140625,-0.18310546875,0.4560546875,-0.744384765625,0.4888916015625,-244.0,218.0,-97.0,102394.0,-8.86400032043457,0,0
2.471499200037215,0.6309814453125,-0.49658203125,0.099334716796875,-0.587677001953125,0.1220703125,0.06103515625,-0.244140625,0.4588623046875,-0.7435302734375,0.4884033203125,-244.0,218.0,-97.0,102394.0,-8.86400032043457,0,0
2.4715695999911986,0.6309814453125,-0.49658203125,0.099334716796875,-0.587677001953125,-0.06103515625,0.0,0.0,0.4591064453125,-0.744873046875,0.4891357421875,-244.0,218.0,-97.0,102394.0,-8.86400032043457,0,0
2.535896399989724,0.6309814453125,-0.496551513671875,0.099334716796875,-0.587677001953125,0.0,0.0,0.18310546875,0.457275390625,-0.7430419921875,0.4879150390625,-244.0,218.0,-97.0,102394.0,-8.86400032043457,0,0
2.5359779000282288,0.6309814453125,-0.496551513671875,0.099334716796875,-0.587677001953125,-0.30517578125,0.0,0.0,0.4600830078125,-0.7423095703125,0.4903564453125,-244.0,218.0,-97.0,102394.0,-8.86400032043457,0,0
2.5360498999943957,0.6309814453125,-0.496551513671875,0.099334716796875,-0.587677001953125,-0.3662109375,-0.06103515625,-0.06103515625,0.4591064453125,-0.7425537109375,0.4898681640625,-244.0,218.0,-97.0,102394.0,-8.86400032043457,0,0
2.536121000011917,0.6309814453125,-0.496551513671875,0.099334716796875,-0.587677001953125,0.1220703125,0.30517578125,0.18310546875,0.4583740234375,-0.741943359375,0.4873046875,-244.0,218.0,-97.0,102394.0,-8.86400032043457,0,0
2.53619080001954,0.6309814453125,-0.496551513671875,0.099334716796875,-0.587677001953125,-0.30517578125,-0.1220703125,-0.06103515625,0.4580078125,-0.743896484375,0.4892578125,-244.0,218.0,-97.0,102394.0,-8.86400032043457,0,0
2.5362615000340156,0.6309814453125,-0.496551513671875,0.099334716796875,-0.587677001953125,0.18310546875,0.18310546875,0.0,0.45703125,-0.7437744140625,0.48681640625,-244.0,218.0,-97.0,102394.0,-8.86400032043457,0,0
2.5371925000217743,0.6309814453125,-0.496551513671875,0.099334716796875,-0.587677001953125,-0.06103515625,0.30517578125,-0.244140625,0.456787109375,-0.74560546875,0.486572265625,-244.0,218.0,-97.0,102394.0,-8.86400032043457,0,0
2.5372602000134066,0.6309814453125,-0.496551513671875,0.099334716796875,-0.587677001953125,-0.06103515625,0.30517578125,-0.244140625,0.456787109375,-0.74560546875,0.486572265625,-244.0,218.0,-97.0,102394.0,-8.86400032043457,0,0
2.5373519000131637,0.6309814453125,-0.496551513671875,0.099334716796875,-0.587677001953125,-0.1220703125,0.18310546875,-0.06103515625,0.4599609375,-0.742431640625,0.48828125,-244.0,218.0,-97.0,102394.0,-8.867000579833984,0,0
2.537419600004796,0.6309814453125,-0.496551513671875,0.099334716796875,-0.58770751953125,-0.1220703125,-0.1220703125,0.18310546875,0.458740234375,-0.7423095703125,0.4881591796875,-244.0,218.0,-97.0,102394.0,-8.867000579833984,0,0
2.537486599991098,0.6309814453125,-0.496551513671875,0.099334716796875,-0.58770751953125,0.18310546875,0.18310546875,-0.06103515625,0.4586181640625,-0.742919921875,0.4874267578125,-244.0,218.0,-97.0,102394.0,-8.867000579833984,0,0
2.5375562999979593,0.6309814453125,-0.49652099609375,0.099334716796875,-0.58770751953125,-0.244140625,0.42724609375,0.06103515625,0.4571533203125,-0.7432861328125,0.4898681640625,-244.0,218.0,-97.0,102394.0,-8.867000579833984,0,0
2.597494799993001,0.6309814453125,-0.49652099609375,0.099334716796875,-0.58770751953125,-0.1220703125,0.18310546875,0.0,0.45947265625,-0.7449951171875,0.48779296875,-244.0,218.0,-97.0,102394.0,-8.867000579833984,0,0
2.5975720999995247,0.6309814453125,-0.49652099609375,0.099334716796875,-0.58770751953125,-0.30517578125,-0.06103515625,-0.3662109375,0.45751953125,-0.7452392578125,0.4891357421875,-244.0,218.0,-97.0,102394.0,-8.867000579833984,0,0
2.597690600028727,0.6309814453125,-0.49652099609375,0.099334716796875,-0.58770751953125,0.42724609375,0.06103515625,0.1220703125,0.4586181640625,-0.74365234375,0.4896240234375,-244.0,218.0,-97.0,102394.0,-8.867000579833984,0,0
2.5977615999872796,0.6309814453125,-0.49652099609375,0.099334716796875,-0.58770751953125,-0.06103515625,0.18310546875,0.06103515625,0.4573974609375,-0.743896484375,0.48974609375,-244.0,218.0,-97.0,102394.0,-8.867000579833984,0,0
2.5978298999834806,0.631378173828125,-0.49658203125,0.0989990234375,-0.5872802734375,0.0,0.1220703125,-0.1220703125,0.457763671875,-0.7432861328125,0.4891357421875,-245.0,219.0,-98.0,102394.0,-8.867000579833984,0,0
2.5979221999878064,0.631378173828125,-0.49658203125,0.0989990234375,-0.587310791015625,-0.244140625,0.06103515625,-0.1220703125,0.46044921875,-0.74267578125,0.4906005859375,-245.0,219.0,-98.0,102394.0,-8.867000579833984,0,0
2.597989200032316,0.631378173828125,-0.49658203125,0.0989990234375,-0.587310791015625,-0.244140625,-0.06103515625,-0.1220703125,0.4610595703125,-0.74365234375,0.48828125,-245.0,219.0,-98.0,102394.0,-8.867000579833984,0,0
2.598058600036893,0.631378173828125,-0.49658203125,0.0989990234375,-0.587310791015625,-0.244140625,-0.06103515625,-0.1220703125,0.4610595703125,-0.74365234375,0.48828125,-245.0,219.0,-98.0,102394.0,-8.867000579833984,0,0
2.5981255000224337,0.631378173828125,-0.496551513671875,0.0989990234375,-0.587310791015625,-0.1220703125,0.0,0.18310546875,0.4580078125,-0.7442626953125,0.4898681640625,-245.0,219.0,-98.0,102394.0,-8.867000579833984,0,0
2.5981924000079744,0.631378173828125,-0.496551513671875,0.0989990234375,-0.587310791015625,0.1220703125,0.244140625,0.0,0.456787109375,-0.745361328125,0.4892578125,-245.0,219.0,-98.0,102394.0,-8.867000579833984,0,0
2.5982575000380166,0.631378173828125,-0.496551513671875,0.0989990234375,-0.587310791015625,0.18310546875,0.0,-0.3662109375,0.4580078125,-0.7447509765625,0.488037109375,-245.0,219.0,-98.0,102394.0,-8.867000579833984,0,0
2.6571801000391133,0.63140869140625,-0.496551513671875,0.0989990234375,-0.587310791015625,0.18310546875,-0.1220703125,-0.1220703125,0.460205078125,-0.743896484375,0.4888916015625,-245.0,219.0,-98.0,102394.0,-8.867000579833984,0,0
2.657255800033454,0.63140869140625,-0.496551513671875,0.0989990234375,-0.587310791015625,0.0,0.0,-0.18310546875,0.458251953125,-0.7437744140625,0.48876953125,-245.0,219.0,-98.0,102394.0,-8.866000175476074,0,0
2.6573276999988593,0.63140869140625,-0.496551513671875,0.0989990234375,-0.587310791015625,-0.244140625,0.0,0.18310546875,0.4610595703125,-0.7435302734375,0.489501953125,-245.0,219.0,-98.0,102394.0,-8.866000175476074,0,0
2.657395899994299,0.63140869140625,-0.496551513671875,0.0989990234375,-0.587310791015625,0.1220703125,0.06103515625,0.244140625,0.4593505859375,-0.7435302734375,0.4869384765625,-245.0,219.0,-98.0,102394.0,-8.866000175476074,0,0
2.6574652999988757,0.63140869140625,-0.496551513671875,0.0989990234375,-0.587310791015625,-0.30517578125,0.18310546875,0.1220703125,0.4578857421875,-0.7447509765625,0.488525390625,-245.0,219.0,-98.0,102394.0,-8.866000175476074,0,0
2.6576764000346884,0.63140869140625,-0.49652099609375,0.0989990234375,-0.587310791015625,0.1220703125,-0.06103515625,0.0,0.4560546875,-0.746337890625,0.4898681640625,-245.0,219.0,-98.0,102394.0,-8.866000175476074,0,0
2.6577540999860503,0.63140869140625,-0.49652099609375,0.0989990234375,-0.587310791015625,0.18310546875,0.0,0.06103515625,0.458251953125,-0.7452392578125,0.4906005859375,-245.0,219.0,-98.0,102394.0,-8.866000175476074,0,0
2.65787240001373,0.63140869140625,-0.49652099609375,0.0989990234375,-0.587310791015625,0.18310546875,0.0,0.06103515625,0.458251953125,-0.7452392578125,0.4906005859375,-245.0,219.0,-98.0,102394.0,-8.866000175476074,0,0
2.6590414000093006,0.63140869140625,-0.49652099609375,0.0989990234375,-0.587310791015625,0.1220703125,0.18310546875,0.18310546875,0.458251953125,-0.745361328125,0.489990234375,-245.0,219.0,-98.0,102394.0,-8.866000175476074,0,0
2.659114000038244,0.63140869140625,-0.49652099609375,0.0989990234375,-0.587310791015625,0.18310546875,-0.1220703125,-0.18310546875,0.4578857421875,-0.742919921875,0.489013671875,-245.0,219.0,-98.0,102394.0,-8.866000175476074,0,0
2.6596845000167377,0.63140869140625,-0.49652099609375,0.0989990234375,-0.587310791015625,-0.244140625,0.18310546875,-0.18310546875,0.46044921875,-0.7431640625,0.4888916015625,-245.0,219.0,-98.0,102394.0,-8.866000175476074,0,0
2.7199843000271358,0.63140869140625,-0.49652099609375,0.0989990234375,-0.587310791015625,-0.244140625,0.18310546875,-0.18310546875,0.46044921875,-0.7431640625,0.4888916015625,-246.0,220.0,-98.0,102394.0,-8.866000175476074,0,0
2.720073100004811,0.631927490234375,-0.49658203125,0.09857177734375,-0.5867919921875,-0.06103515625,0.30517578125,-0.1220703125,0.4591064453125,-0.74267578125,0.4864501953125,-246.0,220.0,-98.0,102394.0,-8.866000175476074,0,0
2.720144100021571,0.631927490234375,-0.49658203125,0.098541259765625,-0.5867919921875,0.1220703125,0.244140625,0.18310546875,0.4583740234375,-0.7445068359375,0.4888916015625,-246.0,220.0,-98.0,102394.0,-8.866000175476074,0,0
2.7202139000291936,0.631927490234375,-0.49658203125,0.09857177734375,-0.5867919921875,0.0,0.30517578125,0.0,0.4593505859375,-0.7432861328125,0.4888916015625,-246.0,220.0,-98.0,102394.0,-8.866000175476074,0,0
2.7202802000101656,0.631927490234375,-0.49658203125,0.09857177734375,-0.5867919921875,0.06103515625,0.1220703125,-0.06103515625,0.4571533203125,-0.7445068359375,0.48828125,-246.0,220.0,-98.0,102394.0,-8.866000175476074,0,0
2.720346599991899,0.631927490234375,-0.49658203125,0.09857177734375,-0.5867919921875,0.18310546875,0.1220703125,0.0,0.456787109375,-0.7437744140625,0.488525390625,-246.0,220.0,-98.0,102394.0,-8.866000175476074,0,0
2.7204968000296503,0.631927490234375,-0.49658203125,0.09857177734375,-0.5867919921875,-0.244140625,0.06103515625,0.1220703125,0.4569091796875,-0.743408203125,0.4879150390625,-246.0,220.0,-98.0,102394.0,-8.866000175476074,0,0
2.7205638000159524,0.631927490234375,-0.49658203125,0.09857177734375,-0.5867919921875,-0.18310546875,0.18310546875,0.06103515625,0.4603271484375,-0.74365234375,0.48681640625,-246.0,220.0,-98.0,102394.0,-8.866000175476074,0,0
2.7206300999969244,0.631927490234375,-0.49658203125,0.098541259765625,-0.5867919921875,0.06103515625,0.3662109375,-0.18310546875,0.45947265625,-0.7421875,0.48779296875,-246.0,220.0,-98.0,102394.0,-8.866000175476074,0,0
2.72069680003915,0.631927490234375,-0.49658203125,0.098541259765625,-0.5867919921875,-0.18310546875,0.42724609375,-0.1220703125,0.461181640625,-0.7418212890625,0.4898681640625,-246.0,220.0,-98.0,102394.0,-8.866000175476074,0,0
2.720760700001847,0.631927490234375,-0.49658203125,0.098541259765625,-0.5867919921875,-0.18310546875,0.42724609375,-0.1220703125,0.461181640625,-0.7418212890625,0.4898681640625,-246.0,220.0,-98.0,102394.0,-8.866000175476074,0,0
2.7208293000003323,0.631927490234375,-0.49658203125,0.098541259765625,-0.5867919921875,0.06103515625,0.18310546875,-0.244140625,0.4581298828125,-0.7442626953125,0.48779296875,-246.0,220.0,-98.0,102394.0,-8.869000434875488,0,0
2.7834999000187963,0.631927490234375,-0.49658203125,0.098541259765625,-0.5867919921875,0.0,0.0,0.06103515625,0.4593505859375,-0.743896484375,0.487548828125,-246.0,220.0,-98.0,102394.0,-8.869000434875488,0,0
2.7835777000291273,0.631927490234375,-0.49658203125,0.098541259765625,-0.5867919921875,0.1220703125,0.06103515625,0.1220703125,0.4583740234375,-0.74560546875,0.4892578125,-246.0,220.0,-98.0,102394.0,-8.869000434875488,0,0
2.7836467000306584,0.631927490234375,-0.49658203125,0.098541259765625,-0.5867919921875,-0.1220703125,-0.06103515625,-0.06103515625,0.46044921875,-0.74462890625,0.4876708984375,-246.0,220.0,-98.0,102394.0,-8.869000434875488,0,0
2.7837144000222906,0.631927490234375,-0.49658203125,0.098541259765625,-0.5867919921875,-0.1220703125,0.06103515625,-0.244140625,0.4595947265625,-0.743896484375,0.4871826171875,-246.0,220.0,-98.0,102394.0,-8.869000434875488,0,0
2.7837820000131615,0.631927490234375,-0.49658203125,0.098541259765625,-0.5867919921875,0.0,0.0,0.06103515625,0.459716796875,-0.7442626953125,0.4891357421875,-246.0,220.0,-98.0,102394.0,-8.869000434875488,0,0
2.78468119999161,0.631927490234375,-0.49658203125,0.098541259765625,-0.5867919921875,0.1220703125,0.18310546875,0.18310546875,0.4588623046875,-0.7454833984375,0.48828125,-246.0,220.0,-98.0,102394.0,-8.869000434875488,0,0
2.7847559000365436,0.631927490234375,-0.49658203125,0.098541259765625,-0.5867919921875,0.0,0.18310546875,0.06103515625,0.4595947265625,-0.745361328125,0.4884033203125,-247.0,219.0,-97.0,102394.0,-8.869000434875488,0,0
2.7848710999824107,0.631927490234375,-0.49658203125,0.098541259765625,-0.5867919921875,-0.06103515625,0.06103515625,0.1220703125,0.4588623046875,-0.744140625,0.4888916015625,-247.0,219.0,-97.0,102394.0,-8.869000434875488,0,0
2.784941899997648,0.631927490234375,-0.49658203125,0.098541259765625,-0.5867919921875,0.0,-0.1220703125,0.06103515625,0.45654296875,-0.74462890625,0.488525390625,-247.0,219.0,-97.0,102394.0,-8.869000434875488,0,0
2.785009799990803,0.631927490234375,-0.49658203125,0.098541259765625,-0.5867919921875,0.0,-0.1220703125,0.06103515625,0.45654296875,-0.74462890625,0.488525390625,-247.0,219.0,-97.0,102394.0,-8.869000434875488,0,0
2.7850795999984257,0.631927490234375,-0.49658203125,0.098541259765625,-0.5867919921875,-0.1220703125,0.06103515625,0.0,0.45947265625,-0.7437744140625,0.486572265625,-247.0,219.0,-97.0,102394.0,-8.869000434875488,0,0
2.8504098000121303,0.631927490234375,-0.49658203125,0.098541259765625,-0.5867919921875,0.18310546875,0.244140625,-0.1220703125,0.457763671875,-0.7447509765625,0.4884033203125,-247.0,219.0,-97.0,102394.0,-8.869000434875488,0,0
2.850488400028553,0.631927490234375,-0.49658203125,0.098541259765625,-0.5867919921875,-0.18310546875,0.18310546875,-0.1220703125,0.460693359375,-0.74462890625,0.489013671875,-247.0,219.0,-97.0,102394.0,-8.869000434875488,0,0
2.850556700024754,0.631927490234375,-0.49658203125,0.098541259765625,-0.5867919921875,-0.18310546875,0.18310546875,-0.1220703125,0.4608154296875,-0.744140625,0.48828125,-247.0,219.0,-97.0,102394.0,-8.866000175476074,0,0
2.8506285999901593,0.631927490234375,-0.49658203125,0.098541259765625,-0.5867919921875,0.18310546875,0.1220703125,-0.06103515625,0.4609375,-0.741455078125,0.4888916015625,-247.0,219.0,-97.0,102394.0,-8.866000175476074,0,0
2.850694900029339,0.631927490234375,-0.49658203125,0.098541259765625,-0.5867919921875,-0.1220703125,0.06103515625,0.0,0.4583740234375,-0.743408203125,0.4879150390625,-247.0,219.0,-97.0,102394.0,-8.866000175476074,0,0
2.850777800020296,0.631927490234375,-0.496551513671875,0.098541259765625,-0.5867919921875,0.0,0.18310546875,0.0,0.45947265625,-0.7435302734375,0.489013671875,-247.0,219.0,-97.0,102394.0,-8.866000175476074,0,0
2.850847200024873,0.631927490234375,-0.496551513671875,0.0985107421875,-0.5867919921875,0.0,0.18310546875,0.0,0.45947265625,-0.7435302734375,0.489013671875,-247.0,219.0,-97.0,102394.0,-8.866000175476074,0,0
2.8510256999870762,0.631927490234375,-0.496551513671875,0.0985107421875,-0.5867919921875,-0.1220703125,0.0,0.1220703125,0.4599609375,-0.7440185546875,0.488525390625,-247.0,219.0,-97.0,102394.0,-8.866000175476074,0,0
2.8511936999857426,0.631927490234375,-0.496551513671875,0.0985107421875,-0.5867919921875,-0.6103515625,-0.06103515625,0.06103515625,0.457763671875,-0.7437744140625,0.48876953125,-247.0,219.0,-97.0,102394.0,-8.866000175476074,0,0
2.851279499998782,0.631927490234375,-0.496551513671875,0.098541259765625,-0.5867919921875,-0.244140625,0.0,0.0,0.4569091796875,-0.7449951171875,0.486328125,-247.0,219.0,-97.0,102394.0,-8.866000175476074,0,0
2.851352100027725,0.631927490234375,-0.496551513671875,0.098541259765625,-0.5867919921875,-0.244140625,0.0,0.0,0.4569091796875,-0.7449951171875,0.486328125,-247.0,219.0,-97.0,102394.0,-8.866000175476074,0,0
2.907325599982869,0.631927490234375,-0.496551513671875,0.098541259765625,-0.5867919921875,0.0,0.06103515625,-0.06103515625,0.456787109375,-0.7454833984375,0.48828125,-247.0,219.0,-97.0,102394.0,-8.866000175476074,0,0
2.9074049000046216,0.631927490234375,-0.496551513671875,0.098541259765625,-0.5867919921875,-0.1220703125,0.1220703125,-0.18310546875,0.4581298828125,-0.7430419921875,0.48876953125,-247.0,219.0,-97.0,102394.0,-8.866000175476074,0,0
2.907476900028996,0.631927490234375,-0.496551513671875,0.098541259765625,-0.5867919921875,0.06103515625,0.0,0.0,0.460693359375,-0.7440185546875,0.4876708984375,-247.0,219.0,-97.0,102394.0,-8.866000175476074,0,0
2.9075471999822184,0.631927490234375,-0.496551513671875,0.098541259765625,-0.5867919921875,0.06103515625,0.0,0.0,0.460693359375,-0.7440185546875,0.4876708984375,-247.0,218.0,-98.0,102394.0,-8.866000175476074,0,0
2.907620100013446,0.631927490234375,-0.496551513671875,0.098541259765625,-0.5867919921875,-0.42724609375,0.244140625,0.244140625,0.4578857421875,-0.7421875,0.486572265625,-247.0,218.0,-98.0,102394.0,-8.866000175476074,0,0
2.9076912000309676,0.631927490234375,-0.496551513671875,0.098541259765625,-0.5867919921875,0.18310546875,0.1220703125,0.0,0.4588623046875,-0.742919921875,0.488525390625,-247.0,218.0,-98.0,102394.0,-8.866000175476074,0,0
2.90779000002658,0.631927490234375,-0.496551513671875,0.0985107421875,-0.586822509765625,0.18310546875,0.06103515625,0.0,0.460205078125,-0.7425537109375,0.486328125,-247.0,218.0,-98.0,102394.0,-8.866000175476074,0,0
2.907858100021258,0.631927490234375,-0.496551513671875,0.0985107421875,-0.586822509765625,0.0,0.18310546875,0.0,0.4622802734375,-0.744384765625,0.4869384765625,-247.0,218.0,-98.0,102394.0,-8.866000175476074,0,0
2.907926600018982,0.631927490234375,-0.496551513671875,0.0985107421875,-0.586822509765625,-0.1220703125,0.30517578125,-0.06103515625,0.4586181640625,-0.7449951171875,0.4879150390625,-247.0,218.0,-98.0,102394.0,-8.866000175476074,0,0
2.9079946000128984,0.631927490234375,-0.496551513671875,0.0985107421875,-0.586822509765625,-0.244140625,0.0,-0.06103515625,0.45947265625,-0.74462890625,0.4874267578125,-247.0,218.0,-98.0,102394.0,-8.866000175476074,0,0
2.9083540000137873,0.631927490234375,-0.496551513671875,0.0985107421875,-0.5867919921875,0.244140625,0.18310546875,0.0,0.4576416015625,-0.744873046875,0.48876953125,-247.0,218.0,-98.0,102394.0,-8.866000175476074,0,0
2.9084280999959446,0.631927490234375,-0.496551513671875,0.098541259765625,-0.5867919921875,-0.48828125,-0.18310546875,-0.18310546875,0.4576416015625,-0.7449951171875,0.48876953125,-247.0,218.0,-98.0,102394.0,-8.866000175476074,0,0
2.9862128000240773,0.631927490234375,-0.496551513671875,0.098541259765625,-0.5867919921875,-0.30517578125,-0.1220703125,0.1220703125,0.45849609375,-0.7437744140625,0.488037109375,-247.0,218.0,-98.0,102394.0,-8.869000434875488,0,0
2.9862906000344083,0.631927490234375,-0.496551513671875,0.098541259765625,-0.5867919921875,0.244140625,0.1220703125,0.0,0.45703125,-0.743408203125,0.48779296875,-247.0,218.0,-98.0,102394.0,-8.869000434875488,0,0
2.9863615999929607,0.631927490234375,-0.496551513671875,0.098541259765625,-0.5867919921875,-0.244140625,0.1220703125,-0.1220703125,0.4586181640625,-0.743408203125,0.487060546875,-247.0,218.0,-98.0,102394.0,-8.869000434875488,0,0
2.9864311999990605,0.631927490234375,-0.496551513671875,0.098541259765625,-0.5867919921875,0.06103515625,0.1220703125,-0.30517578125,0.45947265625,-0.7421875,0.4874267578125,-247.0,218.0,-98.0,102394.0,-8.869000434875488,0,0
2.9865011000074446,0.631927490234375,-0.496551513671875,0.098541259765625,-0.586822509765625,-0.06103515625,-0.1220703125,-0.1220703125,0.456298828125,-0.74462890625,0.489501953125,-247.0,218.0,-98.0,102394.0,-8.869000434875488,0,0
2.9865853000083007,0.631927490234375,-0.496551513671875,0.0985107421875,-0.586822509765625,-0.244140625,0.18310546875,-0.1220703125,0.4588623046875,-0.7435302734375,0.48779296875,-247.0,218.0,-98.0,102394.0,-8.869000434875488,0,0
2.9866517999907956,0.631927490234375,-0.496551513671875,0.0985107421875,-0.586822509765625,0.18310546875,0.30517578125,-0.1220703125,0.4578857421875,-0.7418212890625,0.489501953125,-247.0,218.0,-98.0,102394.0,-8.869000434875488,0,0
2.9867180000292137,0.631927490234375,-0.496551513671875,0.0985107421875,-0.586822509765625,-0.30517578125,0.06103515625,0.0,0.4588623046875,-0.7447509765625,0.4881591796875,-247.0,218.0,-98.0,102394.0,-8.869000434875488,0,0
2.9867885999847203,0.631927490234375,-0.49652099609375,0.0985107421875,-0.586822509765625,-0.30517578125,0.06103515625,0.0,0.4588623046875,-0.7447509765625,0.4881591796875,-248.0,219.0,-98.0,102394.0,-8.869000434875488,0,0
2.986855800030753,0.631927490234375,-0.49652099609375,0.0985107421875,-0.586822509765625,0.06103515625,0.18310546875,0.244140625,0.4573974609375,-0.7430419921875,0.4891357421875,-248.0,219.0,-98.0,102394.0,-8.869000434875488,0,0
2.9869242000277154,0.631927490234375,-0.49652099609375,0.0985107421875,-0.586822509765625,-0.1220703125,-0.06103515625,0.18310546875,0.45751953125,-0.7437744140625,0.48828125,-248.0,219.0,-98.0,102394.0,-8.869000434875488,0,0
3.03061290003825,0.6319580078125,-0.49652099609375,0.098541259765625,-0.586822509765625,-0.06103515625,0.06103515625,-0.1220703125,0.45654296875,-0.7435302734375,0.488525390625,-248.0,219.0,-98.0,102394.0,-8.869000434875488,0,0
3.0306968000368215,0.6319580078125,-0.49652099609375,0.098541259765625,-0.586822509765625,-0.30517578125,0.06103515625,0.06103515625,0.45849609375,-0.742431640625,0.488037109375,-248.0,219.0,-98.0,102394.0,-8.869000434875488,0,0
3.030767599993851,0.6319580078125,-0.49652099609375,0.098541259765625,-0.586822509765625,0.06103515625,0.1220703125,0.06103515625,0.457275390625,-0.742431640625,0.48876953125,-248.0,219.0,-98.0,102394.0,-8.869000434875488,0,0
