Time stamp(sec),adc1,adc2,roll_angular_rate,pitch_angular_rate,yaw_angular_rate,acc_X,acc_Y,acc_Z,mag_X,mag_Y,mag_Z,pressure,altitude
0.029823799995938316,0.371490478515625,-0.450653076171875,0.311798095703125,-0.749420166015625,-0.06103515625,-0.1220703125,-0.42724609375,0.4437255859375,-0.8001708984375,0.4019775390625,-298.0,149.0,-147.0,101693.0,-3.065000057220459,0,0
0.02989259999594651,0.371490478515625,-0.450653076171875,0.311798095703125,-0.74945068359375,0.1220703125,-0.244140625,-0.244140625,0.444091796875,-0.8026123046875,0.4019775390625,-298.0,149.0,-147.0,101693.0,-3.065000057220459,0,0
0.030027000000700355,0.3714599609375,-0.450653076171875,0.311798095703125,-0.74945068359375,-0.1220703125,-0.42724609375,-0.244140625,0.4442138671875,-0.8009033203125,0.4012451171875,-298.0,149.0,-147.0,101693.0,-3.065000057220459,0,0
0.030105699988780543,0.3714599609375,-0.450653076171875,0.311798095703125,-0.749420166015625,0.06103515625,-0.06103515625,-0.18310546875,0.4456787109375,-0.80322265625,0.3992919921875,-298.0,149.0,-147.0,101693.0,-3.065000057220459,0,0
0.03016189999470953,0.3714599609375,-0.450653076171875,0.311798095703125,-0.749420166015625,0.42724609375,-0.30517578125,-0.30517578125,0.4442138671875,-0.8046875,0.3988037109375,-298.0,149.0,-147.0,101693.0,-3.065000057220459,0,0
0.030214699989301153,0.3714599609375,-0.450653076171875,0.311798095703125,-0.749420166015625,-0.06103515625,0.1220703125,0.0,0.444580078125,-0.8037109375,0.3995361328125,-298.0,149.0,-147.0,101693.0,-3.06600022315979,0,0
0.03058339998824522,0.3714599609375,-0.450653076171875,0.311798095703125,-0.74945068359375,0.1220703125,0.0,-0.06103515625,0.446533203125,-0.8038330078125,0.3995361328125,-298.0,149.0,-147.0,101693.0,-3.06600022315979,0,0
0.03066269999544602,0.3714599609375,-0.450653076171875,0.311798095703125,-0.74945068359375,0.1220703125,-0.1220703125,0.18310546875,0.4439697265625,-0.80224609375,0.4000244140625,-298.0,149.0,-147.0,101693.0,-3.06600022315979,0,0
0.030719299989868887,0.3714599609375,-0.450653076171875,0.311798095703125,-0.74945068359375,-0.3662109375,-0.1220703125,0.0,0.4429931640625,-0.802490234375,0.4014892578125,-298.0,149.0,-147.0,101693.0,-3.06600022315979,0,0
0.03246569998736959,0.3714599609375,-0.450653076171875,0.311798095703125,-0.74945068359375,-0.3662109375,-0.1220703125,0.0,0.4429931640625,-0.802490234375,0.4014892578125,-298.0,149.0,-147.0,101693.0,-3.06600022315979,0,0
0.03253069998754654,0.3714599609375,-0.450653076171875,0.311798095703125,-0.74945068359375,-0.18310546875,-0.1220703125,-0.244140625,0.4432373046875,-0.8006591796875,0.3980712890625,-298.0,149.0,-147.0,101693.0,-3.06600022315979,0,0
0.03258549999736715,0.3714599609375,-0.450653076171875,0.311798095703125,-0.74945068359375,-0.244140625,-0.18310546875,0.06103515625,0.44482421875,-0.799560546875,0.3975830078125,-298.0,149.0,-147.0,101693.0,-3.06600022315979,0,0
0.09333479999622796,0.3714599609375,-0.450653076171875,0.311767578125,-0.749420166015625,0.06103515625,0.18310546875,0.18310546875,0.4442138671875,-0.802490234375,0.39990234375,-298.0,149.0,-147.0,101693.0,-3.06600022315979,0,0
0.09339929999259766,0.3714599609375,-0.450653076171875,0.311798095703125,-0.74945068359375,-0.06103515625,0.06103515625,0.244140625,0.4434814453125,-0.8056640625,0.4012451171875,-298.0,149.0,-147.0,101693.0,-3.06600022315979,0,0
0.093455800000811,0.3714599609375,-0.450653076171875,0.311798095703125,-0.749420166015625,0.06103515625,0.244140625,0.244140625,0.4425048828125,-0.805908203125,0.399658203125,-298.0,149.0,-147.0,101693.0,-3.06600022315979,0,0
0.09351129998685792,0.3714599609375,-0.450653076171875,0.311798095703125,-0.749420166015625,0.06103515625,0.06103515625,0.1220703125,0.4437255859375,-0.804443359375,0.3994140625,-298.0,149.0,-147.0,101693.0,-3.06600022315979,0,0
0.09356670000124723,0.3714599609375,-0.450653076171875,0.311798095703125,-0.749420166015625,0.06103515625,0.06103515625,0.1220703125,0.4437255859375,-0.804443359375,0.3994140625,-298.0,149.0,-147.0,101693.0,-3.06600022315979,0,0
0.09371879999525845,0.3714599609375,-0.450653076171875,0.311798095703125,-0.749420166015625,-0.06103515625,-0.3662109375,-0.3662109375,0.4444580078125,-0.803955078125,0.397216796875,-298.0,149.0,-147.0,101693.0,-3.06600022315979,0,0
0.09377199999289587,0.371490478515625,-0.450653076171875,0.311798095703125,-0.749420166015625,0.3662109375,-0.244140625,-0.30517578125,0.4422607421875,-0.8017578125,0.4005126953125,-299.0,150.0,-147.0,101693.0,-3.06600022315979,0,0
0.09382529999129474,0.37176513671875,-0.450775146484375,0.311614990234375,-0.749298095703125,0.30517578125,-0.06103515625,-0.3662109375,0.44482421875,-0.8035888671875,0.400146484375,-299.0,150.0,-147.0,101693.0,-3.06600022315979,0,0
0.09387889999197796,0.37176513671875,-0.450775146484375,0.311614990234375,-0.749298095703125,0.1220703125,-0.18310546875,-0.244140625,0.4422607421875,-0.8035888671875,0.4013671875,-299.0,150.0,-147.0,101693.0,-3.06600022315979,0,0
0.09393139999883715,0.37176513671875,-0.45074462890625,0.311614990234375,-0.749298095703125,-0.06103515625,-0.18310546875,-0.244140625,0.4429931640625,-0.802001953125,0.401611328125,-299.0,150.0,-147.0,101693.0,-3.06600022315979,0,0
0.09398369998962153,0.37176513671875,-0.45074462890625,0.311614990234375,-0.749298095703125,0.06103515625,-0.06103515625,-0.244140625,0.443115234375,-0.8026123046875,0.4017333984375,-299.0,150.0,-147.0,101693.0,-3.06600022315979,0,0
0.0940373999910662,0.37176513671875,-0.45074462890625,0.311614990234375,-0.749298095703125,0.30517578125,-0.06103515625,-0.3662109375,0.4427490234375,-0.8013916015625,0.4010009765625,-299.0,150.0,-147.0,101693.0,-3.06600022315979,0,0
0.15402079999330454,0.371795654296875,-0.45074462890625,0.311614990234375,-0.749298095703125,0.1220703125,0.18310546875,-0.18310546875,0.4468994140625,-0.8004150390625,0.400146484375,-299.0,150.0,-147.0,101693.0,-3.065000057220459,0,0
0.1541492999967886,0.37176513671875,-0.45074462890625,0.311614990234375,-0.749298095703125,-0.3662109375,-0.1220703125,0.06103515625,0.446533203125,-0.80224609375,0.398193359375,-299.0,150.0,-147.0,101693.0,-3.065000057220459,0,0
0.15427149999595713,0.37176513671875,-0.45074462890625,0.31158447265625,-0.749298095703125,0.06103515625,-0.1220703125,0.1220703125,0.44482421875,-0.80029296875,0.3980712890625,-299.0,150.0,-147.0,101693.0,-3.065000057220459,0,0
0.1543892999907257,0.37176513671875,-0.45074462890625,0.31158447265625,-0.749298095703125,-0.18310546875,0.30517578125,0.18310546875,0.4449462890625,-0.8021240234375,0.4000244140625,-299.0,150.0,-147.0,101693.0,-3.065000057220459,0,0
0.15466419998847414,0.37176513671875,-0.45074462890625,0.31158447265625,-0.749298095703125,0.1220703125,-0.1220703125,0.06103515625,0.4434814453125,-0.8037109375,0.399169921875,-299.0,150.0,-147.0,101693.0,-3.065000057220459,0,0
0.15478349999466445,0.37176513671875,-0.45074462890625,0.31158447265625,-0.749298095703125,-0.1220703125,-0.06103515625,0.244140625,0.4429931640625,-0.80224609375,0.400390625,-299.0,150.0,-147.0,101693.0,-3.065000057220459,0,0
0.15490119998867158,0.37176513671875,-0.45074462890625,0.31158447265625,-0.749298095703125,-0.06103515625,-0.06103515625,0.18310546875,0.441162109375,-0.801025390625,0.4027099609375,-299.0,150.0,-147.0,101693.0,-3.065000057220459,0,0
0.15501429999130778,0.371795654296875,-0.45074462890625,0.31158447265625,-0.749298095703125,0.06103515625,0.06103515625,-0.1220703125,0.4444580078125,-0.8045654296875,0.400390625,-299.0,150.0,-147.0,101693.0,-3.065000057220459,0,0
0.1551286999892909,0.37176513671875,-0.45074462890625,0.31158447265625,-0.749298095703125,0.06103515625,-0.1220703125,0.0,0.445556640625,-0.802978515625,0.39990234375,-299.0,150.0,-147.0,101693.0,-3.065000057220459,0,0
0.15524359999108128,0.37176513671875,-0.45074462890625,0.31158447265625,-0.749298095703125,0.06103515625,-0.1220703125,0.0,0.445556640625,-0.802978515625,0.39990234375,-299.0,150.0,-147.0,101693.0,-3.065000057220459,0,0
0.1553585999936331,0.371795654296875,-0.450714111328125,0.311614990234375,-0.749298095703125,0.0,-0.06103515625,-0.30517578125,0.4437255859375,-0.80224609375,0.39990234375,-299.0,150.0,-147.0,101693.0,-3.065000057220459,0,0
0.21919039999193046,0.371795654296875,-0.45074462890625,0.311614990234375,-0.749298095703125,0.0,-0.18310546875,-0.3662109375,0.4439697265625,-0.802978515625,0.400390625,-299.0,150.0,-147.0,101693.0,-3.065000057220459,0,0
0.21925449999980628,0.371795654296875,-0.450714111328125,0.311614990234375,-0.749298095703125,0.0,-0.18310546875,-0.3662109375,0.4439697265625,-0.802978515625,0.400390625,-298.0,149.0,-147.0,101693.0,-3.065000057220459,0,0
0.21931279999262188,0.3720703125,-0.450836181640625,0.311431884765625,-0.749176025390625,0.18310546875,0.0,-0.30517578125,0.4432373046875,-0.802001953125,0.399658203125,-298.0,149.0,-147.0,101693.0,-3.065000057220459,0,0
0.219376299995929,0.3720703125,-0.450836181640625,0.311431884765625,-0.749176025390625,0.18310546875,-0.1220703125,-0.1220703125,0.4427490234375,-0.7996826171875,0.3992919921875,-298.0,149.0,-147.0,101693.0,-3.065000057220459,0,0
0.21943349999492057,0.3720703125,-0.450836181640625,0.311431884765625,-0.749176025390625,-0.06103515625,0.1220703125,-0.1220703125,0.443603515625,-0.8021240234375,0.40185546875,-298.0,149.0,-147.0,101693.0,-3.065000057220459,0,0
0.2195653999951901,0.3720703125,-0.450836181640625,0.311431884765625,-0.749176025390625,-0.18310546875,0.18310546875,0.1220703125,0.4437255859375,-0.8045654296875,0.4010009765625,-298.0,149.0,-147.0,101693.0,-3.065000057220459,0,0
0.22128990000055637,0.3720703125,-0.450836181640625,0.311431884765625,-0.749176025390625,-0.244140625,0.0,0.18310546875,0.445556640625,-0.8037109375,0.4010009765625,-298.0,149.0,-147.0,101693.0,-3.065000057220459,0,0
0.22135069999785628,0.3720703125,-0.450836181640625,0.3114013671875,-0.749176025390625,-0.244140625,0.0,0.18310546875,0.445556640625,-0.8037109375,0.4010009765625,-298.0,149.0,-147.0,101693.0,-3.06600022315979,0,0
0.2214104999875417,0.3720703125,-0.450836181640625,0.3114013671875,-0.749176025390625,-0.244140625,0.0,0.18310546875,0.445556640625,-0.8037109375,0.4010009765625,-298.0,149.0,-147.0,101693.0,-3.06600022315979,0,0
0.22146689999499358,0.3720703125,-0.450836181640625,0.311431884765625,-0.749176025390625,0.1220703125,0.244140625,0.06103515625,0.4425048828125,-0.80224609375,0.3990478515625,-298.0,149.0,-147.0,101693.0,-3.06600022315979,0,0
0.22152249999635387,0.3720703125,-0.450836181640625,0.311431884765625,-0.749176025390625,0.0,0.0,-0.1220703125,0.441650390625,-0.8038330078125,0.3983154296875,-298.0,149.0,-147.0,101693.0,-3.06600022315979,0,0
0.2215810999914538,0.3720703125,-0.450836181640625,0.311431884765625,-0.749176025390625,0.0,0.06103515625,0.1220703125,0.446044921875,-0.8023681640625,0.39990234375,-298.0,149.0,-147.0,101693.0,-3.06600022315979,0,0
0.22163780000119004,0.3720703125,-0.450836181640625,0.311431884765625,-0.749176025390625,0.1220703125,-0.30517578125,-0.18310546875,0.4437255859375,-0.8017578125,0.39794921875,-298.0,149.0,-147.0,101693.0,-3.06600022315979,0,0
0.28564259999257047,0.3720703125,-0.450836181640625,0.311431884765625,-0.749176025390625,0.18310546875,0.0,-0.244140625,0.44580078125,-0.8016357421875,0.400390625,-298.0,149.0,-147.0,101693.0,-3.06600022315979,0,0
0.28571669998927973,0.3720703125,-0.450836181640625,0.311431884765625,-0.749176025390625,0.06103515625,-0.06103515625,-0.1220703125,0.442626953125,-0.80029296875,0.400634765625,-298.0,149.0,-147.0,101693.0,-3.06600022315979,0,0
0.2857740999897942,0.3720703125,-0.450836181640625,0.3114013671875,-0.749176025390625,0.06103515625,0.06103515625,-0.244140625,0.4449462890625,-0.8023681640625,0.4007568359375,-298.0,149.0,-147.0,101693.0,-3.06600022315979,0,0
0.28583129998878576,0.3720703125,-0.450836181640625,0.3114013671875,-0.749176025390625,0.06103515625,0.06103515625,-0.244140625,0.4449462890625,-0.8023681640625,0.4007568359375,-298.0,149.0,-147.0,101693.0,-3.06600022315979,0,0
0.28588749999471474,0.3720703125,-0.450836181640625,0.3114013671875,-0.749176025390625,-0.42724609375,0.06103515625,-0.06103515625,0.4449462890625,-0.80419921875,0.4013671875,-298.0,149.0,-147.0,101693.0,-3.06600022315979,0,0
0.28645339999638963,0.3720703125,-0.450836181640625,0.3114013671875,-0.749176025390625,-0.06103515625,-0.06103515625,0.0,0.4451904296875,-0.803466796875,0.400634765625,-298.0,149.0,-147.0,101693.0,-3.06600022315979,0,0
0.28651749998971354,0.3720703125,-0.450836181640625,0.3114013671875,-0.749176025390625,0.3662109375,0.06103515625,0.0,0.4434814453125,-0.8016357421875,0.39794921875,-298.0,149.0,-147.0,101693.0,-3.06600022315979,0,0
0.2865750999917509,0.3720703125,-0.450836181640625,0.311431884765625,-0.749176025390625,-0.3662109375,-0.18310546875,-0.3662109375,0.4407958984375,-0.800537109375,0.3997802734375,-297.0,151.0,-148.0,101693.0,-3.06600022315979,0,0
0.2866306999931112,0.3720703125,-0.450836181640625,0.3114013671875,-0.749176025390625,-0.1220703125,0.06103515625,0.0,0.4453125,-0.8001708984375,0.3997802734375,-297.0,151.0,-148.0,101693.0,-3.06600022315979,0,0
0.28668619999371003,0.37237548828125,-0.450958251953125,0.311248779296875,-0.7490234375,0.1220703125,0.0,-0.48828125,0.442626953125,-0.8004150390625,0.3974609375,-297.0,151.0,-148.0,101693.0,-3.06600022315979,0,0
0.286741499992786,0.37237548828125,-0.450958251953125,0.311248779296875,-0.7490234375,-0.1220703125,0.18310546875,0.0,0.4432373046875,-0.801025390625,0.3992919921875,-297.0,151.0,-148.0,101693.0,-3.06600022315979,0,0
0.28679649998957757,0.37237548828125,-0.450958251953125,0.31121826171875,-0.7490234375,0.06103515625,0.06103515625,0.0,0.4425048828125,-0.80126953125,0.3978271484375,-297.0,151.0,-148.0,101693.0,-3.06600022315979,0,0
0.3418639999872539,0.37237548828125,-0.450958251953125,0.31121826171875,-0.7490234375,0.1220703125,0.0,0.18310546875,0.443115234375,-0.80322265625,0.4000244140625,-297.0,151.0,-148.0,101693.0,-3.064000129699707,0,0
0.3419374999939464,0.37237548828125,-0.450958251953125,0.31121826171875,-0.7490234375,0.06103515625,0.06103515625,0.18310546875,0.44580078125,-0.804443359375,0.400634765625,-297.0,151.0,-148.0,101693.0,-3.064000129699707,0,0
0.34200249999412335,0.37237548828125,-0.450958251953125,0.31121826171875,-0.7490234375,0.06103515625,-0.06103515625,0.244140625,0.4444580078125,-0.8038330078125,0.4000244140625,-297.0,151.0,-148.0,101693.0,-3.064000129699707,0,0
0.3420618999953149,0.37237548828125,-0.450958251953125,0.31121826171875,-0.749053955078125,-0.244140625,0.06103515625,0.244140625,0.4447021484375,-0.802978515625,0.4029541015625,-297.0,151.0,-148.0,101693.0,-3.064000129699707,0,0
0.3421187999920221,0.37237548828125,-0.450958251953125,0.31121826171875,-0.749053955078125,-0.1220703125,-0.06103515625,0.06103515625,0.4453125,-0.8045654296875,0.400634765625,-297.0,151.0,-148.0,101693.0,-3.064000129699707,0,0
0.34222829999634996,0.37237548828125,-0.450958251953125,0.31121826171875,-0.749053955078125,0.06103515625,-0.06103515625,0.06103515625,0.4449462890625,-0.805908203125,0.400146484375,-297.0,151.0,-148.0,101693.0,-3.064000129699707,0,0
0.3422878999990644,0.37237548828125,-0.450958251953125,0.31121826171875,-0.749053955078125,-0.1220703125,-0.18310546875,-0.1220703125,0.4444580078125,-0.802490234375,0.3997802734375,-297.0,151.0,-148.0,101693.0,-3.064000129699707,0,0
0.3423443999927258,0.37237548828125,-0.450958251953125,0.31121826171875,-0.749053955078125,0.1220703125,-0.06103515625,-0.18310546875,0.444091796875,-0.802001953125,0.400390625,-297.0,151.0,-148.0,101693.0,-3.064000129699707,0,0
0.3424005999986548,0.37237548828125,-0.450958251953125,0.31121826171875,-0.749053955078125,0.1220703125,-0.06103515625,-0.18310546875,0.444091796875,-0.802001953125,0.400390625,-297.0,151.0,-148.0,101693.0,-3.064000129699707,0,0
0.34245759999612346,0.37237548828125,-0.450958251953125,0.31121826171875,-0.749053955078125,0.06103515625,-0.30517578125,-0.244140625,0.4444580078125,-0.8033447265625,0.4000244140625,-297.0,151.0,-148.0,101693.0,-3.064000129699707,0,0
0.3425126999936765,0.37237548828125,-0.450958251953125,0.31121826171875,-0.749053955078125,0.06103515625,-0.30517578125,-0.244140625,0.4444580078125,-0.8033447265625,0.4000244140625,-297.0,151.0,-148.0,101693.0,-3.064000129699707,0,0
0.41034759998728987,0.37237548828125,-0.450958251953125,0.31121826171875,-0.7490234375,-0.30517578125,-0.244140625,-0.30517578125,0.4432373046875,-0.8017578125,0.3978271484375,-297.0,151.0,-148.0,101693.0,-3.064000129699707,0,0
0.41040959999372717,0.37237548828125,-0.450958251953125,0.31121826171875,-0.7490234375,0.244140625,0.0,-0.244140625,0.443359375,-0.8006591796875,0.3983154296875,-297.0,151.0,-148.0,101693.0,-3.064000129699707,0,0
0.41046479999204166,0.37237548828125,-0.450958251953125,0.31121826171875,-0.7490234375,0.18310546875,-0.244140625,0.18310546875,0.44189453125,-0.8018798828125,0.3983154296875,-297.0,151.0,-148.0,101693.0,-3.064000129699707,0,0
0.41052059999492485,0.37237548828125,-0.450958251953125,0.31121826171875,-0.7490234375,0.18310546875,-0.244140625,0.18310546875,0.44189453125,-0.8018798828125,0.3983154296875,-298.0,151.0,-148.0,101693.0,-3.064000129699707,0,0
0.41057290000026114,0.3726806640625,-0.451080322265625,0.311065673828125,-0.748870849609375,0.18310546875,0.0,-0.1220703125,0.444580078125,-0.8033447265625,0.3990478515625,-298.0,151.0,-148.0,101693.0,-3.064000129699707,0,0
0.41062529999180697,0.3726806640625,-0.451080322265625,0.311065673828125,-0.748870849609375,0.18310546875,0.0,-0.1220703125,0.444580078125,-0.8033447265625,0.3990478515625,-298.0,151.0,-148.0,101693.0,-3.064000129699707,0,0
0.41088319999107625,0.3726806640625,-0.451080322265625,0.31103515625,-0.7489013671875,0.06103515625,0.244140625,0.244140625,0.4464111328125,-0.80224609375,0.398681640625,-298.0,151.0,-148.0,101693.0,-3.064000129699707,0,0
0.41094379998685326,0.3726806640625,-0.451080322265625,0.31103515625,-0.7489013671875,0.06103515625,0.244140625,0.244140625,0.4464111328125,-0.80224609375,0.398681640625,-298.0,151.0,-148.0,101693.0,-3.064000129699707,0,0
0.41099789999134373,0.3726806640625,-0.451080322265625,0.31103515625,-0.7489013671875,0.18310546875,0.1220703125,0.0,0.44482421875,-0.803466796875,0.4014892578125,-298.0,151.0,-148.0,101693.0,-3.064000129699707,0,0
0.41105239999888,0.3726806640625,-0.451080322265625,0.31103515625,-0.7489013671875,-0.06103515625,-0.1220703125,0.1220703125,0.442138671875,-0.8018798828125,0.4000244140625,-298.0,151.0,-148.0,101693.0,-3.06600022315979,0,0
0.4111038999981247,0.3726806640625,-0.451080322265625,0.31103515625,-0.7489013671875,0.30517578125,-0.06103515625,-0.1220703125,0.44384765625,-0.8001708984375,0.3983154296875,-298.0,151.0,-148.0,101693.0,-3.06600022315979,0,0
0.4111574999988079,0.3726806640625,-0.451080322265625,0.31103515625,-0.7489013671875,0.06103515625,0.0,0.06103515625,0.4429931640625,-0.80224609375,0.4019775390625,-298.0,151.0,-148.0,101693.0,-3.06600022315979,0,0
0.41121049999492243,0.3726806640625,-0.451080322265625,0.31103515625,-0.7489013671875,0.0,-0.1220703125,0.1220703125,0.4461669921875,-0.80419921875,0.4031982421875,-298.0,151.0,-148.0,101693.0,-3.06600022315979,0,0
0.47206819998973515,0.3726806640625,-0.4510498046875,0.31103515625,-0.7489013671875,0.1220703125,-0.06103515625,-0.1220703125,0.4439697265625,-0.80078125,0.4034423828125,-298.0,151.0,-148.0,101693.0,-3.06600022315979,0,0
0.47214049998729024,0.3726806640625,-0.4510498046875,0.31103515625,-0.7489013671875,0.1220703125,-0.06103515625,-0.1220703125,0.4439697265625,-0.80078125,0.4034423828125,-298.0,151.0,-148.0,101693.0,-3.06600022315979,0,0
0.4721986999938963,0.3726806640625,-0.4510498046875,0.31103515625,-0.7489013671875,-0.06103515625,-0.1220703125,0.06103515625,0.442626953125,-0.80029296875,0.3994140625,-298.0,151.0,-148.0,101693.0,-3.06600022315979,0,0
0.47225379999144934,0.3726806640625,-0.451080322265625,0.31103515625,-0.7489013671875,0.3662109375,0.18310546875,0.06103515625,0.4434814453125,-0.80322265625,0.3973388671875,-298.0,151.0,-148.0,101693.0,-3.06600022315979,0,0
0.4748479999980191,0.3726806640625,-0.451080322265625,0.31103515625,-0.7489013671875,-0.06103515625,0.0,0.0,0.4449462890625,-0.8017578125,0.3975830078125,-298.0,151.0,-148.0,101693.0,-3.06600022315979,0,0
0.4749083999922732,0.3726806640625,-0.451080322265625,0.31103515625,-0.7489013671875,0.1220703125,0.0,-0.1220703125,0.4447021484375,-0.802978515625,0.3978271484375,-298.0,151.0,-148.0,101693.0,-3.06600022315979,0,0
0.4749635999905877,0.3726806640625,-0.451080322265625,0.31103515625,-0.7489013671875,-0.1220703125,0.0,-0.1220703125,0.443359375,-0.80419921875,0.4010009765625,-298.0,151.0,-148.0,101693.0,-3.06600022315979,0,0
0.4750179999973625,0.3726806640625,-0.451080322265625,0.31103515625,-0.7489013671875,0.1220703125,-0.18310546875,-0.18310546875,0.44189453125,-0.8018798828125,0.4019775390625,-298.0,151.0,-148.0,101693.0,-3.06600022315979,0,0
0.4750717999995686,0.3726806640625,-0.451080322265625,0.31103515625,-0.7489013671875,0.1220703125,0.0,-0.244140625,0.4422607421875,-0.8026123046875,0.39990234375,-298.0,152.0,-147.0,101693.0,-3.06600022315979,0,0
0.47512439999263734,0.373077392578125,-0.45123291015625,0.310821533203125,-0.748687744140625,-0.1220703125,-0.06103515625,0.1220703125,0.4417724609375,-0.8035888671875,0.39990234375,-298.0,152.0,-147.0,101693.0,-3.06600022315979,0,0
0.47517739998875186,0.373077392578125,-0.45123291015625,0.310821533203125,-0.748687744140625,-0.06103515625,-0.244140625,-0.06103515625,0.443603515625,-0.8023681640625,0.3997802734375,-298.0,152.0,-147.0,101693.0,-3.06600022315979,0,0
0.5411329999915324,0.373077392578125,-0.45123291015625,0.310821533203125,-0.748687744140625,0.18310546875,0.0,-0.244140625,0.4432373046875,-0.8021240234375,0.4012451171875,-298.0,152.0,-147.0,101693.0,-3.06600022315979,0,0
0.5411918999889167,0.373077392578125,-0.45123291015625,0.310821533203125,-0.748687744140625,0.06103515625,-0.18310546875,-0.1220703125,0.4447021484375,-0.804931640625,0.3995361328125,-298.0,152.0,-147.0,101693.0,-3.06600022315979,0,0
0.5412479999940842,0.373077392578125,-0.45123291015625,0.310821533203125,-0.748687744140625,-0.1220703125,0.0,0.1220703125,0.443359375,-0.8011474609375,0.3988037109375,-298.0,152.0,-147.0,101693.0,-3.06600022315979,0,0
0.5413011999917217,0.373077392578125,-0.45123291015625,0.310821533203125,-0.748687744140625,-0.1220703125,-0.06103515625,0.30517578125,0.4471435546875,-0.802734375,0.399658203125,-298.0,152.0,-147.0,101693.0,-3.06600022315979,0,0
0.5413547999924049,0.373077392578125,-0.45123291015625,0.310821533203125,-0.748687744140625,-0.06103515625,-0.1220703125,0.244140625,0.4447021484375,-0.8018798828125,0.3990478515625,-298.0,152.0,-147.0,101693.0,-3.06600022315979,0,0
0.5425079999986337,0.373077392578125,-0.45123291015625,0.310791015625,-0.748687744140625,0.18310546875,-0.244140625,0.244140625,0.4454345703125,-0.8018798828125,0.400390625,-298.0,152.0,-147.0,101693.0,-3.06600022315979,0,0
0.5425652999983868,0.373077392578125,-0.45123291015625,0.310791015625,-0.748687744140625,-0.18310546875,0.0,0.42724609375,0.4449462890625,-0.8028564453125,0.39892578125,-298.0,152.0,-147.0,101693.0,-3.06600022315979,0,0
0.54261889999907,0.373077392578125,-0.45123291015625,0.310791015625,-0.748687744140625,-0.18310546875,0.0,0.42724609375,0.4449462890625,-0.8028564453125,0.39892578125,-298.0,152.0,-147.0,101693.0,-3.06600022315979,0,0
0.5426709999883315,0.373077392578125,-0.45123291015625,0.310821533203125,-0.748687744140625,0.244140625,0.1220703125,0.1220703125,0.44384765625,-0.8043212890625,0.3983154296875,-298.0,152.0,-147.0,101693.0,-3.06600022315979,0,0
0.5427244999882532,0.373077392578125,-0.45123291015625,0.310821533203125,-0.748687744140625,-0.1220703125,-0.18310546875,-0.18310546875,0.444091796875,-0.802734375,0.3988037109375,-298.0,152.0,-147.0,101693.0,-3.06600022315979,0,0
0.5427772999973968,0.373077392578125,-0.45123291015625,0.310821533203125,-0.748687744140625,-0.1220703125,-0.244140625,-0.3662109375,0.44384765625,-0.8023681640625,0.3970947265625,-298.0,152.0,-147.0,101693.0,-3.06600022315979,0,0
0.604268899987801,0.373077392578125,-0.45123291015625,0.310821533203125,-0.748687744140625,0.18310546875,-0.06103515625,-0.3662109375,0.4432373046875,-0.8026123046875,0.3984375,-298.0,152.0,-147.0,101693.0,-3.06600022315979,0,0
0.6043365999939851,0.373077392578125,-0.45123291015625,0.310821533203125,-0.748687744140625,0.18310546875,-0.06103515625,-0.3662109375,0.4432373046875,-0.8026123046875,0.3984375,-298.0,152.0,-147.0,101693.0,-3.06600022315979,0,0
0.6045778999978211,0.373077392578125,-0.45123291015625,0.310821533203125,-0.748687744140625,0.42724609375,0.06103515625,-0.3662109375,0.44287109375,-0.8021240234375,0.4010009765625,-298.0,152.0,-147.0,101693.0,-3.06600022315979,0,0
0.604667799998424,0.373077392578125,-0.45123291015625,0.310821533203125,-0.748687744140625,0.06103515625,-0.30517578125,-0.244140625,0.445068359375,-0.8021240234375,0.3995361328125,-298.0,152.0,-147.0,101693.0,-3.06600022315979,0,0
0.6047293999872636,0.373077392578125,-0.45123291015625,0.310821533203125,-0.748687744140625,0.244140625,-0.18310546875,-0.18310546875,0.4432373046875,-0.8038330078125,0.40087890625,-298.0,152.0,-147.0,101693.0,-3.06600022315979,0,0
0.6049430999992182,0.37359619140625,-0.451446533203125,0.310516357421875,-0.748443603515625,0.244140625,-0.18310546875,-0.18310546875,0.4432373046875,-0.8038330078125,0.40087890625,-297.0,151.0,-147.0,101693.0,-3.06600022315979,0,0
0.6051645999978064,0.37359619140625,-0.451446533203125,0.310516357421875,-0.748443603515625,0.244140625,-0.18310546875,-0.18310546875,0.4432373046875,-0.8038330078125,0.40087890625,-297.0,151.0,-147.0,101693.0,-3.06600022315979,0,0
0.6052296999987448,0.37359619140625,-0.451446533203125,0.310516357421875,-0.748443603515625,0.06103515625,0.1220703125,0.1220703125,0.44384765625,-0.8001708984375,0.3985595703125,-297.0,151.0,-147.0,101693.0,-3.06600022315979,0,0
0.605288599996129,0.373565673828125,-0.451446533203125,0.310516357421875,-0.748443603515625,-0.1220703125,-0.18310546875,0.1220703125,0.443603515625,-0.80126953125,0.3994140625,-297.0,151.0,-147.0,101693.0,-3.06600022315979,0,0
0.6053485999873374,0.37359619140625,-0.451446533203125,0.310516357421875,-0.7484130859375,-0.18310546875,0.244140625,0.42724609375,0.4456787109375,-0.8046875,0.400146484375,-297.0,151.0,-147.0,101693.0,-3.06600022315979,0,0
0.6054215999902226,0.37359619140625,-0.451446533203125,0.310516357421875,-0.7484130859375,0.06103515625,0.1220703125,-0.06103515625,0.44287109375,-0.8045654296875,0.3997802734375,-297.0,151.0,-147.0,101693.0,-3.06600022315979,0,0
0.6054798999975901,0.37359619140625,-0.451446533203125,0.310516357421875,-0.7484130859375,0.18310546875,-0.18310546875,0.244140625,0.44287109375,-0.802490234375,0.3983154296875,-297.0,151.0,-147.0,101693.0,-3.067000150680542,0,0
0.6057124999933876,0.37359619140625,-0.451446533203125,0.310516357421875,-0.7484130859375,-0.1220703125,0.0,0.0,0.4427490234375,-0.8018798828125,0.4002685546875,-297.0,151.0,-147.0,101693.0,-3.067000150680542,0,0
0.6667020999884699,0.37359619140625,-0.451446533203125,0.310546875,-0.7484130859375,0.18310546875,-0.3662109375,-0.06103515625,0.4410400390625,-0.80419921875,0.4000244140625,-297.0,151.0,-147.0,101693.0,-3.067000150680542,0,0
0.6667751999921165,0.37359619140625,-0.451446533203125,0.310546875,-0.7484130859375,0.244140625,0.0,-0.3662109375,0.44384765625,-0.8033447265625,0.398193359375,-297.0,151.0,-147.0,101693.0,-3.067000150680542,0,0
0.666860799989081,0.37359619140625,-0.451446533203125,0.310546875,-0.7484130859375,-0.1220703125,-0.244140625,-0.48828125,0.4442138671875,-0.80029296875,0.3992919921875,-297.0,151.0,-147.0,101693.0,-3.067000150680542,0,0
0.6669186999934027,0.37359619140625,-0.451446533203125,0.310546875,-0.7484130859375,0.1220703125,-0.1220703125,-0.18310546875,0.4439697265625,-0.8017578125,0.400390625,-297.0,151.0,-147.0,101693.0,-3.067000150680542,0,0
0.6669773999892641,0.37359619140625,-0.451446533203125,0.310546875,-0.7484130859375,-0.06103515625,-0.1220703125,-0.48828125,0.4439697265625,-0.802490234375,0.3994140625,-297.0,151.0,-147.0,101693.0,-3.067000150680542,0,0
0.6672141999879386,0.37359619140625,-0.451446533203125,0.310516357421875,-0.748443603515625,0.1220703125,-0.18310546875,-0.3662109375,0.44384765625,-0.799560546875,0.4002685546875,-297.0,151.0,-147.0,101693.0,-3.067000150680542,0,0
0.6672705999953905,0.37359619140625,-0.451446533203125,0.310516357421875,-0.748443603515625,-0.06103515625,-0.18310546875,0.0,0.4461669921875,-0.802978515625,0.399658203125,-297.0,151.0,-147.0,101693.0,-3.067000150680542,0,0
0.6673282999981893,0.37359619140625,-0.451446533203125,0.310516357421875,-0.748443603515625,-0.06103515625,-0.1220703125,0.06103515625,0.445068359375,-0.8038330078125,0.399658203125,-297.0,151.0,-147.0,101693.0,-3.067000150680542,0,0
0.6673835999972653,0.373565673828125,-0.451446533203125,0.310516357421875,-0.748443603515625,0.06103515625,-0.1220703125,0.3662109375,0.4462890625,-0.803955078125,0.3994140625,-297.0,151.0,-147.0,101693.0,-3.067000150680542,0,0
0.6674388999963412,0.373565673828125,-0.451446533203125,0.310516357421875,-0.748443603515625,0.0,0.06103515625,0.42724609375,0.44677734375,-0.8026123046875,0.3988037109375,-297.0,151.0,-147.0,101693.0,-3.067000150680542,0,0
0.667493499990087,0.373565673828125,-0.451446533203125,0.310516357421875,-0.748443603515625,0.0,0.06103515625,0.42724609375,0.44677734375,-0.8026123046875,0.3988037109375,-297.0,151.0,-147.0,101693.0,-3.067000150680542,0,0
0.7287279999873135,0.373779296875,-0.4515380859375,0.310394287109375,-0.748321533203125,0.18310546875,0.1220703125,-0.18310546875,0.444091796875,-0.803466796875,0.3995361328125,-296.0,151.0,-148.0,101693.0,-3.067000150680542,0,0
0.7288046999892686,0.373779296875,-0.4515380859375,0.310394287109375,-0.748321533203125,0.06103515625,0.06103515625,-0.244140625,0.4420166015625,-0.802001953125,0.3975830078125,-296.0,151.0,-148.0,101693.0,-3.067000150680542,0,0
0.7288652999995975,0.373779296875,-0.4515380859375,0.310394287109375,-0.748321533203125,0.18310546875,-0.244140625,-0.244140625,0.4442138671875,-0.8016357421875,0.39794921875,-296.0,151.0,-148.0,101693.0,-3.067000150680542,0,0
0.7290396999887889,0.373779296875,-0.4515380859375,0.310394287109375,-0.748321533203125,0.18310546875,-0.06103515625,-0.244140625,0.441650390625,-0.801025390625,0.3994140625,-296.0,151.0,-148.0,101693.0,-3.065000057220459,0,0
0.7291216000012355,0.373779296875,-0.4515380859375,0.310394287109375,-0.748321533203125,0.0,-0.06103515625,-0.42724609375,0.444091796875,-0.8017578125,0.3992919921875,-296.0,151.0,-148.0,101693.0,-3.065000057220459,0,0
0.7306262999918545,0.373779296875,-0.451568603515625,0.310394287109375,-0.748321533203125,0.06103515625,-0.1220703125,-0.1220703125,0.447021484375,-0.802490234375,0.398681640625,-296.0,151.0,-148.0,101693.0,-3.065000057220459,0,0
0.7306893999921158,0.373779296875,-0.451568603515625,0.310394287109375,-0.748321533203125,0.06103515625,-0.1220703125,-0.1220703125,0.447021484375,-0.802490234375,0.398681640625,-296.0,151.0,-148.0,101693.0,-3.065000057220459,0,0
0.7307499999878928,0.373779296875,-0.451568603515625,0.310394287109375,-0.748321533203125,0.06103515625,0.0,0.0,0.44482421875,-0.802490234375,0.400146484375,-296.0,151.0,-148.0,101693.0,-3.065000057220459,0,0
0.7308071999868844,0.373779296875,-0.451568603515625,0.310394287109375,-0.748321533203125,-0.06103515625,0.06103515625,-0.1220703125,0.4449462890625,-0.8023681640625,0.39794921875,-296.0,151.0,-148.0,101693.0,-3.065000057220459,0,0
0.7308625000005122,0.373748779296875,-0.451568603515625,0.310394287109375,-0.748321533203125,0.0,-0.1220703125,-0.06103515625,0.4456787109375,-0.8035888671875,0.39794921875,-296.0,151.0,-148.0,101693.0,-3.065000057220459,0,0
0.7309210999956122,0.373748779296875,-0.451568603515625,0.310394287109375,-0.748321533203125,0.0,0.0,-0.244140625,0.4447021484375,-0.802001953125,0.3990478515625,-296.0,151.0,-148.0,101693.0,-3.065000057220459,0,0
0.7919122999883257,0.373748779296875,-0.451568603515625,0.310394287109375,-0.748321533203125,0.0,0.0,-0.18310546875,0.4456787109375,-0.801513671875,0.3992919921875,-296.0,151.0,-148.0,101693.0,-3.065000057220459,0,0
0.7920472999976482,0.373748779296875,-0.451568603515625,0.310394287109375,-0.748321533203125,0.06103515625,-0.06103515625,-0.3662109375,0.4464111328125,-0.7999267578125,0.3978271484375,-296.0,151.0,-148.0,101693.0,-3.065000057220459,0,0
0.7921118999947794,0.373748779296875,-0.451568603515625,0.310394287109375,-0.748321533203125,0.06103515625,-0.06103515625,-0.3662109375,0.4464111328125,-0.7999267578125,0.3978271484375,-296.0,151.0,-148.0,101693.0,-3.065000057220459,0,0
0.7921720000013011,0.373748779296875,-0.451568603515625,0.31036376953125,-0.748321533203125,0.06103515625,0.06103515625,-0.18310546875,0.443115234375,-0.8016357421875,0.401611328125,-296.0,151.0,-148.0,101693.0,-3.065000057220459,0,0
0.7922302999941166,0.373748779296875,-0.451568603515625,0.31036376953125,-0.748321533203125,0.06103515625,0.0,-0.06103515625,0.4453125,-0.8038330078125,0.398681640625,-296.0,151.0,-148.0,101693.0,-3.065000057220459,0,0
0.7923396999976831,0.373748779296875,-0.451568603515625,0.31036376953125,-0.748321533203125,0.06103515625,0.0,-0.06103515625,0.4453125,-0.8038330078125,0.398681640625,-296.0,151.0,-148.0,101693.0,-3.065000057220459,0,0
0.7924647999898298,0.373748779296875,-0.451568603515625,0.31036376953125,-0.748321533203125,0.0,0.0,0.06103515625,0.445068359375,-0.804443359375,0.39990234375,-296.0,151.0,-148.0,101693.0,-3.065000057220459,0,0
0.7931822999962606,0.373931884765625,-0.45166015625,0.31024169921875,-0.74822998046875,0.06103515625,0.0,-0.244140625,0.4454345703125,-0.8013916015625,0.3992919921875,-296.0,150.0,-147.0,101693.0,-3.065000057220459,0,0
0.7932472999964375,0.373931884765625,-0.45166015625,0.31024169921875,-0.74822998046875,0.1220703125,0.06103515625,-0.1220703125,0.4453125,-0.8016357421875,0.39990234375,-296.0,150.0,-147.0,101693.0,-3.065000057220459,0,0
0.793326299986802,0.373931884765625,-0.45166015625,0.31024169921875,-0.74822998046875,-0.06103515625,-0.30517578125,-0.1220703125,0.4447021484375,-0.8011474609375,0.40185546875,-296.0,150.0,-147.0,101693.0,-3.065000057220459,0,0
0.7933855999872321,0.373931884765625,-0.45166015625,0.31024169921875,-0.74822998046875,-0.18310546875,0.1220703125,0.06103515625,0.445068359375,-0.8031005859375,0.40087890625,-296.0,150.0,-147.0,101693.0,-3.065000057220459,0,0
0.7934448999876622,0.373931884765625,-0.45166015625,0.31024169921875,-0.74822998046875,-0.30517578125,0.0,0.1220703125,0.4427490234375,-0.8018798828125,0.399658203125,-296.0,150.0,-147.0,101693.0,-3.065000057220459,0,0
0.7935008999920683,0.373931884765625,-0.45166015625,0.31024169921875,-0.74822998046875,0.06103515625,-0.1220703125,-0.244140625,0.4432373046875,-0.8026123046875,0.398193359375,-296.0,150.0,-147.0,101693.0,-3.06600022315979,0,0
0.8615667999983998,0.37396240234375,-0.45166015625,0.31024169921875,-0.74822998046875,-0.06103515625,0.0,0.1220703125,0.4423828125,-0.802734375,0.400634765625,-296.0,150.0,-147.0,101693.0,-3.06600022315979,0,0
0.8616318999993382,0.37396240234375,-0.45166015625,0.31024169921875,-0.74822998046875,-0.06103515625,0.0,-0.18310546875,0.4423828125,-0.801025390625,0.400146484375,-296.0,150.0,-147.0,101693.0,-3.06600022315979,0,0
0.8616905999951996,0.37396240234375,-0.45166015625,0.31024169921875,-0.74822998046875,0.18310546875,-0.06103515625,-0.244140625,0.444580078125,-0.80078125,0.4012451171875,-296.0,150.0,-147.0,101693.0,-3.06600022315979,0,0
0.861747099988861,0.37396240234375,-0.45166015625,0.31024169921875,-0.74822998046875,-0.1220703125,-0.18310546875,-0.06103515625,0.4442138671875,-0.8018798828125,0.4002685546875,-296.0,150.0,-147.0,101693.0,-3.06600022315979,0,0
0.8618033999955514,0.37396240234375,-0.45166015625,0.31024169921875,-0.74822998046875,-0.18310546875,0.0,0.0,0.44287109375,-0.8006591796875,0.3995361328125,-296.0,150.0,-147.0,101693.0,-3.06600022315979,0,0
0.8618908999924315,0.37396240234375,-0.45166015625,0.31024169921875,-0.74822998046875,0.06103515625,0.1220703125,0.1220703125,0.4437255859375,-0.8028564453125,0.398681640625,-296.0,150.0,-147.0,101693.0,-3.06600022315979,0,0
0.8619475999876158,0.37396240234375,-0.45166015625,0.31024169921875,-0.74822998046875,0.0,-0.18310546875,0.06103515625,0.44384765625,-0.8033447265625,0.4000244140625,-296.0,150.0,-147.0,101693.0,-3.06600022315979,0,0
0.8620031999889761,0.37396240234375,-0.45166015625,0.31024169921875,-0.74822998046875,-0.18310546875,0.0,-0.3662109375,0.4447021484375,-0.80126953125,0.39892578125,-296.0,150.0,-147.0,101693.0,-3.06600022315979,0,0
0.8620621000009123,0.37396240234375,-0.45166015625,0.31024169921875,-0.74822998046875,0.0,0.06103515625,0.1220703125,0.44384765625,-0.8033447265625,0.400634765625,-296.0,150.0,-147.0,101693.0,-3.06600022315979,0,0
0.8621175000007497,0.37396240234375,-0.45166015625,0.31024169921875,-0.74822998046875,0.0,0.06103515625,0.1220703125,0.44384765625,-0.8033447265625,0.400634765625,-296.0,150.0,-147.0,101693.0,-3.06600022315979,0,0
0.8621737999928882,0.37396240234375,-0.45166015625,0.31024169921875,-0.74822998046875,0.1220703125,0.06103515625,-0.18310546875,0.4443359375,-0.8040771484375,0.3978271484375,-296.0,150.0,-147.0,101693.0,-3.06600022315979,0,0
0.9248558999970555,0.3741455078125,-0.451751708984375,0.310150146484375,-0.748138427734375,0.54931640625,-0.06103515625,-0.1220703125,0.4432373046875,-0.801513671875,0.3984375,-294.0,151.0,-147.0,101693.0,-3.06600022315979,0,0
0.9249263999954564,0.3741455078125,-0.451751708984375,0.310150146484375,-0.748138427734375,-0.18310546875,-0.1220703125,0.06103515625,0.4432373046875,-0.802978515625,0.3980712890625,-294.0,151.0,-147.0,101693.0,-3.06600022315979,0,0
0.9249915999971563,0.3741455078125,-0.451751708984375,0.310150146484375,-0.748138427734375,0.0,-0.06103515625,0.1220703125,0.4449462890625,-0.802734375,0.400634765625,-294.0,151.0,-147.0,101693.0,-3.06600022315979,0,0
0.9250516999891261,0.3741455078125,-0.451751708984375,0.31011962890625,-0.748138427734375,0.0,-0.18310546875,-0.18310546875,0.4444580078125,-0.8043212890625,0.400634765625,-294.0,151.0,-147.0,101693.0,-3.06600022315979,0,0
0.9251059999951394,0.3741455078125,-0.451751708984375,0.31011962890625,-0.748138427734375,-0.1220703125,0.0,-0.1220703125,0.4447021484375,-0.802001953125,0.3994140625,-294.0,151.0,-147.0,101693.0,-3.06600022315979,0,0
0.9253184999979567,0.3741455078125,-0.451751708984375,0.31011962890625,-0.748138427734375,-0.1220703125,0.0,-0.1220703125,0.4447021484375,-0.802001953125,0.3994140625,-294.0,151.0,-147.0,101693.0,-3.06600022315979,0,0
0.9253720999986399,0.3741455078125,-0.451751708984375,0.31011962890625,-0.748138427734375,0.18310546875,0.06103515625,-0.18310546875,0.44482421875,-0.803466796875,0.3983154296875,-294.0,151.0,-147.0,101693.0,-3.06600022315979,0,0
0.9254259999870555,0.3741455078125,-0.451751708984375,0.310150146484375,-0.748138427734375,0.06103515625,-0.1220703125,-0.18310546875,0.443359375,-0.80224609375,0.4000244140625,-294.0,151.0,-147.0,101693.0,-3.06600022315979,0,0
0.9254788999969605,0.3741455078125,-0.451751708984375,0.31011962890625,-0.748138427734375,0.0,-0.06103515625,-0.18310546875,0.4437255859375,-0.80126953125,0.401123046875,-294.0,151.0,-147.0,101693.0,-3.06600022315979,0,0
0.9255321999953594,0.3741455078125,-0.451751708984375,0.31011962890625,-0.748138427734375,0.18310546875,0.18310546875,-0.48828125,0.4453125,-0.8023681640625,0.400634765625,-294.0,151.0,-147.0,101693.0,-3.06600022315979,0,0
0.9255839999968885,0.3741455078125,-0.451751708984375,0.31011962890625,-0.748138427734375,0.18310546875,-0.06103515625,0.06103515625,0.4447021484375,-0.8021240234375,0.400146484375,-294.0,151.0,-147.0,101693.0,-3.06600022315979,0,0
0.982573000001139,0.3741455078125,-0.451751708984375,0.31011962890625,-0.748138427734375,-0.18310546875,0.0,0.0,0.4453125,-0.8018798828125,0.3988037109375,-294.0,151.0,-147.0,101693.0,-3.06600022315979,0,0
0.9826418000011472,0.3741455078125,-0.451751708984375,0.31011962890625,-0.748138427734375,0.0,0.1220703125,0.06103515625,0.4437255859375,-0.802001953125,0.3990478515625,-294.0,151.0,-147.0,101693.0,-3.06600022315979,0,0
0.9827021999954013,0.3741455078125,-0.451751708984375,0.31011962890625,-0.748138427734375,0.0,-0.06103515625,0.06103515625,0.4432373046875,-0.8048095703125,0.400634765625,-294.0,151.0,-147.0,101693.0,-3.06600022315979,0,0
0.9827562999998918,0.3741455078125,-0.451751708984375,0.310150146484375,-0.74810791015625,-0.18310546875,0.0,-0.18310546875,0.4432373046875,-0.80615234375,0.39794921875,-294.0,151.0,-147.0,101693.0,-3.06600022315979,0,0
0.9828087999921991,0.3741455078125,-0.451751708984375,0.310150146484375,-0.74810791015625,-0.18310546875,0.0,-0.18310546875,0.4432373046875,-0.80615234375,0.39794921875,-294.0,151.0,-147.0,101693.0,-3.06600022315979,0,0
0.9828617999883136,0.3741455078125,-0.451751708984375,0.310150146484375,-0.74810791015625,0.1220703125,-0.06103515625,-0.18310546875,0.44384765625,-0.8031005859375,0.3985595703125,-294.0,151.0,-147.0,101693.0,-3.06600022315979,0,0
0.9829150000005029,0.3741455078125,-0.451751708984375,0.310150146484375,-0.74810791015625,0.1220703125,0.0,-0.48828125,0.442626953125,-0.801513671875,0.3985595703125,-294.0,151.0,-147.0,101693.0,-3.06600022315979,0,0
0.9835385999904247,0.3741455078125,-0.451751708984375,0.310150146484375,-0.74810791015625,0.0,0.0,-0.3662109375,0.44482421875,-0.802001953125,0.3994140625,-294.0,151.0,-147.0,101693.0,-3.06600022315979,0,0
0.9835990999999922,0.3741455078125,-0.451751708984375,0.310150146484375,-0.74810791015625,0.06103515625,-0.06103515625,-0.06103515625,0.4432373046875,-0.801025390625,0.400146484375,-294.0,151.0,-147.0,101693.0,-3.06600022315979,0,0
0.9836543999990681,0.374359130859375,-0.45184326171875,0.310028076171875,-0.748016357421875,0.06103515625,-0.06103515625,-0.06103515625,0.4432373046875,-0.801025390625,0.400146484375,-294.0,151.0,-147.0,101693.0,-3.06600022315979,0,0
0.9837092999950983,0.374359130859375,-0.45184326171875,0.310028076171875,-0.748016357421875,0.06103515625,-0.1220703125,0.0,0.4447021484375,-0.800537109375,0.4005126953125,-294.0,151.0,-147.0,101693.0,-3.06600022315979,0,0
0.9837636000011116,0.374359130859375,-0.45184326171875,0.310028076171875,-0.748016357421875,0.18310546875,-0.18310546875,0.06103515625,0.4444580078125,-0.802490234375,0.4000244140625,-294.0,151.0,-147.0,101693.0,-3.06600022315979,0,0
0.9838193999894429,0.374359130859375,-0.45184326171875,0.310028076171875,-0.748016357421875,0.0,-0.06103515625,-0.06103515625,0.442138671875,-0.8033447265625,0.3985595703125,-294.0,151.0,-147.0,101693.0,-3.06600022315979,0,0
1.0535460999963107,0.374359130859375,-0.45184326171875,0.310028076171875,-0.748016357421875,0.3662109375,0.244140625,0.0,0.443359375,-0.80322265625,0.39892578125,-294.0,151.0,-147.0,101694.0,-3.067000150680542,0,0
1.053606999994372,0.374359130859375,-0.45184326171875,0.310028076171875,-0.748016357421875,0.0,-0.06103515625,0.06103515625,0.444580078125,-0.803955078125,0.400146484375,-294.0,151.0,-147.0,101694.0,-3.067000150680542,0,0
1.0536623999942094,0.374359130859375,-0.45184326171875,0.310028076171875,-0.748016357421875,0.0,0.1220703125,0.0,0.4415283203125,-0.8026123046875,0.39990234375,-294.0,151.0,-147.0,101694.0,-3.067000150680542,0,0
1.0537152999895625,0.374359130859375,-0.45184326171875,0.310028076171875,-0.748016357421875,-0.06103515625,0.1220703125,0.0,0.44384765625,-0.800048828125,0.4005126953125,-294.0,151.0,-147.0,101694.0,-3.067000150680542,0,0
1.0537702000001445,0.374359130859375,-0.45184326171875,0.310028076171875,-0.748016357421875,-0.18310546875,0.0,0.18310546875,0.4456787109375,-0.803955078125,0.3990478515625,-294.0,151.0,-147.0,101694.0,-3.067000150680542,0,0
1.0544152999937069,0.374359130859375,-0.45184326171875,0.310028076171875,-0.748016357421875,0.1220703125,0.18310546875,0.1220703125,0.4473876953125,-0.80322265625,0.3995361328125,-294.0,151.0,-147.0,101694.0,-3.067000150680542,0,0
1.0544698000012431,0.374359130859375,-0.45184326171875,0.310028076171875,-0.748016357421875,0.0,0.06103515625,0.0,0.4434814453125,-0.8038330078125,0.4010009765625,-294.0,151.0,-147.0,101694.0,-3.067000150680542,0,0
1.0545233999873744,0.374359130859375,-0.45184326171875,0.310028076171875,-0.748016357421875,0.0,0.06103515625,0.0,0.4434814453125,-0.8038330078125,0.4010009765625,-294.0,151.0,-147.0,101694.0,-3.067000150680542,0,0
1.0545760999957565,0.374359130859375,-0.45184326171875,0.310028076171875,-0.748016357421875,0.18310546875,-0.244140625,-0.1220703125,0.4423828125,-0.8038330078125,0.398681640625,-294.0,151.0,-147.0,101694.0,-3.067000150680542,0,0
1.0546271999919554,0.374359130859375,-0.45184326171875,0.310028076171875,-0.748016357421875,-0.244140625,-0.244140625,-0.3662109375,0.4449462890625,-0.801513671875,0.4000244140625,-294.0,151.0,-147.0,101694.0,-3.067000150680542,0,0
1.0546794999972917,0.374359130859375,-0.45184326171875,0.310028076171875,-0.748016357421875,0.244140625,-0.06103515625,-0.244140625,0.44482421875,-0.8009033203125,0.3978271484375,-294.0,151.0,-147.0,101694.0,-3.067000150680542,0,0
1.1166015999915544,0.374359130859375,-0.45184326171875,0.310028076171875,-0.748016357421875,0.18310546875,-0.1220703125,0.0,0.4459228515625,-0.8018798828125,0.3995361328125,-294.0,151.0,-147.0,101694.0,-3.067000150680542,0,0
1.11666649999097,0.374359130859375,-0.45184326171875,0.310028076171875,-0.748016357421875,-0.1220703125,-0.1220703125,0.30517578125,0.4429931640625,-0.8048095703125,0.3983154296875,-293.0,150.0,-147.0,101694.0,-3.067000150680542,0,0
1.1167249999998603,0.37445068359375,-0.451904296875,0.309967041015625,-0.747955322265625,-0.1220703125,0.0,0.1220703125,0.4429931640625,-0.802490234375,0.4005126953125,-293.0,150.0,-147.0,101694.0,-3.067000150680542,0,0
1.1167825000011362,0.37445068359375,-0.451904296875,0.309967041015625,-0.747955322265625,0.1220703125,0.0,0.0,0.444091796875,-0.8035888671875,0.4002685546875,-293.0,150.0,-147.0,101694.0,-3.067000150680542,0,0
1.1168382999894675,0.37445068359375,-0.451904296875,0.309967041015625,-0.747955322265625,0.1220703125,0.0,0.0,0.444091796875,-0.8035888671875,0.4002685546875,-293.0,150.0,-147.0,101694.0,-3.067000150680542,0,0
1.116910500000813,0.37445068359375,-0.451904296875,0.309967041015625,-0.747955322265625,0.0,-0.18310546875,-0.1220703125,0.4447021484375,-0.8037109375,0.4002685546875,-293.0,150.0,-147.0,101694.0,-3.067000150680542,0,0
1.1169666999921901,0.37445068359375,-0.451873779296875,0.30999755859375,-0.747955322265625,-0.1220703125,-0.06103515625,0.06103515625,0.442138671875,-0.8052978515625,0.4005126953125,-293.0,150.0,-147.0,101694.0,-3.067000150680542,0,0
1.1170207999966806,0.37445068359375,-0.451873779296875,0.30999755859375,-0.747955322265625,-0.06103515625,-0.1220703125,-0.1220703125,0.44287109375,-0.8018798828125,0.3992919921875,-293.0,150.0,-147.0,101694.0,-3.067000150680542,0,0
1.1170740999950795,0.374481201171875,-0.451873779296875,0.30999755859375,-0.747955322265625,-0.06103515625,-0.1220703125,-0.1220703125,0.4432373046875,-0.8046875,0.39990234375,-293.0,150.0,-147.0,101694.0,-3.067000150680542,0,0
1.1171300999994855,0.37445068359375,-0.451873779296875,0.30999755859375,-0.747955322265625,0.244140625,-0.18310546875,-0.30517578125,0.4444580078125,-0.8021240234375,0.39990234375,-293.0,150.0,-147.0,101694.0,-3.067000150680542,0,0
1.1171868999954313,0.37445068359375,-0.451873779296875,0.30999755859375,-0.747955322265625,0.244140625,-0.18310546875,-0.30517578125,0.4444580078125,-0.8021240234375,0.39990234375,-293.0,150.0,-147.0,101694.0,-3.067000150680542,0,0
1.1733062999992399,0.37445068359375,-0.451873779296875,0.30999755859375,-0.747955322265625,0.18310546875,0.06103515625,-0.06103515625,0.44384765625,-0.80078125,0.3995361328125,-293.0,150.0,-147.0,101694.0,-3.067000150680542,0,0
1.1733764999953564,0.37445068359375,-0.451904296875,0.30999755859375,-0.747955322265625,0.0,-0.06103515625,-0.06103515625,0.4453125,-0.8026123046875,0.3983154296875,-293.0,150.0,-147.0,101694.0,-3.067000150680542,0,0
1.173437899997225,0.37445068359375,-0.451904296875,0.30999755859375,-0.747955322265625,0.0,-0.06103515625,-0.06103515625,0.4453125,-0.8026123046875,0.3983154296875,-293.0,150.0,-147.0,101694.0,-3.067000150680542,0,0
1.1734957999869948,0.37445068359375,-0.451904296875,0.309967041015625,-0.747955322265625,0.1220703125,-0.18310546875,-0.244140625,0.444580078125,-0.801513671875,0.4000244140625,-293.0,150.0,-147.0,101694.0,-3.067000150680542,0,0
1.1735538999928394,0.37445068359375,-0.451904296875,0.309967041015625,-0.747955322265625,0.0,-0.244140625,-0.06103515625,0.446044921875,-0.801513671875,0.398681640625,-293.0,150.0,-147.0,101694.0,-3.067000150680542,0,0
1.1736125999887008,0.37445068359375,-0.451904296875,0.309967041015625,-0.747955322265625,-0.244140625,0.06103515625,0.1220703125,0.4439697265625,-0.803955078125,0.3983154296875,-293.0,150.0,-147.0,101694.0,-3.067000150680542,0,0
1.1736700999899767,0.37445068359375,-0.451904296875,0.309967041015625,-0.747955322265625,-0.244140625,0.06103515625,0.1220703125,0.4439697265625,-0.803955078125,0.3983154296875,-293.0,150.0,-147.0,101693.0,-3.06600022315979,0,0
1.1781500999932177,0.37445068359375,-0.451904296875,0.309967041015625,-0.747955322265625,-0.18310546875,0.06103515625,0.18310546875,0.4462890625,-0.8013916015625,0.3995361328125,-293.0,150.0,-147.0,101693.0,-3.06600022315979,0,0
1.17822509999678,0.37445068359375,-0.451904296875,0.309967041015625,-0.747955322265625,0.244140625,0.1220703125,0.1220703125,0.4432373046875,-0.801025390625,0.398681640625,-293.0,150.0,-147.0,101693.0,-3.06600022315979,0,0
1.1782861999963643,0.37445068359375,-0.451904296875,0.309967041015625,-0.747955322265625,0.244140625,0.0,-0.1220703125,0.44287109375,-0.8038330078125,0.3997802734375,-293.0,150.0,-147.0,101693.0,-3.06600022315979,0,0
1.1783434999961173,0.37445068359375,-0.451904296875,0.30999755859375,-0.747955322265625,0.244140625,0.0,-0.1220703125,0.44287109375,-0.8038330078125,0.3997802734375,-294.0,151.0,-147.0,101693.0,-3.06600022315979,0,0
1.1785114999947837,0.374664306640625,-0.451995849609375,0.30987548828125,-0.747833251953125,-0.06103515625,-0.244140625,-0.18310546875,0.44140625,-0.8038330078125,0.3980712890625,-294.0,151.0,-147.0,101693.0,-3.06600022315979,0,0
1.1785942999995314,0.374664306640625,-0.451995849609375,0.30987548828125,-0.747833251953125,-0.06103515625,-0.244140625,-0.18310546875,0.44140625,-0.8038330078125,0.3980712890625,-294.0,151.0,-147.0,101693.0,-3.06600022315979,0,0
1.2399214999895776,0.374664306640625,-0.451995849609375,0.30987548828125,-0.747833251953125,0.1220703125,0.1220703125,-0.06103515625,0.4429931640625,-0.80224609375,0.3997802734375,-294.0,151.0,-147.0,101693.0,-3.06600022315979,0,0
1.2399895999988075,0.374664306640625,-0.451995849609375,0.30987548828125,-0.747833251953125,-0.06103515625,-0.1220703125,0.1220703125,0.444580078125,-0.8031005859375,0.3990478515625,-294.0,151.0,-147.0,101693.0,-3.06600022315979,0,0
1.2400488999992376,0.374664306640625,-0.451995849609375,0.30987548828125,-0.747833251953125,0.1220703125,-0.06103515625,-0.06103515625,0.4423828125,-0.803955078125,0.401123046875,-294.0,151.0,-147.0,101693.0,-3.06600022315979,0,0
1.240107599995099,0.374664306640625,-0.451995849609375,0.30987548828125,-0.747833251953125,0.18310546875,-0.244140625,-0.1220703125,0.445068359375,-0.802490234375,0.4005126953125,-294.0,151.0,-147.0,101693.0,-3.06600022315979,0,0
1.242784699992626,0.374664306640625,-0.45196533203125,0.30987548828125,-0.747833251953125,0.18310546875,-0.06103515625,-0.1220703125,0.444091796875,-0.802001953125,0.4005126953125,-294.0,151.0,-147.0,101693.0,-3.06600022315979,0,0
1.2435165999922901,0.374664306640625,-0.451995849609375,0.30987548828125,-0.747833251953125,0.06103515625,-0.1220703125,0.06103515625,0.443359375,-0.804931640625,0.401123046875,-294.0,151.0,-147.0,101693.0,-3.06600022315979,0,0
1.243580899987137,0.374664306640625,-0.451995849609375,0.30987548828125,-0.747833251953125,0.06103515625,-0.1220703125,0.06103515625,0.443359375,-0.804931640625,0.401123046875,-294.0,151.0,-147.0,101693.0,-3.06600022315979,0,0
1.243639099993743,0.374664306640625,-0.45196533203125,0.30987548828125,-0.747833251953125,-0.06103515625,-0.18310546875,-0.1220703125,0.4434814453125,-0.8021240234375,0.3990478515625,-294.0,151.0,-147.0,101693.0,-3.06600022315979,0,0
1.2450107999902684,0.374664306640625,-0.45196533203125,0.30987548828125,-0.747833251953125,0.18310546875,0.06103515625,0.1220703125,0.44287109375,-0.8031005859375,0.3994140625,-294.0,151.0,-147.0,101693.0,-3.06600022315979,0,0
1.2451528999954462,0.374664306640625,-0.45196533203125,0.30987548828125,-0.747833251953125,0.0,-0.18310546875,-0.244140625,0.4447021484375,-0.80126953125,0.3990478515625,-294.0,151.0,-147.0,101693.0,-3.06600022315979,0,0
1.2452965999982553,0.374664306640625,-0.451995849609375,0.30987548828125,-0.747833251953125,-0.1220703125,0.0,-0.18310546875,0.4429931640625,-0.8013916015625,0.3975830078125,-294.0,151.0,-147.0,101693.0,-3.06600022315979,0,0
1.3053709999949206,0.374664306640625,-0.45196533203125,0.30987548828125,-0.747833251953125,0.3662109375,-0.244140625,0.0,0.443603515625,-0.8023681640625,0.3978271484375,-294.0,151.0,-147.0,101693.0,-3.067000150680542,0,0
1.3054395999934059,0.374664306640625,-0.45196533203125,0.30987548828125,-0.747833251953125,0.244140625,-0.1220703125,-0.18310546875,0.44482421875,-0.8031005859375,0.4005126953125,-294.0,151.0,-147.0,101693.0,-3.067000150680542,0,0
1.305501999988337,0.374664306640625,-0.45196533203125,0.30987548828125,-0.747833251953125,0.18310546875,-0.1220703125,-0.18310546875,0.443115234375,-0.8038330078125,0.3990478515625,-294.0,150.0,-148.0,101693.0,-3.067000150680542,0,0
1.3055641999962972,0.374664306640625,-0.45196533203125,0.30987548828125,-0.747833251953125,0.18310546875,-0.1220703125,-0.18310546875,0.443115234375,-0.8038330078125,0.3990478515625,-294.0,150.0,-148.0,101693.0,-3.067000150680542,0,0
1.305624299988267,0.37457275390625,-0.451934814453125,0.3099365234375,-0.747894287109375,0.0,-0.06103515625,0.244140625,0.4422607421875,-0.802490234375,0.4000244140625,-294.0,150.0,-148.0,101693.0,-3.067000150680542,0,0
1.3057027999893762,0.37457275390625,-0.451934814453125,0.3099365234375,-0.747894287109375,0.0,-0.06103515625,-0.06103515625,0.44482421875,-0.8023681640625,0.39990234375,-294.0,150.0,-148.0,101693.0,-3.067000150680542,0,0
1.305761399999028,0.37457275390625,-0.451934814453125,0.3099365234375,-0.747894287109375,0.244140625,0.06103515625,-0.06103515625,0.4453125,-0.80078125,0.3973388671875,-294.0,150.0,-148.0,101693.0,-3.067000150680542,0,0
1.305818900000304,0.37457275390625,-0.451934814453125,0.3099365234375,-0.747894287109375,0.1220703125,0.1220703125,-0.18310546875,0.44384765625,-0.8021240234375,0.3997802734375,-294.0,150.0,-148.0,101693.0,-3.067000150680542,0,0
1.3060800999955973,0.37457275390625,-0.451934814453125,0.3099365234375,-0.747894287109375,0.1220703125,-0.18310546875,-0.06103515625,0.443115234375,-0.802001953125,0.401123046875,-294.0,150.0,-148.0,101693.0,-3.067000150680542,0,0
1.306170399999246,0.37457275390625,-0.451934814453125,0.3099365234375,-0.747894287109375,-0.244140625,-0.244140625,0.06103515625,0.4459228515625,-0.8016357421875,0.4002685546875,-294.0,150.0,-148.0,101693.0,-3.067000150680542,0,0
1.3062336000002688,0.37457275390625,-0.451934814453125,0.3099365234375,-0.747894287109375,-0.18310546875,-0.06103515625,-0.18310546875,0.4429931640625,-0.8017578125,0.399658203125,-294.0,150.0,-148.0,101693.0,-3.067000150680542,0,0
1.306292699999176,0.37457275390625,-0.451934814453125,0.3099365234375,-0.747894287109375,-0.244140625,0.1220703125,0.0,0.4456787109375,-0.8033447265625,0.400390625,-294.0,150.0,-148.0,101693.0,-3.067000150680542,0,0
1.3681919999944512,0.37457275390625,-0.451934814453125,0.3099365234375,-0.747894287109375,-0.244140625,0.1220703125,0.0,0.4456787109375,-0.8033447265625,0.400390625,-294.0,150.0,-148.0,101693.0,-3.067000150680542,0,0
1.368266199991922,0.37457275390625,-0.451934814453125,0.3099365234375,-0.747894287109375,0.18310546875,0.1220703125,0.0,0.4443359375,-0.8035888671875,0.399658203125,-294.0,150.0,-148.0,101693.0,-3.067000150680542,0,0
1.368328599986853,0.37457275390625,-0.451934814453125,0.3099365234375,-0.747894287109375,-0.1220703125,-0.1220703125,-0.244140625,0.4442138671875,-0.801513671875,0.39892578125,-294.0,150.0,-148.0,101693.0,-3.067000150680542,0,0
1.3683899999887217,0.37457275390625,-0.451934814453125,0.3099365234375,-0.747894287109375,0.0,-0.06103515625,-0.18310546875,0.4439697265625,-0.8033447265625,0.3990478515625,-294.0,150.0,-148.0,101693.0,-3.067000150680542,0,0
1.3684476999915205,0.37457275390625,-0.45196533203125,0.3099365234375,-0.74786376953125,0.244140625,-0.06103515625,-0.244140625,0.4453125,-0.8013916015625,0.396484375,-294.0,150.0,-148.0,101693.0,-3.067000150680542,0,0
1.3685068999911891,0.37457275390625,-0.45196533203125,0.3099365234375,-0.74786376953125,-0.18310546875,-0.1220703125,0.06103515625,0.444091796875,-0.80322265625,0.4000244140625,-294.0,150.0,-148.0,101693.0,-3.067000150680542,0,0
1.3698366999888094,0.37457275390625,-0.45196533203125,0.3099365234375,-0.74786376953125,0.1220703125,0.0,0.1220703125,0.4449462890625,-0.802490234375,0.399658203125,-294.0,150.0,-148.0,101693.0,-3.067000150680542,0,0
1.3699016999889864,0.37457275390625,-0.45196533203125,0.3099365234375,-0.74786376953125,0.1220703125,0.0,0.1220703125,0.4449462890625,-0.802490234375,0.399658203125,-294.0,150.0,-148.0,101693.0,-3.06600022315979,0,0
1.3699621999985538,0.37457275390625,-0.45196533203125,0.3099365234375,-0.74786376953125,-0.18310546875,-0.48828125,0.06103515625,0.4454345703125,-0.803466796875,0.398681640625,-294.0,150.0,-148.0,101693.0,-3.06600022315979,0,0
1.3700219999882393,0.37457275390625,-0.45196533203125,0.3099365234375,-0.74786376953125,0.18310546875,-0.1220703125,-0.18310546875,0.4425048828125,-0.8028564453125,0.3994140625,-294.0,150.0,-148.0,101693.0,-3.06600022315979,0,0
1.370079699991038,0.37457275390625,-0.45196533203125,0.3099365234375,-0.74786376953125,0.18310546875,-0.1220703125,-0.18310546875,0.4425048828125,-0.8028564453125,0.3994140625,-294.0,150.0,-148.0,101693.0,-3.06600022315979,0,0
1.370138099999167,0.37457275390625,-0.45196533203125,0.309967041015625,-0.74786376953125,0.0,-0.06103515625,-0.3662109375,0.4432373046875,-0.8045654296875,0.400146484375,-293.0,150.0,-148.0,101693.0,-3.06600022315979,0,0
1.4308004999911645,0.37445068359375,-0.451904296875,0.310028076171875,-0.7479248046875,0.06103515625,0.0,-0.244140625,0.444091796875,-0.8006591796875,0.4000244140625,-293.0,150.0,-148.0,101693.0,-3.06600022315979,0,0
1.4309104999992996,0.37445068359375,-0.451904296875,0.310028076171875,-0.7479248046875,0.0,-0.06103515625,-0.244140625,0.4451904296875,-0.8017578125,0.398193359375,-293.0,150.0,-148.0,101693.0,-3.06600022315979,0,0
1.4309857999905944,0.37445068359375,-0.451904296875,0.310028076171875,-0.7479248046875,0.06103515625,-0.18310546875,0.0,0.4432373046875,-0.8004150390625,0.3984375,-293.0,150.0,-148.0,101693.0,-3.06600022315979,0,0
1.4310486999893328,0.37445068359375,-0.451934814453125,0.310028076171875,-0.7479248046875,0.3662109375,0.0,0.06103515625,0.443603515625,-0.8023681640625,0.398681640625,-293.0,150.0,-148.0,101693.0,-3.06600022315979,0,0
1.4311084999935701,0.37445068359375,-0.451934814453125,0.30999755859375,-0.7479248046875,-0.244140625,0.06103515625,0.06103515625,0.4449462890625,-0.8050537109375,0.3990478515625,-293.0,150.0,-148.0,101693.0,-3.06600022315979,0,0
1.4311840999871492,0.37445068359375,-0.451934814453125,0.30999755859375,-0.7479248046875,-0.244140625,0.06103515625,0.06103515625,0.4449462890625,-0.8050537109375,0.3990478515625,-293.0,150.0,-148.0,101693.0,-3.06600022315979,0,0
1.431242699996801,0.37445068359375,-0.451934814453125,0.310028076171875,-0.7479248046875,-0.18310546875,-0.06103515625,0.06103515625,0.444091796875,-0.803466796875,0.4012451171875,-293.0,150.0,-148.0,101693.0,-3.06600022315979,0,0
1.4312998999957927,0.37445068359375,-0.451934814453125,0.310028076171875,-0.7479248046875,-0.30517578125,0.06103515625,0.0,0.4453125,-0.803955078125,0.3983154296875,-293.0,150.0,-148.0,101693.0,-3.06600022315979,0,0
1.4313573999970686,0.37445068359375,-0.451934814453125,0.310028076171875,-0.7479248046875,0.30517578125,0.1220703125,0.06103515625,0.4447021484375,-0.8037109375,0.3970947265625,-293.0,150.0,-148.0,101693.0,-3.06600022315979,0,0
1.4314191000012215,0.37445068359375,-0.451934814453125,0.310028076171875,-0.7479248046875,-0.06103515625,-0.06103515625,-0.06103515625,0.4429931640625,-0.804931640625,0.3997802734375,-293.0,150.0,-148.0,101693.0,-3.06600022315979,0,0
1.4314751999918371,0.37445068359375,-0.451934814453125,0.310028076171875,-0.7479248046875,0.1220703125,-0.1220703125,-0.18310546875,0.4432373046875,-0.8004150390625,0.3994140625,-293.0,150.0,-148.0,101693.0,-3.06600022315979,0,0
1.4914187999966089,0.37445068359375,-0.451934814453125,0.310028076171875,-0.7479248046875,0.0,-0.06103515625,-0.18310546875,0.4434814453125,-0.8040771484375,0.39990234375,-293.0,150.0,-148.0,101693.0,-3.067000150680542,0,0
1.4914922999887494,0.37445068359375,-0.451934814453125,0.310028076171875,-0.7479248046875,0.0,-0.30517578125,-0.244140625,0.4423828125,-0.8038330078125,0.3995361328125,-293.0,150.0,-148.0,101693.0,-3.067000150680542,0,0
1.4915548999997554,0.37445068359375,-0.451934814453125,0.310028076171875,-0.7479248046875,0.0,-0.30517578125,-0.244140625,0.4423828125,-0.8038330078125,0.3995361328125,-293.0,150.0,-148.0,101693.0,-3.067000150680542,0,0
1.4916152999940095,0.37445068359375,-0.451934814453125,0.310028076171875,-0.7479248046875,0.06103515625,0.18310546875,-0.18310546875,0.446533203125,-0.804443359375,0.4010009765625,-293.0,150.0,-148.0,101693.0,-3.067000150680542,0,0
1.4916733999998542,0.37445068359375,-0.451934814453125,0.310028076171875,-0.7479248046875,-0.06103515625,-0.244140625,0.0,0.4439697265625,-0.802490234375,0.3968505859375,-294.0,150.0,-149.0,101693.0,-3.067000150680542,0,0
1.4925406999973347,0.37445068359375,-0.451934814453125,0.310028076171875,-0.7479248046875,-0.06103515625,-0.06103515625,-0.1220703125,0.44384765625,-0.801025390625,0.3992919921875,-294.0,150.0,-149.0,101693.0,-3.067000150680542,0,0
1.4925985999871045,0.374359130859375,-0.451904296875,0.310089111328125,-0.747955322265625,0.0,-0.06103515625,-0.244140625,0.4454345703125,-0.802490234375,0.3995361328125,-294.0,150.0,-149.0,101693.0,-3.067000150680542,0,0
1.4926558999868575,0.374359130859375,-0.451904296875,0.310089111328125,-0.747955322265625,0.1220703125,0.06103515625,0.1220703125,0.44580078125,-0.8006591796875,0.39892578125,-294.0,150.0,-149.0,101693.0,-3.067000150680542,0,0
1.492713499988895,0.374359130859375,-0.451904296875,0.310089111328125,-0.747955322265625,-0.1220703125,0.1220703125,0.06103515625,0.44287109375,-0.80322265625,0.3985595703125,-294.0,150.0,-149.0,101693.0,-3.067000150680542,0,0
1.4927709999901708,0.374359130859375,-0.451904296875,0.310089111328125,-0.747955322265625,0.244140625,0.06103515625,0.06103515625,0.4449462890625,-0.803955078125,0.399658203125,-294.0,150.0,-149.0,101693.0,-3.067000150680542,0,0
1.4928259999869624,0.37432861328125,-0.451904296875,0.310089111328125,-0.747955322265625,0.244140625,0.1220703125,0.06103515625,0.444580078125,-0.802734375,0.3997802734375,-294.0,150.0,-149.0,101693.0,-3.067000150680542,0,0
1.4928837999905227,0.37432861328125,-0.451904296875,0.310089111328125,-0.747955322265625,0.244140625,0.1220703125,0.06103515625,0.444580078125,-0.802734375,0.3997802734375,-294.0,150.0,-149.0,101693.0,-3.067000150680542,0,0
1.5614134999923408,0.374359130859375,-0.451904296875,0.310089111328125,-0.747955322265625,0.18310546875,-0.06103515625,0.0,0.4429931640625,-0.80517578125,0.4007568359375,-294.0,150.0,-149.0,101693.0,-3.067000150680542,0,0
1.5614814000000479,0.374359130859375,-0.451904296875,0.310089111328125,-0.747955322265625,-0.06103515625,-0.1220703125,-0.244140625,0.446533203125,-0.80419921875,0.3973388671875,-294.0,150.0,-149.0,101693.0,-3.067000150680542,0,0
1.5615405999997165,0.374359130859375,-0.451904296875,0.310089111328125,-0.747955322265625,0.1220703125,0.18310546875,0.0,0.4420166015625,-0.8040771484375,0.4002685546875,-294.0,150.0,-149.0,101693.0,-3.067000150680542,0,0
1.5615994999971008,0.374359130859375,-0.451904296875,0.310089111328125,-0.747955322265625,0.0,-0.18310546875,-0.18310546875,0.44287109375,-0.802978515625,0.400390625,-294.0,150.0,-149.0,101693.0,-3.067000150680542,0,0
1.5616564999945695,0.374359130859375,-0.451904296875,0.310089111328125,-0.747955322265625,0.0,0.1220703125,-0.18310546875,0.4432373046875,-0.804443359375,0.3995361328125,-294.0,150.0,-149.0,101693.0,-3.067000150680542,0,0
1.5617131999897538,0.374359130859375,-0.451904296875,0.310089111328125,-0.747955322265625,0.18310546875,-0.06103515625,-0.244140625,0.4429931640625,-0.802490234375,0.3983154296875,-294.0,150.0,-149.0,101693.0,-3.067000150680542,0,0
1.5647595999907935,0.374359130859375,-0.451904296875,0.310089111328125,-0.747955322265625,0.06103515625,-0.1220703125,-0.06103515625,0.442626953125,-0.8013916015625,0.397216796875,-294.0,150.0,-149.0,101693.0,-3.067000150680542,0,0
1.5648247999924934,0.374359130859375,-0.451904296875,0.310089111328125,-0.747955322265625,0.1220703125,-0.1220703125,-0.244140625,0.4432373046875,-0.803466796875,0.398681640625,-294.0,150.0,-149.0,101693.0,-3.067000150680542,0,0
1.5648835999891162,0.374359130859375,-0.451904296875,0.310089111328125,-0.747955322265625,0.1220703125,0.18310546875,0.0,0.445068359375,-0.8006591796875,0.3992919921875,-294.0,150.0,-149.0,101693.0,-3.067000150680542,0,0
1.5649397999950452,0.374359130859375,-0.451904296875,0.310089111328125,-0.747955322265625,0.1220703125,0.18310546875,0.0,0.445068359375,-0.8006591796875,0.3992919921875,-294.0,150.0,-149.0,101693.0,-3.067000150680542,0,0
1.5649959000002127,0.374359130859375,-0.451904296875,0.310089111328125,-0.747955322265625,-0.1220703125,-0.18310546875,0.0,0.4453125,-0.80224609375,0.3973388671875,-294.0,150.0,-149.0,101693.0,-3.06600022315979,0,0
1.5650583999959053,0.374359130859375,-0.451904296875,0.310089111328125,-0.747955322265625,0.18310546875,0.244140625,0.0,0.444091796875,-0.804443359375,0.3978271484375,-294.0,150.0,-149.0,101693.0,-3.06600022315979,0,0
1.622570799998357,0.374237060546875,-0.451873779296875,0.3101806640625,-0.74798583984375,0.3662109375,-0.06103515625,-0.1220703125,0.443603515625,-0.8021240234375,0.3992919921875,-295.0,149.0,-150.0,101693.0,-3.06600022315979,0,0
1.6226449999958277,0.374267578125,-0.451873779296875,0.3101806640625,-0.74798583984375,-0.244140625,-0.3662109375,0.1220703125,0.442626953125,-0.803466796875,0.3983154296875,-295.0,149.0,-150.0,101693.0,-3.06600022315979,0,0
1.6227030999871204,0.374267578125,-0.451873779296875,0.3101806640625,-0.74798583984375,-0.06103515625,-0.18310546875,-0.1220703125,0.4412841796875,-0.80322265625,0.398193359375,-295.0,149.0,-150.0,101693.0,-3.06600022315979,0,0
1.622759899997618,0.374267578125,-0.451873779296875,0.3101806640625,-0.74798583984375,0.0,-0.06103515625,-0.06103515625,0.44384765625,-0.8021240234375,0.399658203125,-295.0,149.0,-150.0,101693.0,-3.06600022315979,0,0
1.6228165999928024,0.374267578125,-0.451873779296875,0.3101806640625,-0.74798583984375,0.0,-0.06103515625,-0.06103515625,0.44384765625,-0.8021240234375,0.399658203125,-295.0,149.0,-150.0,101693.0,-3.06600022315979,0,0
1.6245932999881916,0.374267578125,-0.451873779296875,0.3101806640625,-0.74798583984375,0.244140625,-0.18310546875,0.06103515625,0.44384765625,-0.8035888671875,0.3988037109375,-295.0,149.0,-150.0,101693.0,-3.06600022315979,0,0
1.6246567999914987,0.374267578125,-0.45184326171875,0.3101806640625,-0.74798583984375,0.06103515625,0.0,-0.06103515625,0.44384765625,-0.8026123046875,0.4012451171875,-295.0,149.0,-150.0,101693.0,-3.06600022315979,0,0
1.624718599996413,0.374267578125,-0.45184326171875,0.3101806640625,-0.74798583984375,0.1220703125,0.06103515625,-0.244140625,0.4439697265625,-0.802734375,0.399658203125,-295.0,149.0,-150.0,101693.0,-3.06600022315979,0,0
1.6247757999954047,0.374267578125,-0.45184326171875,0.3101806640625,-0.74798583984375,0.3662109375,0.1220703125,-0.1220703125,0.4464111328125,-0.8031005859375,0.401123046875,-295.0,149.0,-150.0,101693.0,-3.06600022315979,0,0
1.6248319000005722,0.374267578125,-0.45184326171875,0.3101806640625,-0.74798583984375,-0.06103515625,0.06103515625,-0.06103515625,0.44384765625,-0.8017578125,0.3995361328125,-295.0,149.0,-150.0,101693.0,-3.06600022315979,0,0
1.6248885999957565,0.374267578125,-0.45184326171875,0.3101806640625,-0.74798583984375,0.0,0.06103515625,-0.06103515625,0.4439697265625,-0.8040771484375,0.399169921875,-295.0,149.0,-150.0,101693.0,-3.06600022315979,0,0
1.6249447999871336,0.374267578125,-0.45184326171875,0.3101806640625,-0.74798583984375,0.1220703125,0.0,-0.06103515625,0.4449462890625,-0.8017578125,0.4005126953125,-295.0,149.0,-150.0,101693.0,-3.06600022315979,0,0
1.6835055999981705,0.374267578125,-0.45184326171875,0.3101806640625,-0.74798583984375,0.1220703125,0.0,-0.1220703125,0.44384765625,-0.803466796875,0.400146484375,-295.0,149.0,-150.0,101693.0,-3.06600022315979,0,0
1.6835690000007162,0.374267578125,-0.45184326171875,0.310150146484375,-0.74798583984375,0.1220703125,-0.06103515625,-0.06103515625,0.444580078125,-0.803955078125,0.399169921875,-295.0,149.0,-150.0,101693.0,-3.06600022315979,0,0
1.6836254999943776,0.374267578125,-0.45184326171875,0.3101806640625,-0.74798583984375,0.1220703125,-0.18310546875,0.0,0.44287109375,-0.8033447265625,0.3978271484375,-295.0,149.0,-150.0,101693.0,-3.06600022315979,0,0
1.68412299999909,0.374267578125,-0.45184326171875,0.310150146484375,-0.74798583984375,-0.06103515625,0.1220703125,0.0,0.4444580078125,-0.8013916015625,0.40087890625,-295.0,149.0,-150.0,101693.0,-3.06600022315979,0,0
1.6842735999962315,0.374267578125,-0.45184326171875,0.310150146484375,-0.74798583984375,0.06103515625,0.06103515625,-0.1220703125,0.445068359375,-0.8035888671875,0.399658203125,-295.0,149.0,-150.0,101693.0,-3.06600022315979,0,0
1.6843381999933627,0.374267578125,-0.45184326171875,0.310150146484375,-0.748016357421875,-0.18310546875,-0.1220703125,0.06103515625,0.4437255859375,-0.7998046875,0.398681640625,-295.0,149.0,-150.0,101693.0,-3.06600022315979,0,0
1.684437199990498,0.374267578125,-0.45184326171875,0.310150146484375,-0.74798583984375,-0.06103515625,-0.06103515625,-0.244140625,0.4429931640625,-0.8023681640625,0.398193359375,-296.0,149.0,-149.0,101693.0,-3.06600022315979,0,0
1.6845043999928748,0.374267578125,-0.45184326171875,0.310150146484375,-0.74798583984375,-0.06103515625,0.06103515625,0.06103515625,0.445556640625,-0.80322265625,0.398681640625,-296.0,149.0,-149.0,101693.0,-3.06600022315979,0,0
1.6845628999872133,0.374267578125,-0.45184326171875,0.310150146484375,-0.74798583984375,-0.18310546875,-0.244140625,-0.06103515625,0.444091796875,-0.80224609375,0.3984375,-296.0,149.0,-149.0,101693.0,-3.06600022315979,0,0
1.6846201999869663,0.374267578125,-0.45184326171875,0.310150146484375,-0.74798583984375,-0.18310546875,-0.244140625,-0.06103515625,0.444091796875,-0.80224609375,0.3984375,-296.0,149.0,-149.0,101693.0,-3.06600022315979,0,0
1.6846764999936568,0.374267578125,-0.45184326171875,0.3101806640625,-0.74798583984375,-0.42724609375,0.0,-0.06103515625,0.4439697265625,-0.802978515625,0.400390625,-296.0,149.0,-149.0,101693.0,-3.06600022315979,0,0
1.7542966999899363,0.374267578125,-0.45184326171875,0.310150146484375,-0.74798583984375,-0.42724609375,0.0,-0.06103515625,0.4439697265625,-0.802978515625,0.400390625,-296.0,149.0,-149.0,101693.0,-3.06600022315979,0,0
1.7543650999868987,0.374267578125,-0.45184326171875,0.310150146484375,-0.74798583984375,0.1220703125,0.06103515625,-0.1220703125,0.4439697265625,-0.8016357421875,0.398193359375,-296.0,149.0,-149.0,101693.0,-3.06600022315979,0,0
1.754423999998835,0.374267578125,-0.45184326171875,0.3101806640625,-0.74798583984375,-0.06103515625,-0.06103515625,-0.1220703125,0.442626953125,-0.802734375,0.3983154296875,-296.0,149.0,-149.0,101693.0,-3.06600022315979,0,0
1.7544840999908047,0.374267578125,-0.45184326171875,0.3101806640625,-0.74798583984375,0.06103515625,-0.1220703125,0.18310546875,0.44384765625,-0.8023681640625,0.39990234375,-296.0,149.0,-149.0,101693.0,-3.06600022315979,0,0
1.7545443999988493,0.374267578125,-0.45184326171875,0.3101806640625,-0.74798583984375,0.1220703125,0.244140625,-0.06103515625,0.443115234375,-0.800537109375,0.400146484375,-296.0,149.0,-149.0,101693.0,-3.06600022315979,0,0
1.7546034999977564,0.374267578125,-0.45184326171875,0.3101806640625,-0.74798583984375,0.1220703125,-0.1220703125,-0.30517578125,0.4442138671875,-0.80126953125,0.39990234375,-296.0,149.0,-149.0,101693.0,-3.06600022315979,0,0
1.754700799996499,0.374237060546875,-0.451873779296875,0.310150146484375,-0.74798583984375,0.0,-0.06103515625,-0.1220703125,0.44580078125,-0.802978515625,0.3980712890625,-296.0,149.0,-149.0,101693.0,-3.06600022315979,0,0
1.7547582999977749,0.374237060546875,-0.451873779296875,0.310150146484375,-0.74798583984375,0.0,-0.244140625,-0.06103515625,0.4447021484375,-0.8021240234375,0.3992919921875,-296.0,149.0,-149.0,101693.0,-3.06600022315979,0,0
1.7548137999983737,0.374237060546875,-0.451873779296875,0.310150146484375,-0.74798583984375,0.0,-0.244140625,-0.06103515625,0.4447021484375,-0.8021240234375,0.3992919921875,-296.0,149.0,-149.0,101693.0,-3.06600022315979,0,0
1.7548718999896664,0.374237060546875,-0.451873779296875,0.310150146484375,-0.74798583984375,0.0,-0.06103515625,-0.18310546875,0.4437255859375,-0.8031005859375,0.3988037109375,-296.0,149.0,-149.0,101693.0,-3.06600022315979,0,0
1.7549273999902653,0.374237060546875,-0.451873779296875,0.310150146484375,-0.74798583984375,-0.06103515625,-0.06103515625,0.1220703125,0.443359375,-0.802734375,0.400146484375,-296.0,149.0,-149.0,101693.0,-3.065000057220459,0,0
1.7549854999961099,0.374267578125,-0.45184326171875,0.310150146484375,-0.748016357421875,0.0,0.1220703125,0.06103515625,0.4417724609375,-0.8013916015625,0.400146484375,-296.0,149.0,-149.0,101693.0,-3.065000057220459,0,0
1.7550417999882484,0.374237060546875,-0.45184326171875,0.310150146484375,-0.748016357421875,0.06103515625,0.06103515625,-0.1220703125,0.4437255859375,-0.7998046875,0.39990234375,-296.0,149.0,-149.0,101693.0,-3.065000057220459,0,0
1.8139475999923889,0.374237060546875,-0.45184326171875,0.310150146484375,-0.748016357421875,0.18310546875,-0.18310546875,-0.06103515625,0.4444580078125,-0.8018798828125,0.3992919921875,-296.0,150.0,-149.0,101693.0,-3.065000057220459,0,0
1.8140636999887647,0.374267578125,-0.45184326171875,0.310150146484375,-0.748016357421875,-0.244140625,0.0,-0.06103515625,0.4453125,-0.8026123046875,0.400390625,-296.0,150.0,-149.0,101693.0,-3.065000057220459,0,0
1.8141303000011249,0.374267578125,-0.45184326171875,0.310150146484375,-0.748016357421875,-0.244140625,0.0,-0.06103515625,0.4453125,-0.8026123046875,0.400390625,-296.0,150.0,-149.0,101693.0,-3.065000057220459,0,0
1.8141896999877645,0.374267578125,-0.45184326171875,0.310150146484375,-0.748016357421875,-0.06103515625,0.1220703125,-0.244140625,0.4444580078125,-0.8021240234375,0.3994140625,-296.0,150.0,-149.0,101693.0,-3.065000057220459,0,0
1.8146987999934936,0.374237060546875,-0.45184326171875,0.310150146484375,-0.748016357421875,0.1220703125,0.0,-0.18310546875,0.4444580078125,-0.80078125,0.4010009765625,-296.0,150.0,-149.0,101693.0,-3.065000057220459,0,0
1.8147632999898633,0.374237060546875,-0.45184326171875,0.310150146484375,-0.748016357421875,0.06103515625,-0.06103515625,-0.06103515625,0.4454345703125,-0.80224609375,0.3984375,-296.0,150.0,-149.0,101693.0,-3.065000057220459,0,0
1.8148216999979923,0.374237060546875,-0.45184326171875,0.310150146484375,-0.748016357421875,-0.244140625,-0.1220703125,-0.30517578125,0.4444580078125,-0.8033447265625,0.3997802734375,-296.0,150.0,-149.0,101693.0,-3.065000057220459,0,0
1.8148809999984223,0.374237060546875,-0.45184326171875,0.310150146484375,-0.748016357421875,-0.244140625,-0.1220703125,-0.30517578125,0.4444580078125,-0.8033447265625,0.3997802734375,-296.0,150.0,-149.0,101693.0,-3.065000057220459,0,0
1.8149382999981754,0.374237060546875,-0.45184326171875,0.310150146484375,-0.748016357421875,-0.06103515625,0.06103515625,-0.18310546875,0.4453125,-0.8033447265625,0.399169921875,-296.0,150.0,-149.0,101693.0,-3.065000057220459,0,0
1.8149946999910753,0.374237060546875,-0.45184326171875,0.310150146484375,-0.748016357421875,0.0,0.0,-0.06103515625,0.443359375,-0.8031005859375,0.399169921875,-296.0,150.0,-149.0,101693.0,-3.065000057220459,0,0
1.8150535999884596,0.374237060546875,-0.45184326171875,0.310150146484375,-0.748016357421875,0.06103515625,-0.18310546875,0.06103515625,0.445068359375,-0.8045654296875,0.3990478515625,-296.0,150.0,-149.0,101693.0,-3.065000057220459,0,0
1.8748497999913525,0.374237060546875,-0.451873779296875,0.310150146484375,-0.748016357421875,0.06103515625,0.0,-0.1220703125,0.4459228515625,-0.8016357421875,0.3995361328125,-296.0,150.0,-149.0,101693.0,-3.065000057220459,0,0
1.8749160999868764,0.374237060546875,-0.45184326171875,0.310150146484375,-0.748016357421875,0.244140625,0.06103515625,-0.18310546875,0.44287109375,-0.80419921875,0.3995361328125,-296.0,150.0,-149.0,101693.0,-3.065000057220459,0,0
1.8749760999926366,0.374267578125,-0.45184326171875,0.310150146484375,-0.748016357421875,0.1220703125,-0.06103515625,-0.30517578125,0.4422607421875,-0.80322265625,0.3995361328125,-296.0,150.0,-149.0,101693.0,-3.064000129699707,0,0
1.8750353999930667,0.374267578125,-0.45184326171875,0.310150146484375,-0.74798583984375,-0.06103515625,-0.06103515625,-0.244140625,0.443359375,-0.8050537109375,0.3997802734375,-296.0,150.0,-149.0,101693.0,-3.064000129699707,0,0
1.8751576999929966,0.374267578125,-0.45184326171875,0.310150146484375,-0.74798583984375,0.1220703125,0.06103515625,0.18310546875,0.4449462890625,-0.803466796875,0.3992919921875,-296.0,150.0,-149.0,101693.0,-3.064000129699707,0,0
1.8757274999952642,0.374267578125,-0.45184326171875,0.310150146484375,-0.74798583984375,0.1220703125,0.06103515625,0.18310546875,0.4449462890625,-0.803466796875,0.3992919921875,-296.0,150.0,-149.0,101693.0,-3.064000129699707,0,0
1.8757905999955256,0.374267578125,-0.45184326171875,0.310150146484375,-0.74798583984375,0.18310546875,0.0,0.06103515625,0.442626953125,-0.8017578125,0.3990478515625,-296.0,150.0,-149.0,101693.0,-3.064000129699707,0,0
1.875894299999345,0.374267578125,-0.45184326171875,0.3101806640625,-0.74798583984375,0.18310546875,0.06103515625,0.1220703125,0.4444580078125,-0.8026123046875,0.3992919921875,-296.0,149.0,-149.0,101693.0,-3.064000129699707,0,0
1.8759620999917388,0.374267578125,-0.45184326171875,0.3101806640625,-0.74798583984375,0.18310546875,0.06103515625,0.1220703125,0.4444580078125,-0.8026123046875,0.3992919921875,-296.0,149.0,-149.0,101693.0,-3.064000129699707,0,0
1.8760212999914074,0.374237060546875,-0.45184326171875,0.310150146484375,-0.74798583984375,0.0,-0.18310546875,0.0,0.445556640625,-0.8017578125,0.3990478515625,-296.0,149.0,-149.0,101693.0,-3.064000129699707,0,0
1.876078499990399,0.374237060546875,-0.451873779296875,0.310150146484375,-0.74798583984375,0.06103515625,-0.06103515625,0.0,0.4429931640625,-0.80224609375,0.3974609375,-296.0,149.0,-149.0,101693.0,-3.064000129699707,0,0
1.9435793999873567,0.374237060546875,-0.451873779296875,0.310150146484375,-0.74798583984375,0.0,0.0,0.0,0.4439697265625,-0.8026123046875,0.3994140625,-296.0,149.0,-149.0,101693.0,-3.064000129699707,0,0
1.9436527999932878,0.374237060546875,-0.451873779296875,0.310150146484375,-0.74798583984375,0.30517578125,-0.18310546875,0.0,0.4443359375,-0.8021240234375,0.3988037109375,-296.0,149.0,-149.0,101693.0,-3.064000129699707,0,0
1.9437141999951564,0.374237060546875,-0.451873779296875,0.310150146484375,-0.74798583984375,0.06103515625,-0.06103515625,-0.1220703125,0.444580078125,-0.80029296875,0.4002685546875,-296.0,149.0,-149.0,101693.0,-3.064000129699707,0,0
1.943771199992625,0.374237060546875,-0.451873779296875,0.310150146484375,-0.74798583984375,0.1220703125,0.1220703125,0.06103515625,0.4447021484375,-0.8038330078125,0.3992919921875,-296.0,149.0,-149.0,101693.0,-3.064000129699707,0,0
1.9438294999999925,0.374237060546875,-0.451873779296875,0.310150146484375,-0.74798583984375,0.18310546875,0.06103515625,-0.1220703125,0.4451904296875,-0.8031005859375,0.39892578125,-296.0,149.0,-149.0,101693.0,-3.064000129699707,0,0
1.9438858999928925,0.374237060546875,-0.451873779296875,0.310150146484375,-0.74798583984375,-0.1220703125,0.1220703125,-0.244140625,0.4439697265625,-0.8018798828125,0.400146484375,-296.0,149.0,-149.0,101693.0,-3.064000129699707,0,0
1.9442776999931084,0.374237060546875,-0.451873779296875,0.310150146484375,-0.748016357421875,0.244140625,0.0,-0.06103515625,0.4432373046875,-0.8016357421875,0.4002685546875,-296.0,149.0,-149.0,101693.0,-3.064000129699707,0,0
1.9443386999919312,0.374237060546875,-0.451873779296875,0.310150146484375,-0.748016357421875,0.244140625,0.0,-0.06103515625,0.4432373046875,-0.8016357421875,0.4002685546875,-296.0,149.0,-149.0,101693.0,-3.064000129699707,0,0
1.9443960999924457,0.374237060546875,-0.45184326171875,0.310150146484375,-0.748016357421875,-0.3662109375,-0.06103515625,-0.18310546875,0.4423828125,-0.8016357421875,0.4002685546875,-296.0,149.0,-149.0,101693.0,-3.064000129699707,0,0
1.944454600001336,0.374237060546875,-0.45184326171875,0.310150146484375,-0.748016357421875,0.244140625,0.06103515625,0.0,0.4443359375,-0.80224609375,0.39990234375,-296.0,149.0,-149.0,101693.0,-3.064000129699707,0,0
1.944511199995759,0.374237060546875,-0.45184326171875,0.310150146484375,-0.748016357421875,-0.06103515625,-0.1220703125,-0.06103515625,0.4434814453125,-0.8035888671875,0.3997802734375,-296.0,149.0,-149.0,101693.0,-3.064000129699707,0,0
1.944569200000842,0.374267578125,-0.45184326171875,0.310150146484375,-0.748016357421875,0.18310546875,-0.244140625,0.06103515625,0.44287109375,-0.80517578125,0.3983154296875,-296.0,149.0,-149.0,101693.0,-3.064000129699707,0,0
1.9446240999968722,0.374267578125,-0.45184326171875,0.310150146484375,-0.74798583984375,0.18310546875,-0.244140625,0.06103515625,0.44287109375,-0.80517578125,0.3983154296875,-296.0,149.0,-149.0,101693.0,-3.067000150680542,0,0
2.0047060999932,0.374237060546875,-0.45184326171875,0.310150146484375,-0.74798583984375,0.06103515625,-0.06103515625,-0.1220703125,0.444580078125,-0.8023681640625,0.400390625,-296.0,149.0,-149.0,101693.0,-3.067000150680542,0,0
2.0047740999871166,0.374237060546875,-0.45184326171875,0.310150146484375,-0.74798583984375,0.06103515625,-0.06103515625,-0.1220703125,0.444580078125,-0.8023681640625,0.400390625,-296.0,149.0,-149.0,101693.0,-3.067000150680542,0,0
2.004835200001253,0.3741455078125,-0.451812744140625,0.310211181640625,-0.748046875,0.06103515625,-0.1220703125,-0.18310546875,0.4451904296875,-0.802001953125,0.398681640625,-296.0,149.0,-150.0,101693.0,-3.067000150680542,0,0
2.0048928999894997,0.3741455078125,-0.451812744140625,0.310211181640625,-0.748046875,-0.1220703125,0.06103515625,-0.06103515625,0.446044921875,-0.803955078125,0.399658203125,-296.0,149.0,-150.0,101693.0,-3.067000150680542,0,0
2.0049509999953443,0.3741455078125,-0.451812744140625,0.310211181640625,-0.748046875,0.1220703125,-0.30517578125,-0.06103515625,0.4453125,-0.80322265625,0.3992919921875,-296.0,149.0,-150.0,101693.0,-3.067000150680542,0,0
2.0050981999957003,0.3741455078125,-0.451812744140625,0.31024169921875,-0.748046875,0.18310546875,0.06103515625,-0.06103515625,0.4434814453125,-0.80078125,0.3980712890625,-296.0,149.0,-150.0,101693.0,-3.067000150680542,0,0
2.005161599998246,0.3741455078125,-0.451812744140625,0.31024169921875,-0.748046875,-0.1220703125,-0.06103515625,-0.1220703125,0.44091796875,-0.8033447265625,0.3988037109375,-296.0,149.0,-150.0,101693.0,-3.067000150680542,0,0
2.0052220999932615,0.3741455078125,-0.451812744140625,0.31024169921875,-0.748046875,0.06103515625,0.1220703125,-0.18310546875,0.4422607421875,-0.800048828125,0.3995361328125,-296.0,149.0,-150.0,101693.0,-3.067000150680542,0,0
2.0052780999976676,0.3741455078125,-0.451812744140625,0.31024169921875,-0.748046875,0.0,0.1220703125,-0.18310546875,0.4425048828125,-0.802490234375,0.3997802734375,-296.0,149.0,-150.0,101693.0,-3.067000150680542,0,0
2.0053340999875218,0.3741455078125,-0.451812744140625,0.31024169921875,-0.748046875,0.06103515625,-0.06103515625,-0.1220703125,0.4429931640625,-0.8009033203125,0.3980712890625,-296.0,149.0,-150.0,101693.0,-3.067000150680542,0,0
2.005391699989559,0.3741455078125,-0.451812744140625,0.31024169921875,-0.748046875,0.18310546875,0.1220703125,-0.244140625,0.4442138671875,-0.8033447265625,0.40087890625,-296.0,149.0,-150.0,101693.0,-3.067000150680542,0,0
2.068625699990662,0.3741455078125,-0.451812744140625,0.310211181640625,-0.748046875,-0.18310546875,-0.1220703125,-0.30517578125,0.4437255859375,-0.8018798828125,0.400146484375,-296.0,149.0,-150.0,101693.0,-3.067000150680542,0,0
2.068692099986947,0.3741455078125,-0.451812744140625,0.310211181640625,-0.748046875,-0.1220703125,0.0,-0.06103515625,0.4459228515625,-0.8023681640625,0.3985595703125,-296.0,149.0,-150.0,101693.0,-3.067000150680542,0,0
2.0687505999958375,0.3741455078125,-0.451812744140625,0.310211181640625,-0.748046875,0.3662109375,-0.1220703125,0.1220703125,0.4464111328125,-0.8040771484375,0.4005126953125,-296.0,149.0,-150.0,101693.0,-3.067000150680542,0,0
2.0688074999925448,0.3741455078125,-0.451812744140625,0.31024169921875,-0.748046875,-0.1220703125,-0.18310546875,0.0,0.4423828125,-0.8040771484375,0.3968505859375,-296.0,149.0,-150.0,101693.0,-3.067000150680542,0,0
2.0688633999961894,0.3741455078125,-0.451812744140625,0.31024169921875,-0.748046875,0.48828125,-0.244140625,0.1220703125,0.44384765625,-0.8026123046875,0.400390625,-296.0,149.0,-150.0,101693.0,-3.06600022315979,0,0
2.069538299998385,0.3741455078125,-0.451812744140625,0.31024169921875,-0.748046875,0.18310546875,-0.18310546875,-0.06103515625,0.4427490234375,-0.802734375,0.3983154296875,-296.0,149.0,-150.0,101693.0,-3.06600022315979,0,0
2.069686799994088,0.3741455078125,-0.451812744140625,0.31024169921875,-0.748046875,0.1220703125,-0.244140625,0.1220703125,0.446533203125,-0.804931640625,0.3988037109375,-296.0,149.0,-150.0,101693.0,-3.06600022315979,0,0
2.069745499989949,0.3741455078125,-0.451812744140625,0.31024169921875,-0.748046875,0.1220703125,-0.244140625,0.1220703125,0.446533203125,-0.804931640625,0.3988037109375,-296.0,149.0,-150.0,101693.0,-3.06600022315979,0,0
2.0698028999904636,0.3741455078125,-0.451812744140625,0.31024169921875,-0.748046875,0.0,-0.06103515625,0.0,0.4449462890625,-0.8038330078125,0.3995361328125,-296.0,149.0,-150.0,101693.0,-3.06600022315979,0,0
2.0698597000009613,0.3741455078125,-0.451812744140625,0.31024169921875,-0.748046875,-0.1220703125,0.0,-0.1220703125,0.4443359375,-0.8021240234375,0.399658203125,-296.0,149.0,-150.0,101693.0,-3.06600022315979,0,0
2.0699161999946227,0.374053955078125,-0.4517822265625,0.310302734375,-0.748077392578125,-0.18310546875,-0.1220703125,0.0,0.44482421875,-0.802490234375,0.39892578125,-296.0,149.0,-150.0,101693.0,-3.06600022315979,0,0
2.1361170999880414,0.374053955078125,-0.4517822265625,0.310302734375,-0.74810791015625,0.0,-0.18310546875,-0.1220703125,0.4444580078125,-0.80078125,0.399658203125,-296.0,149.0,-150.0,101693.0,-3.06600022315979,0,0
2.136187699987204,0.374053955078125,-0.4517822265625,0.310302734375,-0.748077392578125,0.1220703125,-0.1220703125,0.0,0.445556640625,-0.8026123046875,0.3980712890625,-296.0,149.0,-150.0,101693.0,-3.06600022315979,0,0
2.13624290000007,0.374053955078125,-0.4517822265625,0.310272216796875,-0.74810791015625,-0.06103515625,0.0,0.1220703125,0.4437255859375,-0.80224609375,0.4010009765625,-296.0,149.0,-150.0,101693.0,-3.06600022315979,0,0
2.136300399986794,0.374053955078125,-0.4517822265625,0.310272216796875,-0.74810791015625,-0.18310546875,-0.244140625,-0.06103515625,0.4456787109375,-0.8031005859375,0.399169921875,-296.0,149.0,-150.0,101693.0,-3.06600022315979,0,0
2.1363533999974607,0.374053955078125,-0.4517822265625,0.310272216796875,-0.74810791015625,0.3662109375,-0.1220703125,-0.06103515625,0.4442138671875,-0.8013916015625,0.398681640625,-296.0,149.0,-150.0,101693.0,-3.06600022315979,0,0
2.136405299999751,0.374053955078125,-0.4517822265625,0.310272216796875,-0.748077392578125,0.0,-0.1220703125,0.0,0.444580078125,-0.80224609375,0.398193359375,-296.0,149.0,-150.0,101693.0,-3.06600022315979,0,0
2.1364809999940917,0.374053955078125,-0.4517822265625,0.310272216796875,-0.748077392578125,0.0,-0.1220703125,0.0,0.444580078125,-0.80224609375,0.398193359375,-296.0,149.0,-150.0,101693.0,-3.06600022315979,0,0
2.1365342999924906,0.374053955078125,-0.4517822265625,0.310272216796875,-0.74810791015625,-0.06103515625,-0.1220703125,-0.06103515625,0.4439697265625,-0.801513671875,0.400390625,-296.0,149.0,-150.0,101693.0,-3.06600022315979,0,0
2.1365877999924123,0.374053955078125,-0.4517822265625,0.310272216796875,-0.74810791015625,-0.06103515625,-0.06103515625,-0.30517578125,0.441162109375,-0.802734375,0.399658203125,-296.0,149.0,-150.0,101693.0,-3.06600022315979,0,0
2.136640599987004,0.374053955078125,-0.4517822265625,0.310272216796875,-0.74810791015625,0.1220703125,-0.18310546875,0.0,0.4439697265625,-0.8028564453125,0.3997802734375,-296.0,149.0,-150.0,101693.0,-3.06600022315979,0,0
2.136692799991579,0.374053955078125,-0.4517822265625,0.310272216796875,-0.74810791015625,0.06103515625,-0.18310546875,-0.18310546875,0.444580078125,-0.8016357421875,0.398193359375,-296.0,149.0,-150.0,101693.0,-3.06600022315979,0,0
2.1367462999915006,0.374053955078125,-0.4517822265625,0.310272216796875,-0.74810791015625,0.06103515625,-0.06103515625,-0.18310546875,0.445068359375,-0.802490234375,0.3988037109375,-296.0,149.0,-150.0,101693.0,-3.06600022315979,0,0
2.1367984999960754,0.374053955078125,-0.4517822265625,0.310302734375,-0.748077392578125,0.06103515625,-0.06103515625,-0.18310546875,0.442138671875,-0.8040771484375,0.3992919921875,-296.0,149.0,-150.0,101693.0,-3.06600022315979,0,0
2.1965495999902487,0.374053955078125,-0.4517822265625,0.310302734375,-0.748077392578125,0.1220703125,-0.06103515625,-0.06103515625,0.442626953125,-0.8021240234375,0.398681640625,-296.0,149.0,-150.0,101693.0,-3.065000057220459,0,0
2.1966127999912715,0.374053955078125,-0.4517822265625,0.310302734375,-0.748077392578125,-0.06103515625,0.06103515625,-0.1220703125,0.4447021484375,-0.802490234375,0.3968505859375,-296.0,149.0,-150.0,101693.0,-3.065000057220459,0,0
2.196668699994916,0.374053955078125,-0.4517822265625,0.310302734375,-0.748077392578125,0.06103515625,0.1220703125,-0.18310546875,0.445068359375,-0.802001953125,0.400390625,-296.0,149.0,-150.0,101693.0,-3.065000057220459,0,0
2.1967213999887463,0.374053955078125,-0.4517822265625,0.310302734375,-0.748077392578125,0.06103515625,0.1220703125,-0.18310546875,0.445068359375,-0.802001953125,0.400390625,-296.0,149.0,-150.0,101693.0,-3.065000057220459,0,0
2.1967740999971284,0.374053955078125,-0.4517822265625,0.310302734375,-0.748077392578125,0.06103515625,-0.06103515625,-0.30517578125,0.446533203125,-0.803466796875,0.401611328125,-296.0,149.0,-150.0,101693.0,-3.065000057220459,0,0
2.204825199994957,0.373931884765625,-0.451751708984375,0.31036376953125,-0.748138427734375,0.1220703125,0.1220703125,0.1220703125,0.4423828125,-0.802734375,0.3995361328125,-296.0,149.0,-150.0,101693.0,-3.065000057220459,0,0
2.204900299999281,0.373931884765625,-0.451751708984375,0.31036376953125,-0.748138427734375,0.06103515625,-0.1220703125,-0.06103515625,0.445556640625,-0.8038330078125,0.400146484375,-296.0,149.0,-150.0,101693.0,-3.065000057220459,0,0
2.2049594999989495,0.373931884765625,-0.451751708984375,0.31036376953125,-0.748138427734375,0.54931640625,0.06103515625,-0.06103515625,0.4423828125,-0.802978515625,0.3997802734375,-296.0,149.0,-150.0,101693.0,-3.065000057220459,0,0
2.2050152999872807,0.373931884765625,-0.451751708984375,0.31036376953125,-0.748138427734375,0.0,0.06103515625,0.06103515625,0.4453125,-0.802490234375,0.400390625,-296.0,149.0,-150.0,101693.0,-3.065000057220459,0,0
2.205070699987118,0.373931884765625,-0.451751708984375,0.31036376953125,-0.748138427734375,0.0,-0.18310546875,-0.18310546875,0.44580078125,-0.802734375,0.3995361328125,-296.0,149.0,-150.0,101693.0,-3.065000057220459,0,0
2.2051255999977,0.373931884765625,-0.451751708984375,0.31036376953125,-0.748138427734375,0.0,-0.18310546875,-0.18310546875,0.44580078125,-0.802734375,0.3995361328125,-296.0,149.0,-150.0,101693.0,-3.065000057220459,0,0
2.2613281999947503,0.373931884765625,-0.451751708984375,0.31036376953125,-0.748138427734375,-0.1220703125,0.06103515625,-0.06103515625,0.444091796875,-0.80322265625,0.401123046875,-296.0,149.0,-150.0,101693.0,-3.065000057220459,0,0
2.261398899994674,0.373931884765625,-0.451751708984375,0.31036376953125,-0.748138427734375,-0.06103515625,-0.18310546875,-0.18310546875,0.4417724609375,-0.8021240234375,0.3988037109375,-296.0,149.0,-150.0,101693.0,-3.065000057220459,0,0
2.2614948999980697,0.373931884765625,-0.451751708984375,0.31036376953125,-0.748138427734375,0.06103515625,-0.1220703125,0.06103515625,0.4432373046875,-0.8037109375,0.3978271484375,-296.0,149.0,-150.0,101693.0,-3.065000057220459,0,0
2.261567499997909,0.373931884765625,-0.451751708984375,0.31036376953125,-0.748138427734375,0.30517578125,-0.06103515625,0.1220703125,0.444580078125,-0.801513671875,0.399658203125,-296.0,149.0,-150.0,101693.0,-3.065000057220459,0,0
2.26163879998785,0.373931884765625,-0.451751708984375,0.31036376953125,-0.748138427734375,0.18310546875,-0.18310546875,-0.06103515625,0.444091796875,-0.8038330078125,0.4007568359375,-296.0,149.0,-150.0,101693.0,-3.065000057220459,0,0
2.2617945999954827,0.37396240234375,-0.451751708984375,0.31036376953125,-0.748138427734375,0.244140625,0.0,-0.06103515625,0.4434814453125,-0.8046875,0.400146484375,-296.0,149.0,-150.0,101693.0,-3.065000057220459,0,0
2.2618540999974357,0.37396240234375,-0.451751708984375,0.31036376953125,-0.748138427734375,0.244140625,0.0,-0.06103515625,0.4434814453125,-0.8046875,0.400146484375,-296.0,149.0,-150.0,101693.0,-3.065000057220459,0,0
2.261915700000827,0.37396240234375,-0.451751708984375,0.31036376953125,-0.748138427734375,0.1220703125,-0.06103515625,-0.244140625,0.4434814453125,-0.8031005859375,0.399169921875,-296.0,149.0,-150.0,101693.0,-3.065000057220459,0,0
2.261977999994997,0.37396240234375,-0.451751708984375,0.31036376953125,-0.748138427734375,-0.18310546875,-0.18310546875,0.18310546875,0.4442138671875,-0.80029296875,0.3984375,-296.0,149.0,-150.0,101693.0,-3.065000057220459,0,0
2.2620876000000862,0.37396240234375,-0.451751708984375,0.31036376953125,-0.748138427734375,-0.06103515625,-0.1220703125,0.06103515625,0.443603515625,-0.80078125,0.3966064453125,-296.0,149.0,-150.0,101693.0,-3.065000057220459,0,0
2.262146199995186,0.373931884765625,-0.451751708984375,0.31036376953125,-0.748138427734375,0.0,0.1220703125,0.06103515625,0.44384765625,-0.8011474609375,0.3978271484375,-296.0,149.0,-150.0,101693.0,-3.065000057220459,0,0
2.323300299991388,0.373931884765625,-0.451751708984375,0.31036376953125,-0.748138427734375,0.0,0.06103515625,0.06103515625,0.4442138671875,-0.801025390625,0.3974609375,-295.0,148.0,-150.0,101693.0,-3.065000057220459,0,0
2.3233682999998564,0.37384033203125,-0.45172119140625,0.3104248046875,-0.7481689453125,-0.18310546875,0.0,0.0,0.4425048828125,-0.802978515625,0.3997802734375,-295.0,148.0,-150.0,101693.0,-3.065000057220459,0,0
2.3234259999881033,0.37384033203125,-0.45172119140625,0.3104248046875,-0.7481689453125,-0.18310546875,0.06103515625,-0.06103515625,0.4432373046875,-0.8021240234375,0.4002685546875,-295.0,148.0,-150.0,101693.0,-3.065000057220459,0,0
2.3234828999993624,0.37384033203125,-0.45172119140625,0.3104248046875,-0.7481689453125,0.18310546875,0.18310546875,0.0,0.4442138671875,-0.801513671875,0.3984375,-295.0,148.0,-150.0,101693.0,-3.065000057220459,0,0
2.3235368999885395,0.37384033203125,-0.45172119140625,0.3104248046875,-0.7481689453125,0.18310546875,0.18310546875,0.0,0.4442138671875,-0.801513671875,0.3984375,-295.0,148.0,-150.0,101693.0,-3.065000057220459,0,0
2.323636000000988,0.37384033203125,-0.45172119140625,0.3104248046875,-0.7481689453125,0.244140625,-0.06103515625,-0.18310546875,0.4432373046875,-0.803955078125,0.398193359375,-295.0,148.0,-150.0,101693.0,-3.065000057220459,0,0
2.3236928999976953,0.37384033203125,-0.45172119140625,0.3104248046875,-0.7481689453125,0.244140625,-0.06103515625,-0.18310546875,0.4432373046875,-0.803955078125,0.398193359375,-295.0,148.0,-150.0,101693.0,-3.065000057220459,0,0
2.3237659000005806,0.37384033203125,-0.45172119140625,0.3104248046875,-0.7481689453125,-0.244140625,-0.06103515625,0.1220703125,0.4459228515625,-0.8017578125,0.3995361328125,-295.0,148.0,-150.0,101693.0,-3.065000057220459,0,0
2.323823499988066,0.37384033203125,-0.45172119140625,0.3104248046875,-0.7481689453125,0.06103515625,0.06103515625,-0.18310546875,0.4466552734375,-0.8021240234375,0.3983154296875,-295.0,148.0,-150.0,101693.0,-3.065000057220459,0,0
2.323879699993995,0.37384033203125,-0.45172119140625,0.3104248046875,-0.7481689453125,0.1220703125,-0.1220703125,0.06103515625,0.4442138671875,-0.8017578125,0.398681640625,-295.0,148.0,-150.0,101693.0,-3.065000057220459,0,0
2.3239346999907866,0.37384033203125,-0.45172119140625,0.3104248046875,-0.7481689453125,0.06103515625,0.06103515625,-0.1220703125,0.4439697265625,-0.8011474609375,0.399169921875,-295.0,148.0,-150.0,101693.0,-3.065000057220459,0,0
2.3239905999944312,0.37384033203125,-0.45172119140625,0.3104248046875,-0.7481689453125,0.18310546875,-0.18310546875,-0.06103515625,0.444580078125,-0.803955078125,0.3995361328125,-295.0,148.0,-150.0,101693.0,-3.065000057220459,0,0
2.324046299996553,0.37384033203125,-0.45172119140625,0.3104248046875,-0.7481689453125,0.54931640625,-0.244140625,-0.1220703125,0.44482421875,-0.801025390625,0.398681640625,-295.0,148.0,-150.0,101693.0,-3.065000057220459,0,0
2.3906147999950917,0.37384033203125,-0.451751708984375,0.3104248046875,-0.7481689453125,0.244140625,-0.1220703125,0.18310546875,0.4456787109375,-0.802978515625,0.3970947265625,-295.0,148.0,-150.0,101693.0,-3.065000057220459,0,0
2.39068069998757,0.37384033203125,-0.451751708984375,0.3104248046875,-0.7481689453125,0.18310546875,0.06103515625,-0.18310546875,0.4453125,-0.8023681640625,0.39990234375,-295.0,148.0,-150.0,101693.0,-3.065000057220459,0,0
2.3907402999902843,0.373809814453125,-0.451751708984375,0.310394287109375,-0.7481689453125,0.18310546875,0.06103515625,-0.1220703125,0.44482421875,-0.801513671875,0.39892578125,-295.0,148.0,-150.0,101693.0,-3.065000057220459,0,0
2.3907984999968903,0.373809814453125,-0.451751708984375,0.3104248046875,-0.7481689453125,-0.18310546875,-0.06103515625,-0.30517578125,0.446044921875,-0.8006591796875,0.398681640625,-295.0,148.0,-150.0,101693.0,-3.065000057220459,0,0
2.3911054999916814,0.373809814453125,-0.451751708984375,0.3104248046875,-0.7481689453125,0.1220703125,0.1220703125,-0.3662109375,0.4451904296875,-0.8026123046875,0.3956298828125,-295.0,148.0,-150.0,101693.0,-3.065000057220459,0,0
2.392273199991905,0.373809814453125,-0.451751708984375,0.3104248046875,-0.7481689453125,0.18310546875,-0.244140625,-0.1220703125,0.44189453125,-0.801025390625,0.3970947265625,-295.0,148.0,-150.0,101693.0,-3.065000057220459,0,0
2.392418599993107,0.37371826171875,-0.45172119140625,0.31048583984375,-0.74822998046875,0.06103515625,-0.06103515625,-0.1220703125,0.4422607421875,-0.8021240234375,0.398681640625,-295.0,148.0,-150.0,101693.0,-3.065000057220459,0,0
2.392545099995914,0.37371826171875,-0.45172119140625,0.31048583984375,-0.74822998046875,0.244140625,-0.18310546875,0.06103515625,0.4434814453125,-0.8017578125,0.3995361328125,-295.0,148.0,-150.0,101693.0,-3.065000057220459,0,0
2.3926740999886533,0.37371826171875,-0.45172119140625,0.31048583984375,-0.74822998046875,0.244140625,-0.18310546875,0.06103515625,0.4434814453125,-0.8017578125,0.3995361328125,-295.0,148.0,-150.0,101693.0,-3.065000057220459,0,0
2.3928030999959446,0.37371826171875,-0.45172119140625,0.31048583984375,-0.74822998046875,-0.06103515625,-0.1220703125,-0.06103515625,0.4449462890625,-0.80224609375,0.399169921875,-295.0,148.0,-150.0,101693.0,-3.065000057220459,0,0
2.3929396999883465,0.37371826171875,-0.45172119140625,0.31048583984375,-0.74822998046875,0.06103515625,0.0,0.06103515625,0.443603515625,-0.803466796875,0.3990478515625,-295.0,148.0,-150.0,101693.0,-3.065000057220459,0,0
2.4502966000000015,0.37371826171875,-0.45172119140625,0.31048583984375,-0.748199462890625,0.1220703125,-0.06103515625,-0.06103515625,0.4427490234375,-0.8033447265625,0.3985595703125,-295.0,148.0,-150.0,101693.0,-3.065000057220459,0,0
2.450360599992564,0.37371826171875,-0.45172119140625,0.31048583984375,-0.748199462890625,-0.1220703125,0.0,-0.18310546875,0.4442138671875,-0.8017578125,0.39697265625,-295.0,148.0,-150.0,101693.0,-3.065000057220459,0,0
2.450418399996124,0.37371826171875,-0.45172119140625,0.31048583984375,-0.748199462890625,0.1220703125,-0.06103515625,-0.06103515625,0.4434814453125,-0.8023681640625,0.3980712890625,-295.0,148.0,-150.0,101693.0,-3.065000057220459,0,0
2.4504748999897856,0.37371826171875,-0.45172119140625,0.310516357421875,-0.748199462890625,0.06103515625,-0.18310546875,0.06103515625,0.4432373046875,-0.8035888671875,0.3985595703125,-295.0,148.0,-150.0,101693.0,-3.065000057220459,0,0
2.4505307999934303,0.37371826171875,-0.45172119140625,0.310516357421875,-0.748199462890625,0.06103515625,0.0,0.1220703125,0.444091796875,-0.8017578125,0.395263671875,-295.0,148.0,-150.0,101693.0,-3.065000057220459,0,0
2.450945899996441,0.37371826171875,-0.45172119140625,0.310516357421875,-0.748199462890625,0.06103515625,0.0,0.1220703125,0.444091796875,-0.8017578125,0.395263671875,-295.0,148.0,-150.0,101693.0,-3.065000057220459,0,0
2.451010699995095,0.37371826171875,-0.45172119140625,0.310516357421875,-0.748199462890625,-0.18310546875,0.06103515625,-0.1220703125,0.44384765625,-0.8043212890625,0.3978271484375,-295.0,148.0,-150.0,101693.0,-3.065000057220459,0,0
2.451070399998571,0.37371826171875,-0.45172119140625,0.310516357421875,-0.748199462890625,-0.1220703125,-0.18310546875,0.0,0.4459228515625,-0.802001953125,0.3992919921875,-295.0,148.0,-150.0,101693.0,-3.065000057220459,0,0
2.451128599990625,0.37371826171875,-0.451751708984375,0.310516357421875,-0.748199462890625,-0.18310546875,-0.1220703125,-0.18310546875,0.444091796875,-0.8017578125,0.39794921875,-295.0,148.0,-150.0,101693.0,-3.065000057220459,0,0
2.451186099991901,0.37371826171875,-0.451751708984375,0.310516357421875,-0.748199462890625,0.0,0.0,-0.1220703125,0.4461669921875,-0.8023681640625,0.39794921875,-295.0,148.0,-150.0,101693.0,-3.065000057220459,0,0
2.4512427000008756,0.37371826171875,-0.451751708984375,0.310516357421875,-0.748199462890625,0.3662109375,-0.06103515625,0.0,0.4422607421875,-0.802001953125,0.39697265625,-295.0,148.0,-150.0,101693.0,-3.065000057220459,0,0
2.5150589999975637,0.37371826171875,-0.451751708984375,0.310516357421875,-0.748199462890625,-0.06103515625,-0.06103515625,0.06103515625,0.4429931640625,-0.800048828125,0.3963623046875,-295.0,148.0,-150.0,101693.0,-3.065000057220459,0,0
2.5151800999883562,0.37371826171875,-0.451751708984375,0.310516357421875,-0.748199462890625,0.1220703125,-0.06103515625,-0.244140625,0.445068359375,-0.8031005859375,0.3990478515625,-294.0,148.0,-149.0,101693.0,-3.065000057220459,0,0
2.515291799994884,0.37371826171875,-0.451751708984375,0.310516357421875,-0.7481689453125,0.0,0.18310546875,0.06103515625,0.4425048828125,-0.802978515625,0.3975830078125,-294.0,148.0,-149.0,101693.0,-3.065000057220459,0,0
2.5154011999984505,0.37371826171875,-0.451751708984375,0.310516357421875,-0.7481689453125,0.0,0.18310546875,0.06103515625,0.4425048828125,-0.802978515625,0.3975830078125,-294.0,148.0,-149.0,101693.0,-3.065000057220459,0,0
2.515536599996267,0.37359619140625,-0.45172119140625,0.310577392578125,-0.74822998046875,0.1220703125,-0.18310546875,0.0,0.446044921875,-0.8037109375,0.3970947265625,-294.0,148.0,-149.0,101693.0,-3.065000057220459,0,0
2.5156213999871397,0.37359619140625,-0.45172119140625,0.310577392578125,-0.74822998046875,-0.06103515625,-0.1220703125,0.1220703125,0.44140625,-0.7999267578125,0.39794921875,-294.0,148.0,-149.0,101693.0,-3.065000057220459,0,0
2.515685399994254,0.37359619140625,-0.45172119140625,0.310577392578125,-0.74822998046875,0.18310546875,0.06103515625,-0.18310546875,0.442626953125,-0.80224609375,0.3988037109375,-294.0,148.0,-149.0,101693.0,-3.065000057220459,0,0
2.515761399990879,0.37359619140625,-0.45172119140625,0.310577392578125,-0.74822998046875,0.244140625,-0.06103515625,-0.06103515625,0.4453125,-0.80224609375,0.398681640625,-294.0,148.0,-149.0,101693.0,-3.065000057220459,0,0
2.524072599990177,0.37359619140625,-0.45172119140625,0.310577392578125,-0.74822998046875,-0.18310546875,-0.1220703125,-0.1220703125,0.44482421875,-0.80224609375,0.3992919921875,-294.0,148.0,-149.0,101694.0,-3.067000150680542,0,0
2.5241520999989007,0.37359619140625,-0.45172119140625,0.310577392578125,-0.74822998046875,-0.3662109375,-0.30517578125,-0.244140625,0.4461669921875,-0.7999267578125,0.400634765625,-294.0,148.0,-149.0,101694.0,-3.067000150680542,0,0
2.5242101999901934,0.37359619140625,-0.45172119140625,0.310577392578125,-0.74822998046875,-0.30517578125,0.0,-0.1220703125,0.4442138671875,-0.804931640625,0.39990234375,-294.0,148.0,-149.0,101694.0,-3.067000150680542,0,0
2.5242648999992525,0.37359619140625,-0.45172119140625,0.310577392578125,-0.74822998046875,-0.06103515625,-0.244140625,0.0,0.444580078125,-0.803466796875,0.3995361328125,-294.0,148.0,-149.0,101694.0,-3.067000150680542,0,0
2.5243197999952827,0.37359619140625,-0.45172119140625,0.310577392578125,-0.74822998046875,-0.06103515625,0.1220703125,0.06103515625,0.4429931640625,-0.8038330078125,0.3984375,-294.0,148.0,-149.0,101694.0,-3.067000150680542,0,0
2.581249899987597,0.37359619140625,-0.45172119140625,0.310577392578125,-0.74822998046875,-0.18310546875,-0.1220703125,-0.1220703125,0.4437255859375,-0.805419921875,0.4000244140625,-294.0,148.0,-149.0,101694.0,-3.067000150680542,0,0
2.581313599992427,0.37359619140625,-0.45172119140625,0.310577392578125,-0.74822998046875,0.06103515625,-0.244140625,0.0,0.4442138671875,-0.80322265625,0.399169921875,-294.0,148.0,-149.0,101694.0,-3.067000150680542,0,0
2.5813704999891343,0.37359619140625,-0.45172119140625,0.310577392578125,-0.74822998046875,-0.1220703125,-0.30517578125,-0.30517578125,0.4468994140625,-0.8016357421875,0.3980712890625,-294.0,148.0,-149.0,101694.0,-3.067000150680542,0,0
2.581423299998278,0.37359619140625,-0.45172119140625,0.310577392578125,-0.74822998046875,-0.1220703125,-0.30517578125,-0.30517578125,0.4468994140625,-0.8016357421875,0.3980712890625,-294.0,148.0,-149.0,101694.0,-3.067000150680542,0,0
2.581489199990756,0.37359619140625,-0.45172119140625,0.310577392578125,-0.74822998046875,0.0,-0.06103515625,-0.18310546875,0.4464111328125,-0.8021240234375,0.399169921875,-294.0,148.0,-149.0,101694.0,-3.067000150680542,0,0
2.582802399992943,0.37359619140625,-0.45172119140625,0.310577392578125,-0.74822998046875,-0.18310546875,0.0,-0.06103515625,0.4454345703125,-0.802978515625,0.39892578125,-294.0,148.0,-149.0,101694.0,-3.067000150680542,0,0
2.582864199997857,0.37359619140625,-0.45172119140625,0.310577392578125,-0.74822998046875,0.06103515625,0.0,0.0,0.443603515625,-0.8048095703125,0.3973388671875,-294.0,148.0,-149.0,101694.0,-3.067000150680542,0,0
2.5829214999976102,0.37359619140625,-0.45172119140625,0.310577392578125,-0.74822998046875,0.06103515625,0.0,0.0,0.443603515625,-0.8048095703125,0.3973388671875,-294.0,148.0,-149.0,101694.0,-3.067000150680542,0,0
2.5829755000013392,0.373504638671875,-0.451690673828125,0.310638427734375,-0.748260498046875,0.1220703125,0.0,0.06103515625,0.4422607421875,-0.802734375,0.3984375,-295.0,149.0,-149.0,101694.0,-3.067000150680542,0,0
2.583031599991955,0.373504638671875,-0.451690673828125,0.3106689453125,-0.748260498046875,0.244140625,0.1220703125,-0.18310546875,0.44482421875,-0.801513671875,0.3968505859375,-295.0,149.0,-149.0,101694.0,-3.067000150680542,0,0
2.583084499987308,0.37347412109375,-0.45172119140625,0.310638427734375,-0.748260498046875,0.244140625,0.06103515625,-0.06103515625,0.4447021484375,-0.804443359375,0.39697265625,-295.0,149.0,-149.0,101694.0,-3.067000150680542,0,0
2.6415973999974085,0.373504638671875,-0.45172119140625,0.310638427734375,-0.748260498046875,0.06103515625,0.0,-0.1220703125,0.4432373046875,-0.802734375,0.3997802734375,-295.0,149.0,-149.0,101693.0,-3.06600022315979,0,0
2.641657199987094,0.37347412109375,-0.45172119140625,0.310638427734375,-0.748260498046875,0.18310546875,0.06103515625,-0.18310546875,0.4461669921875,-0.8035888671875,0.3985595703125,-295.0,149.0,-149.0,101693.0,-3.06600022315979,0,0
2.6417112999915844,0.37347412109375,-0.45172119140625,0.310638427734375,-0.748260498046875,-0.244140625,0.0,-0.1220703125,0.445556640625,-0.8017578125,0.3975830078125,-295.0,149.0,-149.0,101693.0,-3.06600022315979,0,0
2.6417650999937905,0.37347412109375,-0.45172119140625,0.3106689453125,-0.748260498046875,-0.06103515625,0.0,-0.1220703125,0.4447021484375,-0.8021240234375,0.3980712890625,-295.0,149.0,-149.0,101693.0,-3.06600022315979,0,0
2.6418177999876207,0.37347412109375,-0.45172119140625,0.3106689453125,-0.748260498046875,-0.06103515625,0.0,-0.1220703125,0.4447021484375,-0.8021240234375,0.3980712890625,-295.0,149.0,-149.0,101693.0,-3.06600022315979,0,0
2.6431878000003053,0.37347412109375,-0.45172119140625,0.3106689453125,-0.748260498046875,0.0,-0.06103515625,-0.1220703125,0.4444580078125,-0.803466796875,0.3985595703125,-295.0,149.0,-149.0,101693.0,-3.06600022315979,0,0
2.6432428999978583,0.37347412109375,-0.451751708984375,0.3106689453125,-0.748260498046875,0.1220703125,-0.18310546875,-0.06103515625,0.4461669921875,-0.8028564453125,0.396728515625,-295.0,149.0,-149.0,101693.0,-3.06600022315979,0,0
2.6432960999954958,0.37347412109375,-0.451751708984375,0.3106689453125,-0.748260498046875,0.1220703125,-0.06103515625,0.0,0.4442138671875,-0.8038330078125,0.398681640625,-295.0,149.0,-149.0,101693.0,-3.06600022315979,0,0
2.643347299992456,0.37347412109375,-0.451751708984375,0.3106689453125,-0.748260498046875,0.0,-0.1220703125,0.06103515625,0.44384765625,-0.8021240234375,0.3985595703125,-295.0,149.0,-149.0,101693.0,-3.06600022315979,0,0
2.643398599990178,0.37347412109375,-0.451751708984375,0.3106689453125,-0.748260498046875,-0.1220703125,-0.06103515625,-0.1220703125,0.4443359375,-0.8048095703125,0.3992919921875,-295.0,149.0,-149.0,101693.0,-3.06600022315979,0,0
2.643452399992384,0.37347412109375,-0.451751708984375,0.3106689453125,-0.748260498046875,0.0,0.0,-0.1220703125,0.4443359375,-0.80224609375,0.39892578125,-295.0,149.0,-149.0,101693.0,-3.06600022315979,0,0
2.7093400999874575,0.37347412109375,-0.451751708984375,0.3106689453125,-0.748260498046875,-0.18310546875,-0.1220703125,0.06103515625,0.445556640625,-0.8055419921875,0.398193359375,-295.0,149.0,-149.0,101693.0,-3.06600022315979,0,0
2.7094022999954177,0.37347412109375,-0.451751708984375,0.3106689453125,-0.74822998046875,0.18310546875,0.0,-0.1220703125,0.443115234375,-0.8033447265625,0.396240234375,-295.0,149.0,-149.0,101693.0,-3.06600022315979,0,0
2.709456999989925,0.37347412109375,-0.451751708984375,0.3106689453125,-0.74822998046875,0.18310546875,0.0,-0.1220703125,0.443115234375,-0.8033447265625,0.396240234375,-295.0,149.0,-149.0,101693.0,-3.06600022315979,0,0
2.7095158999873092,0.37347412109375,-0.451751708984375,0.3106689453125,-0.74822998046875,0.18310546875,-0.18310546875,-0.18310546875,0.44287109375,-0.8035888671875,0.3990478515625,-294.0,149.0,-149.0,101693.0,-3.06600022315979,0,0
2.7095699999917997,0.373382568359375,-0.451690673828125,0.31072998046875,-0.748291015625,0.30517578125,-0.30517578125,0.0,0.4425048828125,-0.8004150390625,0.3988037109375,-294.0,149.0,-149.0,101693.0,-3.06600022315979,0,0
2.70962489998783,0.373382568359375,-0.451690673828125,0.31072998046875,-0.748291015625,-0.244140625,-0.18310546875,-0.06103515625,0.441650390625,-0.8013916015625,0.4002685546875,-294.0,149.0,-149.0,101693.0,-3.06600022315979,0,0
2.7096782000007806,0.373382568359375,-0.451690673828125,0.31072998046875,-0.748291015625,-0.06103515625,0.0,-0.1220703125,0.4453125,-0.8011474609375,0.398193359375,-294.0,149.0,-149.0,101693.0,-3.06600022315979,0,0
2.7098291000002064,0.373382568359375,-0.451690673828125,0.31072998046875,-0.748291015625,-0.244140625,0.0,0.0,0.446044921875,-0.8035888671875,0.39892578125,-294.0,149.0,-149.0,101693.0,-3.06600022315979,0,0
2.709881899994798,0.373382568359375,-0.451690673828125,0.31072998046875,-0.748291015625,0.244140625,-0.1220703125,-0.06103515625,0.444091796875,-0.8028564453125,0.399169921875,-294.0,149.0,-149.0,101693.0,-3.06600022315979,0,0
2.709935699997004,0.373382568359375,-0.451690673828125,0.31072998046875,-0.748291015625,0.0,0.30517578125,-0.1220703125,0.44482421875,-0.8035888671875,0.3988037109375,-294.0,149.0,-149.0,101693.0,-3.06600022315979,0,0
2.7099884999915957,0.373382568359375,-0.451690673828125,0.31072998046875,-0.748291015625,-0.1220703125,0.18310546875,-0.1220703125,0.4456787109375,-0.8031005859375,0.3988037109375,-294.0,149.0,-149.0,101693.0,-3.067000150680542,0,0
2.710042299993802,0.373382568359375,-0.45172119140625,0.31072998046875,-0.748291015625,0.244140625,0.1220703125,-0.1220703125,0.444580078125,-0.80419921875,0.3973388671875,-294.0,149.0,-149.0,101693.0,-3.067000150680542,0,0
2.710092999986955,0.373382568359375,-0.45172119140625,0.31072998046875,-0.748291015625,0.244140625,0.1220703125,-0.1220703125,0.444580078125,-0.80419921875,0.3973388671875,-294.0,149.0,-149.0,101693.0,-3.067000150680542,0,0
2.7720200999901863,0.373382568359375,-0.45172119140625,0.31072998046875,-0.748291015625,-0.18310546875,-0.1220703125,0.0,0.444580078125,-0.8031005859375,0.4002685546875,-294.0,149.0,-149.0,101693.0,-3.067000150680542,0,0
2.772081299990532,0.373382568359375,-0.45172119140625,0.31072998046875,-0.748291015625,0.0,-0.18310546875,0.0,0.444091796875,-0.803955078125,0.3988037109375,-294.0,149.0,-149.0,101693.0,-3.067000150680542,0,0
2.7721362999873236,0.373382568359375,-0.45172119140625,0.31072998046875,-0.748291015625,-0.1220703125,-0.06103515625,-0.06103515625,0.443115234375,-0.8017578125,0.3985595703125,-294.0,149.0,-149.0,101693.0,-3.067000150680542,0,0
2.772191699987161,0.373382568359375,-0.45172119140625,0.31072998046875,-0.748291015625,-0.3662109375,-0.06103515625,-0.244140625,0.4434814453125,-0.80224609375,0.39794921875,-294.0,149.0,-149.0,101693.0,-3.067000150680542,0,0
2.7722453999886056,0.373382568359375,-0.45172119140625,0.31072998046875,-0.748291015625,0.244140625,-0.1220703125,0.06103515625,0.44384765625,-0.8009033203125,0.397216796875,-294.0,149.0,-149.0,101693.0,-3.067000150680542,0,0
2.7730735999939498,0.373382568359375,-0.45172119140625,0.31072998046875,-0.748291015625,0.244140625,-0.1220703125,0.06103515625,0.44384765625,-0.8009033203125,0.397216796875,-294.0,149.0,-149.0,101693.0,-3.067000150680542,0,0
2.773134899995057,0.373382568359375,-0.45172119140625,0.31072998046875,-0.748291015625,0.244140625,-0.1220703125,0.06103515625,0.44384765625,-0.8009033203125,0.397216796875,-294.0,149.0,-149.0,101693.0,-3.067000150680542,0,0
2.773190499996417,0.373382568359375,-0.45172119140625,0.31072998046875,-0.748291015625,0.1220703125,0.0,-0.18310546875,0.444091796875,-0.805419921875,0.39794921875,-294.0,149.0,-149.0,101693.0,-3.067000150680542,0,0
2.773245099990163,0.373382568359375,-0.45172119140625,0.310760498046875,-0.748291015625,0.48828125,0.0,0.1220703125,0.4434814453125,-0.8037109375,0.398193359375,-294.0,149.0,-149.0,101693.0,-3.067000150680542,0,0
2.7732989999931306,0.373382568359375,-0.45172119140625,0.310760498046875,-0.748291015625,-0.06103515625,-0.06103515625,0.0,0.4434814453125,-0.8033447265625,0.39794921875,-293.0,149.0,-149.0,101693.0,-3.067000150680542,0,0
2.7733522999915294,0.373382568359375,-0.45172119140625,0.310760498046875,-0.748291015625,0.06103515625,-0.1220703125,0.06103515625,0.4451904296875,-0.8016357421875,0.399169921875,-293.0,149.0,-149.0,101693.0,-3.067000150680542,0,0
2.833636600000318,0.373382568359375,-0.45172119140625,0.310760498046875,-0.748260498046875,0.30517578125,-0.18310546875,-0.06103515625,0.4453125,-0.803955078125,0.3997802734375,-293.0,149.0,-149.0,101693.0,-3.065000057220459,0,0
2.8337055999872973,0.373382568359375,-0.45172119140625,0.310760498046875,-0.748260498046875,0.6103515625,0.1220703125,-0.18310546875,0.4423828125,-0.8031005859375,0.3994140625,-293.0,149.0,-149.0,101693.0,-3.065000057220459,0,0
2.8338598999980604,0.373382568359375,-0.45172119140625,0.310760498046875,-0.748260498046875,0.0,-0.06103515625,0.0,0.4454345703125,-0.80322265625,0.3984375,-293.0,149.0,-149.0,101693.0,-3.065000057220459,0,0
2.833933599991724,0.373382568359375,-0.45172119140625,0.310760498046875,-0.748291015625,-0.244140625,-0.244140625,0.06103515625,0.4442138671875,-0.80126953125,0.3992919921875,-293.0,149.0,-149.0,101693.0,-3.065000057220459,0,0
2.834250299987616,0.373382568359375,-0.45172119140625,0.310760498046875,-0.748291015625,0.06103515625,0.06103515625,-0.244140625,0.4429931640625,-0.7998046875,0.39892578125,-293.0,149.0,-149.0,101693.0,-3.065000057220459,0,0
2.8343093000003137,0.373382568359375,-0.45172119140625,0.310760498046875,-0.748260498046875,0.244140625,-0.06103515625,0.0,0.4417724609375,-0.8033447265625,0.3988037109375,-293.0,149.0,-149.0,101693.0,-3.065000057220459,0,0
2.8343642999971053,0.373382568359375,-0.45172119140625,0.310760498046875,-0.748260498046875,0.1220703125,-0.06103515625,-0.244140625,0.4423828125,-0.802734375,0.3978271484375,-293.0,149.0,-149.0,101693.0,-3.065000057220459,0,0
2.8344173999939812,0.373382568359375,-0.45172119140625,0.310760498046875,-0.748260498046875,0.3662109375,-0.06103515625,-0.244140625,0.4447021484375,-0.801513671875,0.3995361328125,-293.0,149.0,-149.0,101693.0,-3.065000057220459,0,0
2.8344881999946665,0.373382568359375,-0.45172119140625,0.310760498046875,-0.748260498046875,0.0,-0.18310546875,-0.1220703125,0.4442138671875,-0.803466796875,0.3975830078125,-293.0,149.0,-149.0,101693.0,-3.065000057220459,0,0
2.9001580999902217,0.373382568359375,-0.45172119140625,0.310760498046875,-0.748260498046875,0.0,-0.18310546875,-0.1220703125,0.4442138671875,-0.803466796875,0.3975830078125,-293.0,149.0,-149.0,101693.0,-3.065000057220459,0,0
2.9002226000011433,0.373382568359375,-0.45172119140625,0.310760498046875,-0.748260498046875,-0.06103515625,-0.1220703125,-0.1220703125,0.4456787109375,-0.802001953125,0.396728515625,-293.0,149.0,-149.0,101693.0,-3.065000057220459,0,0
2.900279199995566,0.373382568359375,-0.45172119140625,0.310760498046875,-0.748260498046875,0.06103515625,-0.06103515625,-0.42724609375,0.446044921875,-0.80126953125,0.3988037109375,-293.0,149.0,-149.0,101693.0,-3.065000057220459,0,0
2.900333999990835,0.373382568359375,-0.45172119140625,0.310760498046875,-0.748260498046875,0.244140625,0.18310546875,0.0,0.4454345703125,-0.8023681640625,0.39892578125,-293.0,149.0,-149.0,101693.0,-3.065000057220459,0,0
2.9003880999953253,0.373382568359375,-0.45172119140625,0.310760498046875,-0.748260498046875,-0.1220703125,0.0,-0.18310546875,0.4449462890625,-0.804931640625,0.3975830078125,-293.0,149.0,-149.0,101693.0,-3.065000057220459,0,0
2.90044399999897,0.37335205078125,-0.45172119140625,0.310760498046875,-0.748260498046875,0.0,-0.18310546875,0.1220703125,0.445556640625,-0.8043212890625,0.3980712890625,-293.0,151.0,-150.0,101693.0,-3.065000057220459,0,0
2.9015862999949604,0.37335205078125,-0.451751708984375,0.310760498046875,-0.748260498046875,0.06103515625,-0.1220703125,-0.06103515625,0.44482421875,-0.8026123046875,0.3966064453125,-293.0,151.0,-150.0,101693.0,-3.065000057220459,0,0
2.901647499995306,0.37335205078125,-0.451751708984375,0.310760498046875,-0.748260498046875,0.0,-0.06103515625,0.18310546875,0.445556640625,-0.802001953125,0.400146484375,-293.0,151.0,-150.0,101693.0,-3.065000057220459,0,0
