Time stamp(sec),adc1,adc2,roll_angular_rate,pitch_angular_rate,yaw_angular_rate,acc_X,acc_Y,acc_Z,mag_X,mag_Y,mag_Z,pressure,altitude
0.042193700006464496,0.369873046875,-0.45123291015625,0.31201171875,-0.749786376953125,0.3662109375,0.0,-0.1220703125,0.446044921875,-0.802001953125,0.398681640625,-291.0,150.0,-151.0,101701.0,-3.13100004196167,0,0
0.04226329999801237,0.369873046875,-0.45123291015625,0.31201171875,-0.749786376953125,-0.244140625,-0.06103515625,-0.3662109375,0.4439697265625,-0.8004150390625,0.399169921875,-291.0,150.0,-151.0,101701.0,-3.13100004196167,0,0
0.0423233000037726,0.369873046875,-0.45123291015625,0.31201171875,-0.749786376953125,-0.1220703125,-0.06103515625,-0.1220703125,0.4468994140625,-0.801025390625,0.3994140625,-291.0,150.0,-151.0,101701.0,-3.13100004196167,0,0
0.042378400001325645,0.369873046875,-0.45123291015625,0.31201171875,-0.749786376953125,-0.1220703125,-0.06103515625,-0.1220703125,0.4468994140625,-0.801025390625,0.3994140625,-291.0,150.0,-151.0,101701.0,-3.13100004196167,0,0
0.042431800000485964,0.369873046875,-0.45123291015625,0.31201171875,-0.749786376953125,0.0,-0.18310546875,0.06103515625,0.44482421875,-0.7998046875,0.3955078125,-291.0,151.0,-152.0,101701.0,-3.13100004196167,0,0
0.04331000000820495,0.369873046875,-0.45123291015625,0.31201171875,-0.749786376953125,-0.06103515625,0.06103515625,0.30517578125,0.444580078125,-0.7974853515625,0.397216796875,-291.0,151.0,-152.0,101701.0,-3.13100004196167,0,0
0.04336830000102054,0.369659423828125,-0.451141357421875,0.3121337890625,-0.749908447265625,0.0,0.1220703125,0.48828125,0.4429931640625,-0.7984619140625,0.397216796875,-291.0,151.0,-152.0,101701.0,-3.13100004196167,0,0
0.04342780000297353,0.369659423828125,-0.451141357421875,0.3121337890625,-0.749908447265625,0.18310546875,0.06103515625,0.54931640625,0.4462890625,-0.799560546875,0.396728515625,-291.0,151.0,-152.0,101701.0,-3.13100004196167,0,0
0.04348459999891929,0.369659423828125,-0.45111083984375,0.3121337890625,-0.749908447265625,0.0,0.1220703125,0.0,0.4451904296875,-0.802978515625,0.39990234375,-291.0,151.0,-152.0,101701.0,-3.13100004196167,0,0
0.04353660000197124,0.369659423828125,-0.45111083984375,0.3121337890625,-0.749908447265625,-0.06103515625,-0.244140625,0.244140625,0.44384765625,-0.8021240234375,0.4019775390625,-291.0,151.0,-152.0,101701.0,-3.13100004196167,0,0
0.04358969999884721,0.369659423828125,-0.45111083984375,0.3121337890625,-0.749908447265625,-0.42724609375,-0.1220703125,0.18310546875,0.4447021484375,-0.802001953125,0.399658203125,-291.0,151.0,-152.0,101701.0,-3.13100004196167,0,0
0.10708970000268891,0.369659423828125,-0.45111083984375,0.3121337890625,-0.749908447265625,-0.30517578125,-0.30517578125,-0.244140625,0.4464111328125,-0.803466796875,0.39697265625,-291.0,151.0,-152.0,101701.0,-3.13100004196167,0,0
0.10715680000430439,0.369659423828125,-0.451141357421875,0.312164306640625,-0.7498779296875,-0.06103515625,-0.1220703125,-0.48828125,0.44677734375,-0.8028564453125,0.3961181640625,-291.0,151.0,-152.0,101701.0,-3.13100004196167,0,0
0.1072147000086261,0.369659423828125,-0.451141357421875,0.312164306640625,-0.7498779296875,-0.06103515625,-0.1220703125,-0.48828125,0.44677734375,-0.8028564453125,0.3961181640625,-291.0,151.0,-152.0,101701.0,-3.13100004196167,0,0
0.10726750000321772,0.369659423828125,-0.451141357421875,0.312164306640625,-0.7498779296875,0.244140625,-0.06103515625,-0.54931640625,0.4483642578125,-0.8016357421875,0.3931884765625,-291.0,151.0,-152.0,101701.0,-3.13100004196167,0,0
0.10732229999848641,0.369659423828125,-0.451141357421875,0.312164306640625,-0.7498779296875,0.42724609375,-0.1220703125,-0.1220703125,0.448974609375,-0.802734375,0.3968505859375,-291.0,151.0,-152.0,101701.0,-3.13100004196167,0,0
0.10744439999689348,0.369659423828125,-0.451141357421875,0.3121337890625,-0.7498779296875,-0.1220703125,0.1220703125,0.244140625,0.4443359375,-0.798828125,0.4007568359375,-291.0,151.0,-152.0,101701.0,-3.13100004196167,0,0
0.11338609999802429,0.369659423828125,-0.451141357421875,0.3121337890625,-0.7498779296875,0.0,0.1220703125,0.48828125,0.4459228515625,-0.802734375,0.3988037109375,-291.0,151.0,-152.0,101701.0,-3.13100004196167,0,0
0.11347959999693558,0.369659423828125,-0.451141357421875,0.3121337890625,-0.7498779296875,0.244140625,0.18310546875,0.42724609375,0.4454345703125,-0.8023681640625,0.3958740234375,-291.0,151.0,-152.0,101701.0,-3.13100004196167,0,0
0.11353729999973439,0.369659423828125,-0.451141357421875,0.3121337890625,-0.7498779296875,-0.1220703125,-0.06103515625,-0.244140625,0.445068359375,-0.80322265625,0.3975830078125,-291.0,151.0,-152.0,101701.0,-3.13100004196167,0,0
0.11359300000185613,0.369659423828125,-0.451141357421875,0.3121337890625,-0.7498779296875,0.06103515625,-0.1220703125,0.0,0.44775390625,-0.8056640625,0.3978271484375,-291.0,151.0,-152.0,101701.0,-3.13100004196167,0,0
0.11377619999984745,0.369659423828125,-0.451141357421875,0.3121337890625,-0.7498779296875,-0.244140625,0.0,0.06103515625,0.448486328125,-0.8048095703125,0.397216796875,-291.0,151.0,-152.0,101701.0,-3.13100004196167,0,0
0.11383360000036191,0.369659423828125,-0.451141357421875,0.3121337890625,-0.7498779296875,-0.244140625,0.0,0.06103515625,0.448486328125,-0.8048095703125,0.397216796875,-291.0,151.0,-152.0,101701.0,-3.13100004196167,0,0
0.11405469999590423,0.369659423828125,-0.451171875,0.312164306640625,-0.7498779296875,-0.1220703125,0.06103515625,-0.18310546875,0.445068359375,-0.8037109375,0.396728515625,-291.0,151.0,-152.0,101701.0,-3.13100004196167,0,0
0.17523500000243075,0.369354248046875,-0.451019287109375,0.312347412109375,-0.750030517578125,0.18310546875,-0.3662109375,-0.48828125,0.443359375,-0.7972412109375,0.39990234375,-291.0,152.0,-153.0,101701.0,-3.130000114440918,0,0
0.17530030000489205,0.369354248046875,-0.451019287109375,0.312347412109375,-0.750030517578125,-0.3662109375,-0.1220703125,0.1220703125,0.445068359375,-0.800048828125,0.398681640625,-291.0,152.0,-153.0,101701.0,-3.130000114440918,0,0
0.17535750000388362,0.369354248046875,-0.451019287109375,0.312347412109375,-0.750030517578125,-0.3662109375,0.06103515625,0.1220703125,0.4464111328125,-0.7998046875,0.3974609375,-291.0,152.0,-153.0,101701.0,-3.130000114440918,0,0
0.17541110000456683,0.369354248046875,-0.451019287109375,0.312347412109375,-0.750030517578125,-0.18310546875,0.244140625,0.244140625,0.445556640625,-0.8018798828125,0.396728515625,-291.0,152.0,-153.0,101701.0,-3.130000114440918,0,0
0.17546410000068136,0.369354248046875,-0.4510498046875,0.312347412109375,-0.750030517578125,-0.244140625,0.18310546875,0.48828125,0.4464111328125,-0.8013916015625,0.3939208984375,-291.0,152.0,-153.0,101701.0,-3.130000114440918,0,0
0.175934300001245,0.369354248046875,-0.4510498046875,0.312347412109375,-0.750030517578125,0.1220703125,0.18310546875,0.30517578125,0.4443359375,-0.801513671875,0.3961181640625,-291.0,152.0,-153.0,101701.0,-3.130000114440918,0,0
0.1759881000034511,0.369354248046875,-0.4510498046875,0.312347412109375,-0.750030517578125,0.1220703125,0.18310546875,0.30517578125,0.4443359375,-0.801513671875,0.3961181640625,-291.0,152.0,-153.0,101701.0,-3.130000114440918,0,0
0.1760398000042187,0.369354248046875,-0.4510498046875,0.312347412109375,-0.750030517578125,0.18310546875,0.244140625,-0.18310546875,0.447998046875,-0.8018798828125,0.3984375,-291.0,152.0,-153.0,101701.0,-3.130000114440918,0,0
0.17609219999576453,0.369354248046875,-0.4510498046875,0.312347412109375,-0.750030517578125,0.06103515625,0.06103515625,0.1220703125,0.4454345703125,-0.8006591796875,0.3988037109375,-291.0,152.0,-153.0,101701.0,-3.130000114440918,0,0
0.17614490000414662,0.369354248046875,-0.4510498046875,0.312347412109375,-0.750030517578125,-0.18310546875,-0.06103515625,-0.42724609375,0.4449462890625,-0.7996826171875,0.396240234375,-291.0,152.0,-153.0,101701.0,-3.130000114440918,0,0
0.17619660000491422,0.369354248046875,-0.4510498046875,0.312347412109375,-0.750030517578125,0.30517578125,-0.244140625,-0.244140625,0.444091796875,-0.80126953125,0.396728515625,-291.0,152.0,-153.0,101701.0,-3.130000114440918,0,0
0.23626859999785665,0.36932373046875,-0.4510498046875,0.312347412109375,-0.75,0.42724609375,-0.18310546875,-0.42724609375,0.4505615234375,-0.8026123046875,0.3955078125,-291.0,152.0,-153.0,101701.0,-3.130000114440918,0,0
0.23633820000395644,0.36932373046875,-0.451080322265625,0.312347412109375,-0.75,0.0,-0.244140625,-0.30517578125,0.4451904296875,-0.801025390625,0.3956298828125,-291.0,152.0,-153.0,101701.0,-3.130000114440918,0,0
0.2363961999944877,0.36932373046875,-0.451080322265625,0.312347412109375,-0.75,0.0,-0.244140625,-0.30517578125,0.4451904296875,-0.801025390625,0.3956298828125,-291.0,152.0,-153.0,101701.0,-3.130000114440918,0,0
0.23644900000363123,0.36932373046875,-0.451080322265625,0.312347412109375,-0.75,-0.18310546875,-0.18310546875,-0.06103515625,0.443359375,-0.801513671875,0.3961181640625,-291.0,152.0,-153.0,101701.0,-3.130000114440918,0,0
0.2365016999974614,0.36932373046875,-0.451080322265625,0.312347412109375,-0.75,0.244140625,-0.18310546875,-0.06103515625,0.4451904296875,-0.8001708984375,0.3963623046875,-291.0,152.0,-153.0,101701.0,-3.130000114440918,0,0
0.23677509999834,0.36932373046875,-0.451080322265625,0.312347412109375,-0.75,0.06103515625,-0.1220703125,0.06103515625,0.44677734375,-0.79931640625,0.3974609375,-291.0,152.0,-153.0,101701.0,-3.130000114440918,0,0
0.23682970000663772,0.36932373046875,-0.451080322265625,0.312347412109375,-0.75,0.06103515625,0.0,0.18310546875,0.4468994140625,-0.802001953125,0.3988037109375,-291.0,152.0,-153.0,101701.0,-3.13100004196167,0,0
0.23688310000579804,0.36932373046875,-0.451080322265625,0.312347412109375,-0.75,-0.1220703125,0.06103515625,0.30517578125,0.4451904296875,-0.801025390625,0.3984375,-291.0,152.0,-153.0,101701.0,-3.13100004196167,0,0
0.23693500000808854,0.369232177734375,-0.451019287109375,0.312408447265625,-0.75006103515625,0.30517578125,0.18310546875,0.42724609375,0.447021484375,-0.8031005859375,0.3983154296875,-291.0,152.0,-153.0,101701.0,-3.13100004196167,0,0
0.23698640000657178,0.369232177734375,-0.451019287109375,0.312408447265625,-0.75006103515625,0.0,0.0,0.1220703125,0.443115234375,-0.8011474609375,0.3955078125,-291.0,152.0,-153.0,101701.0,-3.13100004196167,0,0
0.2370385999965947,0.369232177734375,-0.451019287109375,0.31243896484375,-0.75006103515625,0.06103515625,-0.244140625,-0.18310546875,0.4443359375,-0.802978515625,0.398681640625,-291.0,152.0,-153.0,101701.0,-3.13100004196167,0,0
0.2370907000004081,0.369232177734375,-0.451019287109375,0.31243896484375,-0.75006103515625,-0.06103515625,-0.1220703125,-0.3662109375,0.444091796875,-0.8017578125,0.397216796875,-291.0,152.0,-153.0,101701.0,-3.13100004196167,0,0
0.30527680000523105,0.369232177734375,-0.451019287109375,0.31243896484375,-0.75006103515625,-0.06103515625,-0.1220703125,-0.3662109375,0.444091796875,-0.8017578125,0.397216796875,-291.0,152.0,-153.0,101701.0,-3.13100004196167,0,0
0.3053457000060007,0.369232177734375,-0.451019287109375,0.31243896484375,-0.75006103515625,0.0,-0.18310546875,-0.244140625,0.4444580078125,-0.8021240234375,0.3974609375,-291.0,152.0,-153.0,101701.0,-3.13100004196167,0,0
0.3054035999957705,0.369232177734375,-0.451019287109375,0.31243896484375,-0.75006103515625,-0.06103515625,-0.18310546875,-0.244140625,0.4451904296875,-0.8009033203125,0.397216796875,-291.0,152.0,-153.0,101701.0,-3.13100004196167,0,0
0.30545810000330675,0.369232177734375,-0.451019287109375,0.31243896484375,-0.75006103515625,0.0,-0.3662109375,-0.1220703125,0.4447021484375,-0.8001708984375,0.39697265625,-291.0,152.0,-153.0,101701.0,-3.13100004196167,0,0
0.3055123999947682,0.369232177734375,-0.451019287109375,0.31243896484375,-0.75006103515625,0.0,-0.18310546875,-0.18310546875,0.4466552734375,-0.7999267578125,0.395751953125,-291.0,152.0,-153.0,101701.0,-3.13100004196167,0,0
0.3055666000000201,0.369232177734375,-0.451019287109375,0.31243896484375,-0.75006103515625,0.0,-0.1220703125,-0.06103515625,0.4444580078125,-0.8006591796875,0.3946533203125,-291.0,152.0,-153.0,101701.0,-3.13100004196167,0,0
0.3056408999982523,0.369232177734375,-0.451019287109375,0.31243896484375,-0.75006103515625,0.3662109375,0.18310546875,-0.18310546875,0.4462890625,-0.80078125,0.398193359375,-291.0,152.0,-153.0,101701.0,-3.13100004196167,0,0
0.30569380000815727,0.369232177734375,-0.451019287109375,0.31243896484375,-0.75006103515625,-0.3662109375,-0.1220703125,-0.06103515625,0.446044921875,-0.7999267578125,0.3988037109375,-291.0,152.0,-153.0,101701.0,-3.13100004196167,0,0
0.3057517999986885,0.369232177734375,-0.451019287109375,0.31243896484375,-0.75006103515625,-0.30517578125,0.0,0.06103515625,0.4439697265625,-0.80126953125,0.397216796875,-291.0,152.0,-153.0,101701.0,-3.13100004196167,0,0
0.30580850000842474,0.369232177734375,-0.451019287109375,0.31243896484375,-0.75006103515625,-0.30517578125,0.0,0.06103515625,0.4439697265625,-0.80126953125,0.397216796875,-291.0,152.0,-153.0,101701.0,-3.13100004196167,0,0
0.30586580000817776,0.369232177734375,-0.451019287109375,0.31243896484375,-0.75006103515625,-0.06103515625,-0.06103515625,0.30517578125,0.444580078125,-0.801025390625,0.3980712890625,-291.0,152.0,-153.0,101701.0,-3.13100004196167,0,0
0.30592349999642465,0.369232177734375,-0.451019287109375,0.31243896484375,-0.75006103515625,0.1220703125,0.18310546875,0.244140625,0.447021484375,-0.8038330078125,0.3983154296875,-291.0,152.0,-153.0,101701.0,-3.13100004196167,0,0
0.36541500000748783,0.369232177734375,-0.4510498046875,0.31243896484375,-0.75006103515625,-0.18310546875,-0.30517578125,0.1220703125,0.447021484375,-0.8023681640625,0.39794921875,-291.0,152.0,-153.0,101701.0,-3.13100004196167,0,0
0.36548239999683574,0.369232177734375,-0.451019287109375,0.31243896484375,-0.75006103515625,0.06103515625,0.1220703125,-0.06103515625,0.4444580078125,-0.80224609375,0.400146484375,-290.0,151.0,-152.0,101701.0,-3.13100004196167,0,0
0.3655374999943888,0.3690185546875,-0.450927734375,0.31256103515625,-0.750152587890625,0.1220703125,0.1220703125,-0.06103515625,0.44482421875,-0.803466796875,0.3983154296875,-290.0,151.0,-152.0,101701.0,-3.13100004196167,0,0
0.3655927000072552,0.3690185546875,-0.450927734375,0.31256103515625,-0.750152587890625,0.06103515625,-0.06103515625,-0.30517578125,0.4423828125,-0.7999267578125,0.3992919921875,-290.0,151.0,-152.0,101701.0,-3.13100004196167,0,0
0.36564600000565406,0.3690185546875,-0.450927734375,0.31256103515625,-0.750152587890625,0.30517578125,0.0,0.30517578125,0.4521484375,-0.8065185546875,0.3994140625,-290.0,151.0,-152.0,101701.0,-3.13100004196167,0,0
0.3658022000017809,0.3690185546875,-0.450927734375,0.31256103515625,-0.750152587890625,0.30517578125,0.0,0.30517578125,0.4521484375,-0.8065185546875,0.3994140625,-290.0,151.0,-152.0,101701.0,-3.13100004196167,0,0
0.3658595000015339,0.369049072265625,-0.450927734375,0.31256103515625,-0.750152587890625,-0.732421875,-0.30517578125,-0.67138671875,0.440185546875,-0.7952880859375,0.3955078125,-290.0,151.0,-152.0,101701.0,-3.13100004196167,0,0
0.3659156000067014,0.3690185546875,-0.450927734375,0.31256103515625,-0.750152587890625,0.42724609375,-0.30517578125,-0.732421875,0.4466552734375,-0.8023681640625,0.3927001953125,-290.0,151.0,-152.0,101701.0,-3.13100004196167,0,0
0.3659730000072159,0.3690185546875,-0.450927734375,0.31256103515625,-0.750152587890625,-0.1220703125,-0.06103515625,0.06103515625,0.4503173828125,-0.803466796875,0.39990234375,-290.0,151.0,-152.0,101701.0,-3.13100004196167,0,0
0.36602610000409186,0.3690185546875,-0.450927734375,0.31256103515625,-0.750152587890625,-0.18310546875,-0.1220703125,0.30517578125,0.4486083984375,-0.800537109375,0.3973388671875,-290.0,151.0,-152.0,101701.0,-3.13100004196167,0,0
0.36607879999792203,0.3690185546875,-0.450958251953125,0.31256103515625,-0.750152587890625,0.06103515625,0.244140625,0.3662109375,0.4478759765625,-0.8046875,0.396728515625,-290.0,151.0,-152.0,101701.0,-3.13100004196167,0,0
0.36619299999438226,0.3690185546875,-0.450958251953125,0.31256103515625,-0.750152587890625,0.18310546875,0.244140625,0.18310546875,0.4443359375,-0.8023681640625,0.396728515625,-290.0,151.0,-152.0,101701.0,-3.129000186920166,0,0
0.4264349000004586,0.3690185546875,-0.450927734375,0.31256103515625,-0.750152587890625,0.0,-0.1220703125,0.0,0.44580078125,-0.80615234375,0.39697265625,-290.0,151.0,-152.0,101701.0,-3.129000186920166,0,0
0.4265060000034282,0.3690185546875,-0.450927734375,0.31256103515625,-0.750152587890625,0.244140625,-0.18310546875,-0.244140625,0.443603515625,-0.7996826171875,0.3978271484375,-290.0,151.0,-152.0,101701.0,-3.129000186920166,0,0
0.42656400000851136,0.3690185546875,-0.450927734375,0.31256103515625,-0.750152587890625,0.06103515625,-0.244140625,-0.30517578125,0.44482421875,-0.7989501953125,0.3956298828125,-290.0,151.0,-152.0,101701.0,-3.129000186920166,0,0
0.4266204000014113,0.3690185546875,-0.450927734375,0.31256103515625,-0.750152587890625,0.18310546875,-0.06103515625,0.06103515625,0.4454345703125,-0.802490234375,0.3968505859375,-290.0,151.0,-152.0,101701.0,-3.129000186920166,0,0
0.4612870999990264,0.3690185546875,-0.450927734375,0.31256103515625,-0.750152587890625,0.1220703125,0.0,0.18310546875,0.4464111328125,-0.7994384765625,0.39892578125,-290.0,151.0,-152.0,101701.0,-3.129000186920166,0,0
0.4613533999945503,0.3690185546875,-0.450958251953125,0.31256103515625,-0.750152587890625,0.0,0.1220703125,0.06103515625,0.44921875,-0.802490234375,0.399169921875,-290.0,151.0,-152.0,101701.0,-3.129000186920166,0,0
0.4614110999973491,0.3690185546875,-0.450927734375,0.31256103515625,-0.750152587890625,0.6103515625,0.06103515625,0.06103515625,0.4425048828125,-0.8011474609375,0.4002685546875,-290.0,151.0,-152.0,101701.0,-3.129000186920166,0,0
0.46146400000725407,0.3690185546875,-0.450927734375,0.31256103515625,-0.750152587890625,0.6103515625,0.06103515625,0.06103515625,0.4425048828125,-0.8011474609375,0.4002685546875,-290.0,150.0,-150.0,101701.0,-3.129000186920166,0,0
0.4615187000017613,0.368804931640625,-0.450836181640625,0.31268310546875,-0.750244140625,-0.3662109375,0.0,0.18310546875,0.4462890625,-0.798828125,0.39990234375,-290.0,150.0,-150.0,101701.0,-3.129000186920166,0,0
0.4615767000068445,0.368804931640625,-0.450836181640625,0.31268310546875,-0.750244140625,-0.3662109375,0.0,0.18310546875,0.4462890625,-0.798828125,0.39990234375,-290.0,150.0,-150.0,101701.0,-3.129000186920166,0,0
0.46163439999509137,0.36883544921875,-0.450836181640625,0.31268310546875,-0.750244140625,-0.30517578125,-0.244140625,-0.06103515625,0.444091796875,-0.8004150390625,0.3975830078125,-290.0,150.0,-150.0,101701.0,-3.129000186920166,0,0
0.49368880000838544,0.368804931640625,-0.450836181640625,0.31268310546875,-0.750244140625,0.06103515625,0.0,-0.1220703125,0.4466552734375,-0.801513671875,0.39697265625,-290.0,150.0,-150.0,101701.0,-3.129000186920166,0,0
0.49375789999612607,0.368804931640625,-0.450836181640625,0.31268310546875,-0.750244140625,0.1220703125,0.18310546875,-0.30517578125,0.444091796875,-0.8017578125,0.3978271484375,-290.0,150.0,-150.0,101701.0,-3.129000186920166,0,0
0.49381280000670813,0.36883544921875,-0.450836181640625,0.31268310546875,-0.750244140625,0.06103515625,0.0,-0.06103515625,0.4449462890625,-0.8004150390625,0.3966064453125,-290.0,150.0,-150.0,101701.0,-3.129000186920166,0,0
0.49386499999673106,0.36883544921875,-0.450836181640625,0.31268310546875,-0.750244140625,0.1220703125,-0.244140625,0.0,0.4427490234375,-0.8017578125,0.396728515625,-290.0,150.0,-150.0,101701.0,-3.129000186920166,0,0
0.49392059999809135,0.36883544921875,-0.450836181640625,0.31268310546875,-0.750244140625,0.18310546875,-0.06103515625,-0.06103515625,0.4451904296875,-0.8006591796875,0.398681640625,-290.0,150.0,-150.0,101701.0,-3.129000186920166,0,0
0.49397250000038184,0.36883544921875,-0.450836181640625,0.31268310546875,-0.750244140625,0.18310546875,-0.30517578125,-0.30517578125,0.4434814453125,-0.801513671875,0.3975830078125,-290.0,150.0,-150.0,101701.0,-3.129000186920166,0,0
0.4941069000051357,0.36883544921875,-0.450836181640625,0.31268310546875,-0.750244140625,0.18310546875,-0.06103515625,-0.244140625,0.4429931640625,-0.8013916015625,0.398681640625,-290.0,150.0,-150.0,101701.0,-3.130000114440918,0,0
0.49416060000658035,0.36883544921875,-0.450836181640625,0.31268310546875,-0.750274658203125,0.0,-0.18310546875,-0.1220703125,0.445556640625,-0.8001708984375,0.3988037109375,-290.0,150.0,-150.0,101701.0,-3.130000114440918,0,0
0.49421250000887085,0.36883544921875,-0.450836181640625,0.31268310546875,-0.750274658203125,0.0,-0.18310546875,-0.1220703125,0.445556640625,-0.8001708984375,0.3988037109375,-290.0,150.0,-150.0,101701.0,-3.130000114440918,0,0
0.49426940000557806,0.36883544921875,-0.450836181640625,0.31268310546875,-0.750244140625,0.0,-0.06103515625,0.1220703125,0.447265625,-0.8017578125,0.3961181640625,-290.0,150.0,-150.0,101701.0,-3.130000114440918,0,0
0.494324700004654,0.36883544921875,-0.450836181640625,0.31268310546875,-0.750244140625,-0.06103515625,-0.18310546875,0.1220703125,0.445556640625,-0.8016357421875,0.3963623046875,-290.0,150.0,-150.0,101701.0,-3.130000114440918,0,0
0.49437689999467693,0.36883544921875,-0.450836181640625,0.31268310546875,-0.750244140625,0.0,-0.18310546875,0.0,0.4459228515625,-0.8016357421875,0.396240234375,-290.0,150.0,-150.0,101701.0,-3.130000114440918,0,0
0.5562432000006083,0.36883544921875,-0.450836181640625,0.31268310546875,-0.750244140625,-0.06103515625,-0.06103515625,0.1220703125,0.4429931640625,-0.8001708984375,0.3994140625,-290.0,150.0,-150.0,101701.0,-3.130000114440918,0,0
0.5563043000001926,0.36883544921875,-0.450836181640625,0.31268310546875,-0.750244140625,-0.1220703125,-0.1220703125,0.1220703125,0.444580078125,-0.8026123046875,0.3980712890625,-290.0,150.0,-150.0,101701.0,-3.130000114440918,0,0
0.5563581000023987,0.36883544921875,-0.450836181640625,0.31268310546875,-0.750244140625,0.0,0.0,0.0,0.4462890625,-0.8013916015625,0.3983154296875,-290.0,150.0,-150.0,101701.0,-3.130000114440918,0,0
0.5564101000054507,0.36883544921875,-0.450836181640625,0.31268310546875,-0.750244140625,0.0,0.0,0.0,0.4462890625,-0.8013916015625,0.3983154296875,-290.0,150.0,-150.0,101701.0,-3.130000114440918,0,0
0.5564612000016496,0.368743896484375,-0.450775146484375,0.312744140625,-0.75030517578125,0.0,0.06103515625,0.06103515625,0.444580078125,-0.8013916015625,0.397216796875,-291.0,151.0,-150.0,101701.0,-3.130000114440918,0,0
0.5570994000008795,0.368743896484375,-0.450775146484375,0.312744140625,-0.75030517578125,0.30517578125,-0.06103515625,0.0,0.4462890625,-0.8016357421875,0.39794921875,-291.0,151.0,-150.0,101701.0,-3.130000114440918,0,0
0.5571528000000399,0.368743896484375,-0.450775146484375,0.312774658203125,-0.75030517578125,0.0,-0.18310546875,-0.1220703125,0.4442138671875,-0.80224609375,0.396484375,-291.0,151.0,-150.0,101701.0,-3.130000114440918,0,0
0.5572049000038533,0.368743896484375,-0.450775146484375,0.312774658203125,-0.75030517578125,0.06103515625,0.1220703125,-0.18310546875,0.4459228515625,-0.8011474609375,0.3955078125,-291.0,151.0,-150.0,101701.0,-3.130000114440918,0,0
0.5572568000061437,0.368743896484375,-0.450775146484375,0.312774658203125,-0.75030517578125,0.30517578125,-0.30517578125,-0.3662109375,0.443603515625,-0.79833984375,0.3978271484375,-291.0,151.0,-150.0,101701.0,-3.130000114440918,0,0
0.5573103000060655,0.368743896484375,-0.450775146484375,0.312774658203125,-0.75030517578125,0.1220703125,-0.244140625,-0.18310546875,0.443359375,-0.802001953125,0.3978271484375,-291.0,151.0,-150.0,101701.0,-3.130000114440918,0,0
0.5578927000024123,0.368743896484375,-0.450775146484375,0.312774658203125,-0.75030517578125,0.244140625,0.0,-0.1220703125,0.44580078125,-0.802490234375,0.3985595703125,-291.0,151.0,-150.0,101701.0,-3.130000114440918,0,0
0.5579699999943841,0.368743896484375,-0.450775146484375,0.312774658203125,-0.75030517578125,0.0,0.18310546875,0.0,0.44677734375,-0.8017578125,0.398193359375,-291.0,151.0,-150.0,101701.0,-3.130000114440918,0,0
0.6183431999961613,0.368743896484375,-0.450775146484375,0.312774658203125,-0.75030517578125,-0.48828125,0.06103515625,0.18310546875,0.4453125,-0.802490234375,0.4010009765625,-291.0,151.0,-150.0,101701.0,-3.130000114440918,0,0
0.6184251999948174,0.368743896484375,-0.450775146484375,0.312774658203125,-0.75030517578125,0.1220703125,-0.18310546875,-0.06103515625,0.4464111328125,-0.8017578125,0.3956298828125,-291.0,151.0,-150.0,101701.0,-3.130000114440918,0,0
0.6185455000086222,0.368743896484375,-0.450775146484375,0.312774658203125,-0.75030517578125,0.06103515625,-0.244140625,-0.244140625,0.444091796875,-0.8033447265625,0.39599609375,-291.0,151.0,-150.0,101701.0,-3.130000114440918,0,0
0.6186999000055948,0.368743896484375,-0.450775146484375,0.312774658203125,-0.75030517578125,0.18310546875,-0.244140625,-0.30517578125,0.4449462890625,-0.7982177734375,0.3941650390625,-291.0,151.0,-150.0,101701.0,-3.130000114440918,0,0
0.6187648000050103,0.368743896484375,-0.450775146484375,0.312774658203125,-0.75030517578125,-0.18310546875,-0.06103515625,-0.1220703125,0.4464111328125,-0.8018798828125,0.3963623046875,-291.0,151.0,-150.0,101701.0,-3.130000114440918,0,0
0.624489599998924,0.368743896484375,-0.4508056640625,0.312774658203125,-0.75030517578125,0.06103515625,0.18310546875,-0.18310546875,0.447265625,-0.8011474609375,0.396728515625,-291.0,151.0,-150.0,101701.0,-3.130000114440918,0,0
0.6245567000005394,0.368743896484375,-0.4508056640625,0.312774658203125,-0.75030517578125,0.3662109375,0.06103515625,-0.06103515625,0.446044921875,-0.799560546875,0.396484375,-291.0,151.0,-150.0,101701.0,-3.130000114440918,0,0
0.6246149000071455,0.368743896484375,-0.4508056640625,0.312774658203125,-0.75030517578125,0.18310546875,-0.06103515625,0.0,0.446044921875,-0.8016357421875,0.3975830078125,-291.0,151.0,-150.0,101701.0,-3.130000114440918,0,0
0.6246716000023298,0.368743896484375,-0.4508056640625,0.312774658203125,-0.75030517578125,0.18310546875,-0.06103515625,0.0,0.446044921875,-0.8016357421875,0.3975830078125,-291.0,151.0,-150.0,101701.0,-3.130000114440918,0,0
0.6247264999983599,0.368743896484375,-0.4508056640625,0.312774658203125,-0.750274658203125,0.18310546875,-0.06103515625,0.1220703125,0.4443359375,-0.80322265625,0.3985595703125,-291.0,151.0,-151.0,101701.0,-3.130000114440918,0,0
0.6247806000028504,0.3685302734375,-0.450714111328125,0.312896728515625,-0.750396728515625,0.0,0.1220703125,0.0,0.444580078125,-0.8004150390625,0.3978271484375,-291.0,151.0,-151.0,101701.0,-3.130000114440918,0,0
0.6842822000035085,0.3685302734375,-0.450714111328125,0.312896728515625,-0.750396728515625,0.06103515625,-0.1220703125,-0.06103515625,0.4444580078125,-0.7996826171875,0.3961181640625,-291.0,151.0,-151.0,101701.0,-3.130000114440918,0,0
0.6843540999980178,0.3685302734375,-0.450714111328125,0.312896728515625,-0.750396728515625,0.18310546875,0.1220703125,-0.1220703125,0.4459228515625,-0.8016357421875,0.3963623046875,-291.0,151.0,-151.0,101701.0,-3.130000114440918,0,0
0.684413199996925,0.3685302734375,-0.450714111328125,0.312896728515625,-0.750396728515625,-0.1220703125,-0.18310546875,-0.1220703125,0.443603515625,-0.8013916015625,0.3975830078125,-291.0,151.0,-151.0,101701.0,-3.130000114440918,0,0
0.684470499996678,0.3685302734375,-0.450714111328125,0.312896728515625,-0.750396728515625,0.0,0.0,0.18310546875,0.4473876953125,-0.8017578125,0.3973388671875,-291.0,151.0,-151.0,101701.0,-3.130000114440918,0,0
0.6845272000064142,0.3685302734375,-0.450714111328125,0.312896728515625,-0.750396728515625,0.18310546875,-0.06103515625,-0.1220703125,0.4468994140625,-0.80078125,0.3973388671875,-291.0,151.0,-151.0,101701.0,-3.130000114440918,0,0
0.6845841000031214,0.3685302734375,-0.450714111328125,0.312896728515625,-0.750396728515625,-0.06103515625,0.0,0.0,0.4488525390625,-0.802734375,0.3983154296875,-291.0,151.0,-151.0,101701.0,-3.130000114440918,0,0
0.6846557999961078,0.3685302734375,-0.450714111328125,0.312896728515625,-0.750396728515625,-0.18310546875,0.06103515625,0.06103515625,0.4471435546875,-0.802734375,0.39990234375,-291.0,151.0,-151.0,101701.0,-3.130000114440918,0,0
0.684711599998991,0.3685302734375,-0.450714111328125,0.312896728515625,-0.750396728515625,-0.18310546875,0.06103515625,0.06103515625,0.4471435546875,-0.802734375,0.39990234375,-291.0,151.0,-151.0,101701.0,-3.130000114440918,0,0
0.6847675000026356,0.3685302734375,-0.450714111328125,0.312896728515625,-0.750396728515625,0.06103515625,0.0,0.1220703125,0.442626953125,-0.8011474609375,0.3990478515625,-291.0,151.0,-151.0,101701.0,-3.13100004196167,0,0
0.6848231000039959,0.3685302734375,-0.450714111328125,0.312896728515625,-0.750396728515625,0.18310546875,0.1220703125,0.1220703125,0.444091796875,-0.8037109375,0.39990234375,-291.0,151.0,-151.0,101701.0,-3.13100004196167,0,0
0.6848780000000261,0.3685302734375,-0.450714111328125,0.312896728515625,-0.750396728515625,0.06103515625,-0.244140625,-0.244140625,0.4451904296875,-0.8013916015625,0.3988037109375,-291.0,151.0,-151.0,101701.0,-3.13100004196167,0,0
0.6849337000021478,0.3685302734375,-0.450714111328125,0.312896728515625,-0.750396728515625,0.0,-0.30517578125,-0.1220703125,0.44580078125,-0.801513671875,0.3958740234375,-291.0,151.0,-151.0,101701.0,-3.13100004196167,0,0
0.6849880000081612,0.3685302734375,-0.450714111328125,0.312896728515625,-0.750396728515625,0.0,0.1220703125,0.0,0.4468994140625,-0.8017578125,0.3963623046875,-291.0,151.0,-151.0,101701.0,-3.13100004196167,0,0
0.7480330999969738,0.3685302734375,-0.450714111328125,0.312896728515625,-0.750396728515625,0.0,-0.1220703125,-0.1220703125,0.4453125,-0.8013916015625,0.398193359375,-291.0,151.0,-151.0,101701.0,-3.13100004196167,0,0
0.7480970000033267,0.3685302734375,-0.450714111328125,0.312896728515625,-0.750396728515625,0.0,-0.1220703125,-0.1220703125,0.4453125,-0.8013916015625,0.398193359375,-291.0,151.0,-151.0,101701.0,-3.13100004196167,0,0
0.7481555999984266,0.3685302734375,-0.450714111328125,0.312896728515625,-0.750396728515625,-0.244140625,-0.1220703125,-0.3662109375,0.4462890625,-0.8001708984375,0.3984375,-291.0,151.0,-151.0,101701.0,-3.13100004196167,0,0
0.7482119000051171,0.3685302734375,-0.450714111328125,0.312896728515625,-0.750396728515625,-0.1220703125,-0.18310546875,-0.18310546875,0.44384765625,-0.8009033203125,0.3963623046875,-291.0,151.0,-151.0,101701.0,-3.13100004196167,0,0
0.7500549999967916,0.368316650390625,-0.450653076171875,0.313018798828125,-0.75048828125,-0.1220703125,-0.18310546875,-0.18310546875,0.44384765625,-0.8009033203125,0.3963623046875,-291.0,152.0,-151.0,101701.0,-3.13100004196167,0,0
0.7501218999968842,0.368316650390625,-0.450653076171875,0.313018798828125,-0.75048828125,0.18310546875,-0.18310546875,0.06103515625,0.447021484375,-0.8006591796875,0.3970947265625,-291.0,152.0,-151.0,101701.0,-3.13100004196167,0,0
0.7501802000042517,0.368316650390625,-0.45062255859375,0.313018798828125,-0.75048828125,-0.1220703125,-0.06103515625,-0.06103515625,0.44677734375,-0.8006591796875,0.399169921875,-291.0,152.0,-151.0,101701.0,-3.13100004196167,0,0
0.7502390000008745,0.368316650390625,-0.45062255859375,0.313018798828125,-0.75048828125,-0.1220703125,-0.1220703125,0.06103515625,0.4447021484375,-0.8021240234375,0.398193359375,-291.0,152.0,-151.0,101701.0,-3.13100004196167,0,0
0.7502948000037577,0.368316650390625,-0.45062255859375,0.313018798828125,-0.75048828125,-0.18310546875,-0.30517578125,0.06103515625,0.4439697265625,-0.8006591796875,0.3975830078125,-291.0,152.0,-151.0,101701.0,-3.13100004196167,0,0
0.7503511999966577,0.368316650390625,-0.45062255859375,0.313018798828125,-0.75048828125,0.18310546875,-0.244140625,0.0,0.4451904296875,-0.7994384765625,0.39990234375,-291.0,152.0,-151.0,101701.0,-3.13100004196167,0,0
0.7504069999995409,0.368316650390625,-0.45062255859375,0.313018798828125,-0.75048828125,0.1220703125,0.1220703125,-0.1220703125,0.445068359375,-0.799560546875,0.3995361328125,-291.0,152.0,-151.0,101701.0,-3.13100004196167,0,0
0.8114856000029249,0.368316650390625,-0.45062255859375,0.313018798828125,-0.75048828125,0.06103515625,0.18310546875,-0.06103515625,0.44580078125,-0.8031005859375,0.3984375,-291.0,152.0,-151.0,101701.0,-3.130000114440918,0,0
0.8115506000031019,0.368316650390625,-0.45062255859375,0.313018798828125,-0.75048828125,-0.18310546875,-0.1220703125,-0.18310546875,0.4468994140625,-0.800537109375,0.3994140625,-291.0,152.0,-151.0,101701.0,-3.130000114440918,0,0
0.8116034999984549,0.368316650390625,-0.45062255859375,0.313018798828125,-0.75048828125,0.1220703125,0.0,-0.1220703125,0.4471435546875,-0.8021240234375,0.3994140625,-291.0,152.0,-151.0,101701.0,-3.130000114440918,0,0
0.811657500002184,0.368316650390625,-0.45062255859375,0.313018798828125,-0.75048828125,0.06103515625,0.0,0.0,0.446044921875,-0.8017578125,0.3978271484375,-291.0,152.0,-151.0,101701.0,-3.130000114440918,0,0
0.8117098000075202,0.368316650390625,-0.45062255859375,0.313018798828125,-0.75048828125,0.06103515625,-0.30517578125,0.0,0.4453125,-0.802978515625,0.3984375,-291.0,152.0,-151.0,101701.0,-3.130000114440918,0,0
0.8123205000010785,0.368316650390625,-0.45062255859375,0.313018798828125,-0.75048828125,-0.06103515625,-0.1220703125,-0.18310546875,0.4439697265625,-0.8009033203125,0.3995361328125,-291.0,152.0,-151.0,101701.0,-3.130000114440918,0,0
0.8123741000017617,0.368316650390625,-0.45062255859375,0.313018798828125,-0.75048828125,-0.1220703125,-0.18310546875,-0.18310546875,0.44287109375,-0.8033447265625,0.3974609375,-291.0,152.0,-151.0,101701.0,-3.130000114440918,0,0
0.812426400007098,0.368316650390625,-0.45062255859375,0.313018798828125,-0.75048828125,-0.1220703125,-0.18310546875,-0.18310546875,0.44287109375,-0.8033447265625,0.3974609375,-291.0,152.0,-151.0,101701.0,-3.130000114440918,0,0
0.8124782999948366,0.368316650390625,-0.45062255859375,0.313018798828125,-0.75048828125,-0.06103515625,-0.244140625,-0.3662109375,0.44482421875,-0.8006591796875,0.3968505859375,-291.0,152.0,-151.0,101701.0,-3.130000114440918,0,0
0.8125287000002572,0.368316650390625,-0.45062255859375,0.31304931640625,-0.75048828125,-0.30517578125,-0.244140625,0.0,0.4459228515625,-0.8013916015625,0.3966064453125,-291.0,152.0,-151.0,101701.0,-3.130000114440918,0,0
0.8125801999995019,0.368316650390625,-0.45062255859375,0.31304931640625,-0.75048828125,0.30517578125,-0.1220703125,-0.30517578125,0.44677734375,-0.8001708984375,0.3931884765625,-291.0,152.0,-151.0,101701.0,-3.130000114440918,0,0
0.8736271999950986,0.368316650390625,-0.450653076171875,0.313018798828125,-0.75048828125,-0.18310546875,-0.18310546875,-0.244140625,0.4501953125,-0.7987060546875,0.3946533203125,-292.0,152.0,-152.0,101701.0,-3.130000114440918,0,0
0.8737555999978213,0.368194580078125,-0.450592041015625,0.313079833984375,-0.75054931640625,0.18310546875,-0.06103515625,-0.06103515625,0.4453125,-0.8013916015625,0.3983154296875,-292.0,152.0,-152.0,101701.0,-3.130000114440918,0,0
0.87387630000012,0.368194580078125,-0.450592041015625,0.313079833984375,-0.75054931640625,0.244140625,-0.3662109375,0.1220703125,0.4444580078125,-0.7994384765625,0.3980712890625,-292.0,152.0,-152.0,101701.0,-3.130000114440918,0,0
0.8739948000002187,0.36822509765625,-0.450592041015625,0.313079833984375,-0.75054931640625,-0.06103515625,0.18310546875,-0.18310546875,0.4429931640625,-0.802978515625,0.39892578125,-292.0,152.0,-152.0,101701.0,-3.130000114440918,0,0
0.8741164999955799,0.36822509765625,-0.450592041015625,0.313079833984375,-0.75054931640625,0.18310546875,-0.30517578125,-0.18310546875,0.4447021484375,-0.8006591796875,0.3985595703125,-292.0,152.0,-152.0,101701.0,-3.130000114440918,0,0
0.8742414000007557,0.36822509765625,-0.450592041015625,0.313079833984375,-0.75054931640625,-0.244140625,-0.18310546875,0.18310546875,0.4464111328125,-0.8018798828125,0.39794921875,-292.0,152.0,-152.0,101701.0,-3.130000114440918,0,0
0.8747512999980245,0.36822509765625,-0.450592041015625,0.313079833984375,-0.75054931640625,-0.244140625,-0.18310546875,0.18310546875,0.4464111328125,-0.8018798828125,0.39794921875,-292.0,152.0,-152.0,101701.0,-3.130000114440918,0,0
0.8748167000012472,0.36822509765625,-0.450592041015625,0.313079833984375,-0.75054931640625,0.06103515625,-0.1220703125,0.1220703125,0.4439697265625,-0.800537109375,0.3970947265625,-292.0,152.0,-152.0,101701.0,-3.130000114440918,0,0
0.8748904999956721,0.36822509765625,-0.450592041015625,0.313079833984375,-0.75054931640625,-0.1220703125,-0.3662109375,-0.06103515625,0.4459228515625,-0.7994384765625,0.39697265625,-292.0,152.0,-152.0,101701.0,-3.130000114440918,0,0
0.8750737999944249,0.36822509765625,-0.450592041015625,0.313079833984375,-0.75054931640625,-0.06103515625,0.0,0.0,0.447021484375,-0.80419921875,0.398681640625,-292.0,152.0,-152.0,101701.0,-3.13100004196167,0,0
0.8751404000067851,0.36822509765625,-0.450592041015625,0.313079833984375,-0.75054931640625,0.06103515625,-0.1220703125,-0.06103515625,0.4462890625,-0.802734375,0.3958740234375,-292.0,152.0,-152.0,101701.0,-3.13100004196167,0,0
0.8752072000061162,0.36822509765625,-0.450592041015625,0.313079833984375,-0.75054931640625,0.30517578125,0.244140625,-0.244140625,0.4466552734375,-0.8031005859375,0.3975830078125,-292.0,152.0,-152.0,101701.0,-3.13100004196167,0,0
0.8753242999955546,0.36822509765625,-0.450592041015625,0.313079833984375,-0.750518798828125,0.0,-0.18310546875,-0.18310546875,0.443603515625,-0.8016357421875,0.3994140625,-292.0,152.0,-152.0,101701.0,-3.13100004196167,0,0
0.9363908999948762,0.36822509765625,-0.450592041015625,0.3131103515625,-0.75054931640625,0.18310546875,0.06103515625,-0.18310546875,0.4449462890625,-0.801513671875,0.3983154296875,-292.0,152.0,-152.0,101701.0,-3.13100004196167,0,0
0.9364553000050364,0.36822509765625,-0.450592041015625,0.313079833984375,-0.75054931640625,0.732421875,0.244140625,0.0,0.4468994140625,-0.7991943359375,0.3980712890625,-292.0,152.0,-152.0,101701.0,-3.13100004196167,0,0
0.9365195999998832,0.36822509765625,-0.450592041015625,0.313079833984375,-0.75054931640625,0.1220703125,-0.42724609375,-0.06103515625,0.4434814453125,-0.8016357421875,0.39794921875,-292.0,152.0,-152.0,101701.0,-3.13100004196167,0,0
0.9365778000064893,0.36822509765625,-0.450592041015625,0.313079833984375,-0.75054931640625,-0.18310546875,-0.06103515625,-0.244140625,0.447998046875,-0.8006591796875,0.3983154296875,-292.0,152.0,-152.0,101701.0,-3.13100004196167,0,0
0.9366339999978663,0.36822509765625,-0.450592041015625,0.313079833984375,-0.75054931640625,0.30517578125,-0.30517578125,-0.1220703125,0.4451904296875,-0.801025390625,0.3975830078125,-292.0,152.0,-152.0,101701.0,-3.13100004196167,0,0
0.9393424000008963,0.36822509765625,-0.450592041015625,0.313079833984375,-0.75054931640625,0.1220703125,-0.06103515625,-0.1220703125,0.4473876953125,-0.800537109375,0.3968505859375,-292.0,152.0,-152.0,101701.0,-3.13100004196167,0,0
0.9394096000032732,0.36810302734375,-0.450531005859375,0.313140869140625,-0.750579833984375,0.244140625,-0.244140625,0.244140625,0.4453125,-0.800537109375,0.3973388671875,-293.0,152.0,-151.0,101701.0,-3.13100004196167,0,0
0.9394709000043804,0.36810302734375,-0.450531005859375,0.313140869140625,-0.7506103515625,-0.1220703125,0.1220703125,-0.18310546875,0.446533203125,-0.8001708984375,0.3990478515625,-293.0,152.0,-151.0,101701.0,-3.13100004196167,0,0
0.9395294999994803,0.36810302734375,-0.450531005859375,0.313140869140625,-0.7506103515625,-0.244140625,-0.06103515625,0.0,0.4451904296875,-0.80029296875,0.3983154296875,-293.0,152.0,-151.0,101701.0,-3.13100004196167,0,0
0.9395897000067635,0.36810302734375,-0.450531005859375,0.313140869140625,-0.7506103515625,-0.18310546875,-0.1220703125,0.06103515625,0.447998046875,-0.802490234375,0.3980712890625,-293.0,152.0,-151.0,101701.0,-3.13100004196167,0,0
0.9396463000011863,0.36810302734375,-0.450531005859375,0.313140869140625,-0.7506103515625,-0.18310546875,-0.1220703125,0.06103515625,0.447998046875,-0.802490234375,0.3980712890625,-293.0,152.0,-151.0,101701.0,-3.13100004196167,0,0
1.002821700007189,0.36810302734375,-0.450531005859375,0.313140869140625,-0.7506103515625,0.1220703125,-0.06103515625,0.1220703125,0.4439697265625,-0.8028564453125,0.3990478515625,-293.0,152.0,-151.0,101701.0,-3.13100004196167,0,0
1.0028964999946766,0.368133544921875,-0.450531005859375,0.313140869140625,-0.7506103515625,0.0,-0.30517578125,-0.18310546875,0.4449462890625,-0.80419921875,0.3990478515625,-293.0,152.0,-151.0,101701.0,-3.13100004196167,0,0
1.0029559999966295,0.36810302734375,-0.450531005859375,0.313140869140625,-0.7506103515625,-0.06103515625,-0.30517578125,0.18310546875,0.4503173828125,-0.8016357421875,0.3978271484375,-293.0,152.0,-151.0,101701.0,-3.130000114440918,0,0
1.0030146000062814,0.36810302734375,-0.450531005859375,0.313140869140625,-0.7506103515625,0.0,-0.06103515625,-0.06103515625,0.4451904296875,-0.8006591796875,0.39794921875,-293.0,152.0,-151.0,101701.0,-3.130000114440918,0,0
1.0030715000029886,0.368133544921875,-0.450531005859375,0.313140869140625,-0.7506103515625,0.18310546875,0.18310546875,0.0,0.443359375,-0.8006591796875,0.3978271484375,-293.0,152.0,-151.0,101701.0,-3.130000114440918,0,0
1.003391799997189,0.368133544921875,-0.450531005859375,0.313140869140625,-0.7506103515625,0.18310546875,0.06103515625,-0.1220703125,0.444580078125,-0.802490234375,0.3974609375,-293.0,152.0,-151.0,101701.0,-3.130000114440918,0,0
1.0034562000073493,0.368133544921875,-0.450531005859375,0.313140869140625,-0.7506103515625,0.18310546875,0.06103515625,-0.1220703125,0.444580078125,-0.802490234375,0.3974609375,-293.0,152.0,-151.0,101701.0,-3.130000114440918,0,0
1.0035138999955961,0.36810302734375,-0.450531005859375,0.313140869140625,-0.7506103515625,0.18310546875,-0.18310546875,-0.18310546875,0.44580078125,-0.7998046875,0.3974609375,-293.0,152.0,-151.0,101701.0,-3.130000114440918,0,0
1.0035702000022866,0.368133544921875,-0.450531005859375,0.313140869140625,-0.7506103515625,-0.1220703125,-0.244140625,-0.18310546875,0.4442138671875,-0.801513671875,0.39892578125,-293.0,152.0,-151.0,101701.0,-3.130000114440918,0,0
1.0036354000039864,0.368133544921875,-0.450531005859375,0.313140869140625,-0.7506103515625,0.1220703125,0.06103515625,0.06103515625,0.44482421875,-0.7991943359375,0.3970947265625,-293.0,152.0,-151.0,101701.0,-3.130000114440918,0,0
1.0036942000006093,0.368133544921875,-0.450531005859375,0.313140869140625,-0.7506103515625,0.0,-0.1220703125,0.0,0.447509765625,-0.8011474609375,0.396728515625,-293.0,152.0,-151.0,101701.0,-3.130000114440918,0,0
1.0679736000020057,0.36810302734375,-0.450531005859375,0.313140869140625,-0.7506103515625,0.06103515625,-0.244140625,-0.06103515625,0.447265625,-0.8006591796875,0.398193359375,-293.0,152.0,-151.0,101701.0,-3.130000114440918,0,0
1.0680412000074284,0.36810302734375,-0.450531005859375,0.313140869140625,-0.7506103515625,0.06103515625,-0.244140625,-0.06103515625,0.447265625,-0.8006591796875,0.398193359375,-293.0,151.0,-151.0,101701.0,-3.130000114440918,0,0
1.0681000000040513,0.36810302734375,-0.450531005859375,0.3131103515625,-0.7506103515625,0.06103515625,0.0,-0.06103515625,0.446044921875,-0.801025390625,0.3968505859375,-293.0,151.0,-151.0,101701.0,-3.130000114440918,0,0
1.0681549000000814,0.368011474609375,-0.450469970703125,0.313201904296875,-0.750640869140625,0.18310546875,0.06103515625,0.1220703125,0.4447021484375,-0.8011474609375,0.3975830078125,-293.0,151.0,-151.0,101701.0,-3.130000114440918,0,0
1.0682134999951813,0.368011474609375,-0.450469970703125,0.313201904296875,-0.750640869140625,0.18310546875,0.0,0.06103515625,0.4453125,-0.8035888671875,0.39794921875,-293.0,151.0,-151.0,101701.0,-3.130000114440918,0,0
1.0682718000025488,0.368011474609375,-0.450469970703125,0.313201904296875,-0.750640869140625,0.18310546875,0.0,0.06103515625,0.4453125,-0.8035888671875,0.39794921875,-293.0,151.0,-151.0,101701.0,-3.130000114440918,0,0
1.0683283999969717,0.368011474609375,-0.450469970703125,0.313201904296875,-0.75067138671875,0.244140625,-0.06103515625,-0.1220703125,0.4456787109375,-0.802001953125,0.400146484375,-293.0,151.0,-151.0,101701.0,-3.130000114440918,0,0
1.0684840000030817,0.368011474609375,-0.450469970703125,0.313201904296875,-0.75067138671875,0.18310546875,0.1220703125,0.244140625,0.44677734375,-0.800537109375,0.39794921875,-293.0,151.0,-151.0,101701.0,-3.130000114440918,0,0
1.068539600004442,0.368011474609375,-0.450469970703125,0.313201904296875,-0.75067138671875,-0.1220703125,-0.18310546875,-0.06103515625,0.445556640625,-0.8023681640625,0.3992919921875,-293.0,151.0,-151.0,101701.0,-3.130000114440918,0,0
1.068595999997342,0.368011474609375,-0.450469970703125,0.313201904296875,-0.75067138671875,0.0,0.0,-0.06103515625,0.4462890625,-0.8001708984375,0.398193359375,-293.0,151.0,-151.0,101701.0,-3.130000114440918,0,0
1.0686531999963336,0.368011474609375,-0.450469970703125,0.313201904296875,-0.75067138671875,-0.244140625,-0.06103515625,-0.06103515625,0.4464111328125,-0.801513671875,0.397216796875,-293.0,151.0,-151.0,101701.0,-3.130000114440918,0,0
1.0687092000007397,0.368011474609375,-0.450469970703125,0.313201904296875,-0.75067138671875,0.0,-0.244140625,-0.18310546875,0.4439697265625,-0.80078125,0.397216796875,-293.0,151.0,-151.0,101701.0,-3.130000114440918,0,0
1.0687649000028614,0.368011474609375,-0.450469970703125,0.31317138671875,-0.75067138671875,0.0,-0.06103515625,0.06103515625,0.4461669921875,-0.799560546875,0.398681640625,-293.0,151.0,-151.0,101701.0,-3.130000114440918,0,0
1.131925699999556,0.368011474609375,-0.450469970703125,0.313201904296875,-0.75067138671875,-0.1220703125,-0.18310546875,0.0,0.4456787109375,-0.80029296875,0.397216796875,-293.0,151.0,-151.0,101701.0,-3.130000114440918,0,0
1.132010100001935,0.368011474609375,-0.450469970703125,0.313201904296875,-0.75067138671875,0.0,-0.06103515625,0.1220703125,0.4451904296875,-0.802490234375,0.3988037109375,-293.0,151.0,-151.0,101701.0,-3.130000114440918,0,0
1.1320693000016036,0.368011474609375,-0.450469970703125,0.313201904296875,-0.75067138671875,0.0,0.0,0.06103515625,0.4464111328125,-0.80322265625,0.398681640625,-293.0,151.0,-151.0,101701.0,-3.130000114440918,0,0
1.1321310000057565,0.368011474609375,-0.450469970703125,0.313201904296875,-0.75067138671875,0.244140625,0.0,0.1220703125,0.447509765625,-0.803955078125,0.3980712890625,-293.0,151.0,-151.0,101701.0,-3.130000114440918,0,0
1.1323515999974916,0.368011474609375,-0.450469970703125,0.313201904296875,-0.75067138671875,-0.1220703125,0.0,-0.1220703125,0.4461669921875,-0.8035888671875,0.3975830078125,-293.0,151.0,-151.0,101701.0,-3.130000114440918,0,0
1.1325947000004817,0.368011474609375,-0.450469970703125,0.313201904296875,-0.750640869140625,-0.18310546875,-0.42724609375,0.0,0.445556640625,-0.8018798828125,0.396484375,-293.0,151.0,-151.0,101701.0,-3.130000114440918,0,0
1.1328315999999177,0.368011474609375,-0.450469970703125,0.313201904296875,-0.750640869140625,-0.1220703125,-0.18310546875,-0.244140625,0.447265625,-0.80322265625,0.3984375,-293.0,151.0,-151.0,101701.0,-3.130000114440918,0,0
1.132897999996203,0.368011474609375,-0.450469970703125,0.313201904296875,-0.750640869140625,-0.1220703125,-0.18310546875,-0.244140625,0.447265625,-0.80322265625,0.3984375,-293.0,150.0,-152.0,101701.0,-3.130000114440918,0,0
1.1330260999966413,0.367919921875,-0.450439453125,0.313262939453125,-0.750701904296875,0.06103515625,-0.18310546875,-0.06103515625,0.4473876953125,-0.8031005859375,0.3970947265625,-293.0,150.0,-152.0,101701.0,-3.130000114440918,0,0
1.1330951999989338,0.367919921875,-0.450439453125,0.313262939453125,-0.750701904296875,0.06103515625,-0.18310546875,-0.06103515625,0.4473876953125,-0.8031005859375,0.3970947265625,-293.0,150.0,-152.0,101701.0,-3.130000114440918,0,0
1.1332529000064824,0.367919921875,-0.450439453125,0.313262939453125,-0.750701904296875,0.1220703125,-0.1220703125,-0.18310546875,0.44677734375,-0.803466796875,0.3968505859375,-293.0,150.0,-152.0,101701.0,-3.130000114440918,0,0
1.193604400003096,0.367919921875,-0.450439453125,0.313262939453125,-0.750701904296875,0.30517578125,-0.06103515625,-0.1220703125,0.4471435546875,-0.799072265625,0.3975830078125,-293.0,150.0,-152.0,101701.0,-3.130000114440918,0,0
1.1936691000009887,0.367919921875,-0.450439453125,0.313262939453125,-0.750701904296875,0.0,0.06103515625,0.0,0.4459228515625,-0.8013916015625,0.398681640625,-293.0,150.0,-152.0,101701.0,-3.130000114440918,0,0
1.19372999999905,0.367919921875,-0.450439453125,0.313262939453125,-0.750701904296875,-0.18310546875,-0.18310546875,-0.06103515625,0.4447021484375,-0.80078125,0.396728515625,-293.0,150.0,-152.0,101701.0,-3.130000114440918,0,0
1.1937906999955885,0.367919921875,-0.450439453125,0.313262939453125,-0.750701904296875,0.1220703125,-0.06103515625,0.06103515625,0.4444580078125,-0.8031005859375,0.397216796875,-293.0,150.0,-152.0,101701.0,-3.130000114440918,0,0
1.1938476000068476,0.367919921875,-0.450439453125,0.313262939453125,-0.750701904296875,0.1220703125,-0.06103515625,0.06103515625,0.4444580078125,-0.8031005859375,0.397216796875,-293.0,150.0,-152.0,101701.0,-3.130000114440918,0,0
1.1955714000068838,0.367919921875,-0.450439453125,0.313262939453125,-0.750701904296875,0.1220703125,-0.06103515625,0.06103515625,0.4444580078125,-0.8031005859375,0.397216796875,-293.0,150.0,-152.0,101701.0,-3.130000114440918,0,0
1.195803499998874,0.367919921875,-0.450439453125,0.313262939453125,-0.750701904296875,0.06103515625,-0.06103515625,-0.244140625,0.4453125,-0.80126953125,0.396240234375,-293.0,150.0,-152.0,101701.0,-3.130000114440918,0,0
1.1967275000060908,0.367919921875,-0.450439453125,0.313262939453125,-0.750701904296875,-0.1220703125,-0.30517578125,0.0,0.4482421875,-0.8031005859375,0.3980712890625,-293.0,150.0,-152.0,101701.0,-3.130000114440918,0,0
1.1968119000084698,0.367919921875,-0.450439453125,0.313262939453125,-0.750701904296875,0.0,-0.18310546875,-0.30517578125,0.445068359375,-0.8013916015625,0.39794921875,-293.0,150.0,-152.0,101701.0,-3.130000114440918,0,0
1.1968724000034854,0.367919921875,-0.450439453125,0.313262939453125,-0.750701904296875,-0.06103515625,0.06103515625,-0.30517578125,0.44677734375,-0.7991943359375,0.3975830078125,-293.0,150.0,-152.0,101701.0,-3.130000114440918,0,0
1.196931600003154,0.367919921875,-0.450439453125,0.313262939453125,-0.750701904296875,0.0,-0.06103515625,0.0,0.445556640625,-0.80126953125,0.39892578125,-293.0,150.0,-152.0,101701.0,-3.130000114440918,0,0
1.2553069999994477,0.367919921875,-0.450439453125,0.313262939453125,-0.750701904296875,-0.06103515625,0.0,0.0,0.4459228515625,-0.80224609375,0.3975830078125,-293.0,150.0,-152.0,101701.0,-3.130000114440918,0,0
1.2553784000047017,0.367919921875,-0.450439453125,0.313262939453125,-0.750701904296875,0.06103515625,-0.1220703125,0.1220703125,0.443359375,-0.800537109375,0.3978271484375,-293.0,150.0,-152.0,101701.0,-3.130000114440918,0,0
1.2554404999973485,0.367919921875,-0.450439453125,0.313232421875,-0.750701904296875,0.1220703125,-0.244140625,-0.1220703125,0.447021484375,-0.7996826171875,0.3985595703125,-293.0,150.0,-152.0,101701.0,-3.130000114440918,0,0
1.255501000006916,0.367919921875,-0.450439453125,0.313232421875,-0.750701904296875,-0.244140625,-0.30517578125,-0.1220703125,0.447021484375,-0.801025390625,0.3966064453125,-293.0,150.0,-151.0,101701.0,-3.130000114440918,0,0
1.255561800004216,0.367919921875,-0.450439453125,0.313232421875,-0.750701904296875,-0.244140625,-0.30517578125,-0.1220703125,0.447021484375,-0.801025390625,0.3966064453125,-293.0,150.0,-151.0,101701.0,-3.130000114440918,0,0
1.2556216999946628,0.3677978515625,-0.450408935546875,0.31329345703125,-0.750762939453125,-0.244140625,-0.30517578125,-0.06103515625,0.4468994140625,-0.800048828125,0.3974609375,-293.0,150.0,-151.0,101701.0,-3.130000114440918,0,0
1.2556803000043146,0.3677978515625,-0.450408935546875,0.31329345703125,-0.750762939453125,0.30517578125,0.0,0.18310546875,0.446044921875,-0.801025390625,0.3980712890625,-293.0,150.0,-151.0,101701.0,-3.130000114440918,0,0
1.2562748000054853,0.3677978515625,-0.450408935546875,0.31329345703125,-0.750762939453125,-0.06103515625,-0.1220703125,0.18310546875,0.4464111328125,-0.8009033203125,0.39794921875,-293.0,150.0,-151.0,101701.0,-3.130000114440918,0,0
1.2563412000017706,0.3677978515625,-0.450408935546875,0.31329345703125,-0.750762939453125,0.18310546875,-0.18310546875,-0.1220703125,0.4454345703125,-0.80029296875,0.4007568359375,-293.0,150.0,-151.0,101701.0,-3.130000114440918,0,0
1.2564016999967862,0.3677978515625,-0.450408935546875,0.31329345703125,-0.750762939453125,0.0,0.0,0.0,0.4466552734375,-0.7994384765625,0.3963623046875,-293.0,150.0,-151.0,101701.0,-3.130000114440918,0,0
1.2564589999965392,0.3677978515625,-0.450408935546875,0.31329345703125,-0.750762939453125,-0.244140625,-0.1220703125,-0.18310546875,0.44677734375,-0.8018798828125,0.3975830078125,-293.0,150.0,-151.0,101701.0,-3.130000114440918,0,0
1.256516699999338,0.3677978515625,-0.450408935546875,0.31329345703125,-0.750762939453125,0.06103515625,-0.18310546875,0.0,0.4449462890625,-0.8021240234375,0.3974609375,-293.0,150.0,-151.0,101701.0,-3.130000114440918,0,0
1.2565852999978233,0.3677978515625,-0.450408935546875,0.31329345703125,-0.750762939453125,-0.06103515625,-0.06103515625,-0.30517578125,0.444580078125,-0.7999267578125,0.3970947265625,-293.0,150.0,-151.0,101701.0,-3.130000114440918,0,0
1.3228592000086792,0.3677978515625,-0.450408935546875,0.31329345703125,-0.750762939453125,0.06103515625,0.06103515625,-0.1220703125,0.4443359375,-0.8017578125,0.3966064453125,-293.0,150.0,-151.0,101701.0,-3.130000114440918,0,0
1.3229269000003114,0.3677978515625,-0.450408935546875,0.31329345703125,-0.750762939453125,0.18310546875,-0.1220703125,-0.18310546875,0.443603515625,-0.8001708984375,0.39892578125,-293.0,150.0,-151.0,101701.0,-3.130000114440918,0,0
1.3229847000038717,0.3677978515625,-0.450408935546875,0.31329345703125,-0.750762939453125,-0.1220703125,0.06103515625,-0.06103515625,0.446044921875,-0.8023681640625,0.3973388671875,-293.0,150.0,-151.0,101701.0,-3.130000114440918,0,0
1.3230432999989716,0.3677978515625,-0.450408935546875,0.31329345703125,-0.750762939453125,-0.1220703125,0.06103515625,-0.06103515625,0.446044921875,-0.8023681640625,0.3973388671875,-293.0,150.0,-151.0,101701.0,-3.130000114440918,0,0
1.3230999000079464,0.3677978515625,-0.450408935546875,0.31329345703125,-0.750762939453125,0.18310546875,-0.1220703125,-0.30517578125,0.4442138671875,-0.80078125,0.3966064453125,-293.0,150.0,-151.0,101701.0,-3.130000114440918,0,0
1.32317430000694,0.3677978515625,-0.450408935546875,0.31329345703125,-0.750762939453125,0.18310546875,0.0,-0.1220703125,0.44580078125,-0.801025390625,0.3994140625,-293.0,150.0,-151.0,101701.0,-3.130000114440918,0,0
1.3232318999944255,0.3677978515625,-0.450408935546875,0.31329345703125,-0.750762939453125,-0.18310546875,-0.18310546875,0.0,0.4490966796875,-0.8011474609375,0.398193359375,-293.0,150.0,-151.0,101701.0,-3.130000114440918,0,0
1.3239819000009447,0.3677978515625,-0.450408935546875,0.313262939453125,-0.750762939453125,0.0,0.06103515625,-0.18310546875,0.44677734375,-0.801513671875,0.398193359375,-293.0,150.0,-151.0,101701.0,-3.130000114440918,0,0
1.3240729999961331,0.3677978515625,-0.450408935546875,0.313262939453125,-0.750762939453125,0.0,0.06103515625,-0.18310546875,0.44677734375,-0.801513671875,0.398193359375,-293.0,150.0,-151.0,101701.0,-3.130000114440918,0,0
1.3241374000062933,0.3677978515625,-0.450408935546875,0.313262939453125,-0.750762939453125,0.06103515625,0.0,-0.1220703125,0.4456787109375,-0.80029296875,0.3980712890625,-294.0,151.0,-152.0,101701.0,-3.130000114440918,0,0
1.3241975999990245,0.36767578125,-0.45037841796875,0.313323974609375,-0.750823974609375,-0.06103515625,-0.3662109375,-0.1220703125,0.4466552734375,-0.7996826171875,0.3975830078125,-294.0,151.0,-152.0,101701.0,-3.130000114440918,0,0
1.3837888999987626,0.36767578125,-0.45037841796875,0.313323974609375,-0.750823974609375,-0.06103515625,-0.18310546875,0.0,0.4461669921875,-0.80078125,0.396728515625,-294.0,151.0,-152.0,101701.0,-3.130000114440918,0,0
1.3838581000018166,0.36767578125,-0.45037841796875,0.313323974609375,-0.750823974609375,0.1220703125,0.06103515625,0.0,0.4464111328125,-0.8018798828125,0.3966064453125,-294.0,151.0,-152.0,101701.0,-3.130000114440918,0,0
1.3839200000074925,0.36767578125,-0.45037841796875,0.313323974609375,-0.750823974609375,0.244140625,0.0,-0.1220703125,0.4466552734375,-0.801513671875,0.399169921875,-294.0,151.0,-152.0,101701.0,-3.130000114440918,0,0
1.383977400008007,0.36767578125,-0.45037841796875,0.313323974609375,-0.750823974609375,-0.18310546875,-0.1220703125,-0.1220703125,0.4459228515625,-0.8004150390625,0.3997802734375,-294.0,151.0,-152.0,101701.0,-3.130000114440918,0,0
1.3840344000054756,0.36767578125,-0.45037841796875,0.313323974609375,-0.750823974609375,-0.18310546875,-0.1220703125,-0.1220703125,0.4459228515625,-0.8004150390625,0.3997802734375,-294.0,151.0,-152.0,101701.0,-3.130000114440918,0,0
1.3841857000079472,0.367706298828125,-0.450347900390625,0.313323974609375,-0.7508544921875,0.244140625,0.06103515625,-0.18310546875,0.44580078125,-0.8009033203125,0.4012451171875,-294.0,151.0,-152.0,101701.0,-3.130000114440918,0,0
1.3842892999964533,0.367706298828125,-0.450347900390625,0.313323974609375,-0.7508544921875,0.244140625,0.06103515625,-0.18310546875,0.44580078125,-0.8009033203125,0.4012451171875,-294.0,151.0,-152.0,101701.0,-3.130000114440918,0,0
1.3843543999973917,0.367706298828125,-0.450347900390625,0.31329345703125,-0.7508544921875,0.1220703125,-0.3662109375,0.0,0.4453125,-0.800048828125,0.3995361328125,-294.0,151.0,-152.0,101701.0,-3.130000114440918,0,0
1.3844149000069592,0.36767578125,-0.450347900390625,0.31329345703125,-0.7508544921875,0.0,0.1220703125,0.244140625,0.4464111328125,-0.8009033203125,0.3968505859375,-294.0,151.0,-152.0,101701.0,-3.130000114440918,0,0
1.3844709999975748,0.36767578125,-0.450347900390625,0.31329345703125,-0.7508544921875,0.18310546875,-0.06103515625,-0.1220703125,0.4451904296875,-0.8016357421875,0.395751953125,-294.0,151.0,-152.0,101701.0,-3.130000114440918,0,0
1.3845275000057882,0.36767578125,-0.450347900390625,0.313323974609375,-0.7508544921875,-0.06103515625,-0.18310546875,0.06103515625,0.4447021484375,-0.8018798828125,0.3966064453125,-294.0,151.0,-152.0,101701.0,-3.130000114440918,0,0
1.447068000008585,0.36767578125,-0.450347900390625,0.31329345703125,-0.7508544921875,0.1220703125,-0.18310546875,0.0,0.4461669921875,-0.799072265625,0.3983154296875,-294.0,151.0,-152.0,101701.0,-3.130000114440918,0,0
1.4471325000049546,0.36767578125,-0.450347900390625,0.31329345703125,-0.7508544921875,0.0,-0.3662109375,0.1220703125,0.4456787109375,-0.800048828125,0.3985595703125,-294.0,151.0,-152.0,101701.0,-3.130000114440918,0,0
1.4471871999994619,0.36767578125,-0.450347900390625,0.31329345703125,-0.7508544921875,-0.06103515625,-0.18310546875,-0.1220703125,0.447265625,-0.8013916015625,0.3988037109375,-294.0,151.0,-152.0,101701.0,-3.130000114440918,0,0
1.4472438999946462,0.36767578125,-0.450347900390625,0.31329345703125,-0.7508544921875,-0.06103515625,-0.18310546875,-0.1220703125,0.447265625,-0.8013916015625,0.3988037109375,-294.0,151.0,-152.0,101701.0,-3.130000114440918,0,0
1.4473006000043824,0.367706298828125,-0.450347900390625,0.31329345703125,-0.7508544921875,0.06103515625,-0.06103515625,-0.1220703125,0.445068359375,-0.80029296875,0.400146484375,-294.0,151.0,-152.0,101701.0,-3.130000114440918,0,0
1.4480518000054872,0.367706298828125,-0.450347900390625,0.31329345703125,-0.7508544921875,0.0,-0.42724609375,-0.06103515625,0.4442138671875,-0.8009033203125,0.399169921875,-292.0,152.0,-152.0,101701.0,-3.130000114440918,0,0
1.4481306000088807,0.367706298828125,-0.450347900390625,0.31329345703125,-0.7508544921875,-0.18310546875,-0.1220703125,-0.06103515625,0.4462890625,-0.79931640625,0.399658203125,-292.0,152.0,-152.0,101701.0,-3.130000114440918,0,0
1.448664399998961,0.367584228515625,-0.450286865234375,0.3133544921875,-0.75091552734375,0.06103515625,-0.18310546875,-0.1220703125,0.444091796875,-0.7989501953125,0.402587890625,-292.0,152.0,-152.0,101701.0,-3.130000114440918,0,0
1.448743500004639,0.367584228515625,-0.450286865234375,0.313323974609375,-0.75091552734375,0.18310546875,0.18310546875,-0.18310546875,0.4451904296875,-0.7998046875,0.3992919921875,-292.0,152.0,-152.0,101701.0,-3.130000114440918,0,0
1.4488146000076085,0.36761474609375,-0.450286865234375,0.3133544921875,-0.75091552734375,0.30517578125,0.06103515625,-0.1220703125,0.44482421875,-0.80126953125,0.3990478515625,-292.0,152.0,-152.0,101701.0,-3.130000114440918,0,0
1.448901099996874,0.367584228515625,-0.450286865234375,0.313323974609375,-0.75091552734375,0.06103515625,-0.1220703125,0.0,0.445556640625,-0.7999267578125,0.3975830078125,-292.0,152.0,-152.0,101701.0,-3.130000114440918,0,0
1.448955500003649,0.36761474609375,-0.450286865234375,0.313323974609375,-0.75091552734375,-0.06103515625,0.1220703125,0.0,0.446044921875,-0.7994384765625,0.398193359375,-292.0,152.0,-152.0,101701.0,-3.130000114440918,0,0
1.449007300005178,0.36761474609375,-0.450286865234375,0.313323974609375,-0.75091552734375,-0.06103515625,0.1220703125,0.0,0.446044921875,-0.7994384765625,0.398193359375,-292.0,152.0,-152.0,101701.0,-3.130000114440918,0,0
1.5137751000002027,0.36761474609375,-0.45025634765625,0.313323974609375,-0.75091552734375,-0.06103515625,-0.1220703125,-0.1220703125,0.447509765625,-0.80126953125,0.4000244140625,-292.0,152.0,-152.0,101701.0,-3.130000114440918,0,0
1.5138364000013098,0.36761474609375,-0.45025634765625,0.313323974609375,-0.750946044921875,-0.18310546875,-0.3662109375,-0.06103515625,0.4468994140625,-0.80224609375,0.3995361328125,-292.0,152.0,-152.0,101701.0,-3.130000114440918,0,0
1.5138905000058003,0.36761474609375,-0.45025634765625,0.313323974609375,-0.750946044921875,0.1220703125,0.06103515625,-0.1220703125,0.445556640625,-0.8016357421875,0.39990234375,-292.0,152.0,-152.0,101701.0,-3.130000114440918,0,0
1.5139437000034377,0.36761474609375,-0.45025634765625,0.313323974609375,-0.750946044921875,0.0,0.18310546875,-0.1220703125,0.44580078125,-0.8001708984375,0.3975830078125,-292.0,152.0,-152.0,101701.0,-3.130000114440918,0,0
1.5140007000009064,0.36761474609375,-0.45025634765625,0.313323974609375,-0.750946044921875,0.06103515625,-0.3662109375,-0.1220703125,0.4449462890625,-0.8001708984375,0.398681640625,-292.0,152.0,-152.0,101701.0,-3.130000114440918,0,0
1.5145464000088396,0.36761474609375,-0.45025634765625,0.313323974609375,-0.750946044921875,0.0,-0.1220703125,0.1220703125,0.4481201171875,-0.8011474609375,0.3990478515625,-292.0,152.0,-152.0,101701.0,-3.130000114440918,0,0
1.5146070000046166,0.36761474609375,-0.45025634765625,0.313323974609375,-0.750946044921875,-0.1220703125,-0.244140625,0.06103515625,0.44482421875,-0.80078125,0.3983154296875,-292.0,152.0,-152.0,101701.0,-3.130000114440918,0,0
1.5146623000036925,0.36761474609375,-0.45025634765625,0.313323974609375,-0.750946044921875,-0.1220703125,-0.244140625,0.06103515625,0.44482421875,-0.80078125,0.3983154296875,-292.0,152.0,-152.0,101701.0,-3.130000114440918,0,0
1.5147167999966769,0.36761474609375,-0.45025634765625,0.313323974609375,-0.750946044921875,-0.1220703125,-0.06103515625,0.06103515625,0.4462890625,-0.80078125,0.398681640625,-292.0,152.0,-152.0,101701.0,-3.130000114440918,0,0
1.5147706999996444,0.36761474609375,-0.45025634765625,0.31329345703125,-0.750946044921875,0.06103515625,-0.18310546875,0.1220703125,0.4461669921875,-0.7996826171875,0.39892578125,-292.0,152.0,-152.0,101701.0,-3.130000114440918,0,0
1.5148251000064192,0.36761474609375,-0.45025634765625,0.313323974609375,-0.750946044921875,0.1220703125,0.06103515625,-0.18310546875,0.4434814453125,-0.802734375,0.3978271484375,-292.0,152.0,-152.0,101701.0,-3.130000114440918,0,0
1.5762987000052817,0.36749267578125,-0.4501953125,0.313385009765625,-0.751007080078125,-0.06103515625,-0.06103515625,-0.1220703125,0.44482421875,-0.7999267578125,0.3978271484375,-293.0,152.0,-153.0,101701.0,-3.13100004196167,0,0
1.5763638000062201,0.36749267578125,-0.4501953125,0.313385009765625,-0.751007080078125,0.18310546875,0.18310546875,-0.06103515625,0.4453125,-0.80078125,0.3975830078125,-293.0,152.0,-153.0,101701.0,-3.13100004196167,0,0
1.5764882000075886,0.36749267578125,-0.4501953125,0.313385009765625,-0.751007080078125,0.06103515625,-0.244140625,-0.1220703125,0.44580078125,-0.801513671875,0.3974609375,-293.0,152.0,-153.0,101701.0,-3.13100004196167,0,0
1.5765604000043822,0.36749267578125,-0.4501953125,0.313385009765625,-0.751007080078125,0.06103515625,-0.244140625,-0.1220703125,0.44580078125,-0.801513671875,0.3974609375,-293.0,152.0,-153.0,101701.0,-3.13100004196167,0,0
1.5766165999957593,0.36749267578125,-0.4501953125,0.3133544921875,-0.751007080078125,0.244140625,0.0,0.06103515625,0.4464111328125,-0.8023681640625,0.3985595703125,-293.0,152.0,-153.0,101701.0,-3.13100004196167,0,0
1.5786726000078488,0.36749267578125,-0.4501953125,0.3133544921875,-0.751007080078125,-0.06103515625,-0.3662109375,0.06103515625,0.4464111328125,-0.7989501953125,0.397216796875,-293.0,152.0,-153.0,101701.0,-3.13100004196167,0,0
1.578733899994404,0.36749267578125,-0.4501953125,0.3133544921875,-0.751007080078125,0.244140625,0.18310546875,-0.1220703125,0.4473876953125,-0.8026123046875,0.3995361328125,-293.0,152.0,-153.0,101701.0,-3.13100004196167,0,0
1.5787869000050705,0.36749267578125,-0.4501953125,0.3133544921875,-0.751007080078125,0.1220703125,-0.18310546875,0.0,0.4473876953125,-0.8016357421875,0.402099609375,-293.0,152.0,-153.0,101701.0,-3.13100004196167,0,0
1.5788392999966163,0.36749267578125,-0.4501953125,0.3133544921875,-0.751007080078125,-0.30517578125,-0.06103515625,0.0,0.446533203125,-0.802734375,0.400634765625,-293.0,152.0,-153.0,101701.0,-3.13100004196167,0,0
1.578896100007114,0.36749267578125,-0.4501953125,0.3133544921875,-0.751007080078125,0.1220703125,-0.06103515625,-0.18310546875,0.44384765625,-0.80126953125,0.39892578125,-293.0,152.0,-153.0,101701.0,-3.13100004196167,0,0
1.5789484999986598,0.36749267578125,-0.4501953125,0.3133544921875,-0.751007080078125,-0.06103515625,0.06103515625,-0.1220703125,0.4454345703125,-0.7999267578125,0.3985595703125,-293.0,152.0,-153.0,101701.0,-3.13100004196167,0,0
1.647651200008113,0.36749267578125,-0.4501953125,0.3133544921875,-0.751007080078125,-0.06103515625,-0.06103515625,-0.3662109375,0.4449462890625,-0.800048828125,0.3984375,-293.0,152.0,-153.0,101701.0,-3.13100004196167,0,0
1.647727000003215,0.36749267578125,-0.4501953125,0.3133544921875,-0.751007080078125,0.30517578125,0.0,0.0,0.44580078125,-0.799560546875,0.398193359375,-293.0,152.0,-153.0,101701.0,-3.13100004196167,0,0
1.6477882000035606,0.36749267578125,-0.4501953125,0.3133544921875,-0.751007080078125,0.30517578125,0.0,0.0,0.44580078125,-0.799560546875,0.398193359375,-293.0,152.0,-153.0,101701.0,-3.13100004196167,0,0
1.6478462999948533,0.367523193359375,-0.4501953125,0.3133544921875,-0.751007080078125,0.0,0.1220703125,-0.06103515625,0.4443359375,-0.80224609375,0.3997802734375,-293.0,152.0,-153.0,101701.0,-3.13100004196167,0,0
1.6479042999999365,0.367523193359375,-0.450164794921875,0.3133544921875,-0.751007080078125,-0.18310546875,-0.1220703125,0.06103515625,0.4437255859375,-0.80224609375,0.399169921875,-293.0,152.0,-153.0,101701.0,-3.13100004196167,0,0
1.6479623000050196,0.367523193359375,-0.450164794921875,0.3133544921875,-0.751007080078125,0.06103515625,0.06103515625,0.06103515625,0.44384765625,-0.801025390625,0.39697265625,-293.0,152.0,-153.0,101701.0,-3.13100004196167,0,0
1.6480193000024883,0.367523193359375,-0.450164794921875,0.3133544921875,-0.751007080078125,0.06103515625,-0.18310546875,0.0,0.445556640625,-0.8006591796875,0.3973388671875,-293.0,152.0,-153.0,101701.0,-3.13100004196167,0,0
1.6482166000059806,0.367523193359375,-0.450164794921875,0.3133544921875,-0.751007080078125,0.06103515625,-0.18310546875,0.0,0.445556640625,-0.8006591796875,0.3973388671875,-294.0,151.0,-152.0,101701.0,-3.132000207901001,0,0
1.64828409999609,0.367523193359375,-0.450164794921875,0.3133544921875,-0.751007080078125,0.0,-0.18310546875,0.1220703125,0.445068359375,-0.8018798828125,0.3997802734375,-294.0,151.0,-152.0,101701.0,-3.132000207901001,0,0
1.6483446000056574,0.367523193359375,-0.450164794921875,0.3133544921875,-0.751007080078125,-0.1220703125,-0.18310546875,0.0,0.4459228515625,-0.8011474609375,0.3983154296875,-294.0,151.0,-152.0,101701.0,-3.132000207901001,0,0
1.648403099999996,0.367523193359375,-0.450164794921875,0.3133544921875,-0.751007080078125,-0.1220703125,-0.3662109375,0.06103515625,0.4456787109375,-0.8033447265625,0.3974609375,-294.0,151.0,-152.0,101701.0,-3.132000207901001,0,0
1.648495700006606,0.367523193359375,-0.450164794921875,0.3133544921875,-0.751007080078125,-0.1220703125,-0.3662109375,0.06103515625,0.4456787109375,-0.8033447265625,0.3974609375,-294.0,151.0,-152.0,101701.0,-3.132000207901001,0,0
1.6485582000022987,0.367523193359375,-0.450164794921875,0.3133544921875,-0.751007080078125,0.18310546875,0.0,-0.06103515625,0.443603515625,-0.8016357421875,0.3985595703125,-294.0,151.0,-152.0,101701.0,-3.132000207901001,0,0
1.7146534000057727,0.367523193359375,-0.450164794921875,0.313323974609375,-0.75103759765625,0.244140625,-0.18310546875,-0.244140625,0.4454345703125,-0.8006591796875,0.400146484375,-294.0,151.0,-152.0,101701.0,-3.132000207901001,0,0
1.7147269999986747,0.367523193359375,-0.450164794921875,0.313323974609375,-0.75103759765625,0.1220703125,-0.244140625,-0.06103515625,0.4461669921875,-0.8009033203125,0.3992919921875,-294.0,151.0,-152.0,101701.0,-3.132000207901001,0,0
1.714787000004435,0.367523193359375,-0.450164794921875,0.313323974609375,-0.75103759765625,0.1220703125,0.06103515625,0.0,0.4476318359375,-0.8001708984375,0.3978271484375,-294.0,151.0,-152.0,101701.0,-3.132000207901001,0,0
1.7148448000079952,0.367523193359375,-0.450164794921875,0.313323974609375,-0.75103759765625,0.06103515625,-0.06103515625,-0.30517578125,0.4459228515625,-0.8013916015625,0.400146484375,-294.0,151.0,-152.0,101701.0,-3.132000207901001,0,0
1.714903600004618,0.367523193359375,-0.450164794921875,0.313323974609375,-0.75103759765625,0.18310546875,-0.1220703125,0.1220703125,0.4471435546875,-0.8017578125,0.4007568359375,-294.0,151.0,-152.0,101701.0,-3.132000207901001,0,0
1.7158419000043068,0.367523193359375,-0.450164794921875,0.313323974609375,-0.75103759765625,0.18310546875,-0.1220703125,0.1220703125,0.4471435546875,-0.8017578125,0.4007568359375,-294.0,151.0,-152.0,101701.0,-3.132000207901001,0,0
1.7159094999951776,0.367523193359375,-0.45013427734375,0.313323974609375,-0.75103759765625,-0.1220703125,-0.1220703125,-0.1220703125,0.445068359375,-0.80224609375,0.3992919921875,-294.0,151.0,-152.0,101701.0,-3.132000207901001,0,0
1.7159694000001764,0.367523193359375,-0.45013427734375,0.313323974609375,-0.75103759765625,0.244140625,-0.06103515625,0.06103515625,0.446044921875,-0.803466796875,0.400146484375,-294.0,151.0,-152.0,101701.0,-3.132000207901001,0,0
1.716027300004498,0.367523193359375,-0.45013427734375,0.313323974609375,-0.75103759765625,0.0,-0.3662109375,0.0,0.4444580078125,-0.801513671875,0.40087890625,-294.0,151.0,-152.0,101701.0,-3.132000207901001,0,0
1.7161195000080625,0.367523193359375,-0.45013427734375,0.313323974609375,-0.75103759765625,-0.06103515625,-0.06103515625,-0.06103515625,0.444091796875,-0.8018798828125,0.400634765625,-294.0,151.0,-152.0,101701.0,-3.132000207901001,0,0
1.7161814999999478,0.367523193359375,-0.45013427734375,0.313323974609375,-0.75103759765625,0.06103515625,-0.18310546875,-0.18310546875,0.4461669921875,-0.80029296875,0.3980712890625,-294.0,151.0,-152.0,101701.0,-3.132000207901001,0,0
1.767894000004162,0.367523193359375,-0.450103759765625,0.313323974609375,-0.751068115234375,-0.06103515625,-0.244140625,0.0,0.445556640625,-0.80078125,0.3997802734375,-294.0,150.0,-151.0,101701.0,-3.13100004196167,0,0
1.7679650000063702,0.3675537109375,-0.450103759765625,0.313323974609375,-0.751068115234375,0.1220703125,-0.1220703125,-0.1220703125,0.4434814453125,-0.8031005859375,0.399658203125,-294.0,150.0,-151.0,101701.0,-3.13100004196167,0,0
1.7680258000036702,0.3675537109375,-0.450103759765625,0.313323974609375,-0.751068115234375,0.1220703125,-0.1220703125,-0.1220703125,0.4434814453125,-0.8031005859375,0.399658203125,-294.0,150.0,-151.0,101701.0,-3.13100004196167,0,0
1.7680842999980086,0.3675537109375,-0.450103759765625,0.313323974609375,-0.751068115234375,0.0,-0.1220703125,-0.06103515625,0.447021484375,-0.801025390625,0.40087890625,-294.0,150.0,-151.0,101701.0,-3.13100004196167,0,0
1.7681381000002148,0.3675537109375,-0.450103759765625,0.313323974609375,-0.751068115234375,0.0,-0.18310546875,-0.06103515625,0.4451904296875,-0.800048828125,0.3992919921875,-294.0,150.0,-151.0,101701.0,-3.13100004196167,0,0
1.7691225000016857,0.3675537109375,-0.450103759765625,0.313323974609375,-0.751068115234375,-0.06103515625,-0.30517578125,0.18310546875,0.4459228515625,-0.7998046875,0.3992919921875,-294.0,150.0,-151.0,101701.0,-3.13100004196167,0,0
1.7691837000020314,0.3675537109375,-0.450103759765625,0.313323974609375,-0.751068115234375,0.18310546875,-0.18310546875,-0.06103515625,0.4462890625,-0.8021240234375,0.4000244140625,-294.0,150.0,-151.0,101701.0,-3.13100004196167,0,0
1.769238900000346,0.3675537109375,-0.450103759765625,0.313323974609375,-0.751068115234375,-0.18310546875,-0.1220703125,0.06103515625,0.4444580078125,-0.802001953125,0.3984375,-294.0,150.0,-151.0,101701.0,-3.13100004196167,0,0
1.7692924000002677,0.3675537109375,-0.450103759765625,0.313323974609375,-0.751068115234375,-0.1220703125,-0.18310546875,-0.1220703125,0.4456787109375,-0.8035888671875,0.3995361328125,-294.0,150.0,-151.0,101701.0,-3.13100004196167,0,0
1.7693448000063654,0.3675537109375,-0.450103759765625,0.313323974609375,-0.751068115234375,0.18310546875,0.06103515625,0.06103515625,0.44677734375,-0.8023681640625,0.399169921875,-294.0,150.0,-151.0,101701.0,-3.13100004196167,0,0
1.7693977000017185,0.3675537109375,-0.450103759765625,0.313323974609375,-0.751068115234375,0.06103515625,0.06103515625,0.06103515625,0.447021484375,-0.801025390625,0.3995361328125,-294.0,150.0,-151.0,101701.0,-3.13100004196167,0,0
1.7694500000070548,0.3675537109375,-0.450103759765625,0.313323974609375,-0.751068115234375,0.06103515625,0.06103515625,0.06103515625,0.447021484375,-0.801025390625,0.3995361328125,-294.0,150.0,-151.0,101701.0,-3.13100004196167,0,0
1.8326093000068795,0.3675537109375,-0.4500732421875,0.313323974609375,-0.751068115234375,0.30517578125,-0.1220703125,0.0,0.4453125,-0.8033447265625,0.3978271484375,-294.0,150.0,-151.0,101701.0,-3.13100004196167,0,0
1.8326767999969888,0.3675537109375,-0.4500732421875,0.313323974609375,-0.751068115234375,0.0,-0.1220703125,0.06103515625,0.44677734375,-0.80126953125,0.398681640625,-294.0,150.0,-151.0,101701.0,-3.13100004196167,0,0
1.832731700007571,0.3675537109375,-0.4500732421875,0.31329345703125,-0.751068115234375,0.244140625,0.1220703125,-0.06103515625,0.447265625,-0.802001953125,0.400146484375,-294.0,150.0,-151.0,101701.0,-3.13100004196167,0,0
1.8327871000074083,0.3675537109375,-0.4500732421875,0.313323974609375,-0.751068115234375,-0.06103515625,-0.18310546875,0.0,0.4459228515625,-0.802490234375,0.39892578125,-294.0,150.0,-151.0,101701.0,-3.13100004196167,0,0
1.8328458000032697,0.3675537109375,-0.4500732421875,0.313323974609375,-0.751068115234375,-0.06103515625,-0.18310546875,0.0,0.4459228515625,-0.802490234375,0.39892578125,-294.0,150.0,-151.0,101701.0,-3.13100004196167,0,0
1.8329031000030227,0.3675537109375,-0.4500732421875,0.31329345703125,-0.751068115234375,0.06103515625,0.06103515625,-0.1220703125,0.4453125,-0.8016357421875,0.40087890625,-294.0,150.0,-151.0,101701.0,-3.13100004196167,0,0
1.8342738000064855,0.3675537109375,-0.4500732421875,0.31329345703125,-0.751068115234375,0.18310546875,-0.18310546875,0.06103515625,0.443359375,-0.8001708984375,0.399658203125,-294.0,150.0,-151.0,101701.0,-3.13100004196167,0,0
1.8343305000016699,0.3675537109375,-0.4500732421875,0.313323974609375,-0.751068115234375,0.06103515625,-0.30517578125,-0.18310546875,0.4443359375,-0.801513671875,0.39892578125,-294.0,150.0,-151.0,101701.0,-3.13100004196167,0,0
1.8343842000031145,0.3675537109375,-0.4500732421875,0.31329345703125,-0.751068115234375,0.06103515625,-0.30517578125,-0.18310546875,0.4443359375,-0.801513671875,0.39892578125,-293.0,149.0,-151.0,101701.0,-3.130000114440918,0,0
1.834438100006082,0.3675537109375,-0.4500732421875,0.31329345703125,-0.751068115234375,0.06103515625,-0.30517578125,-0.18310546875,0.4443359375,-0.801513671875,0.39892578125,-293.0,149.0,-151.0,101701.0,-3.130000114440918,0,0
1.834492699999828,0.367462158203125,-0.45001220703125,0.3133544921875,-0.751129150390625,0.1220703125,-0.18310546875,0.18310546875,0.4462890625,-0.7994384765625,0.4019775390625,-293.0,149.0,-151.0,101701.0,-3.130000114440918,0,0
1.8345469000050798,0.367462158203125,-0.45001220703125,0.3133544921875,-0.751129150390625,0.18310546875,-0.18310546875,0.18310546875,0.4462890625,-0.8018798828125,0.3997802734375,-293.0,149.0,-151.0,101701.0,-3.130000114440918,0,0
1.8961253000015859,0.367462158203125,-0.45001220703125,0.3133544921875,-0.751129150390625,0.244140625,-0.18310546875,0.06103515625,0.447021484375,-0.8009033203125,0.4007568359375,-293.0,149.0,-151.0,101701.0,-3.130000114440918,0,0
1.8961893999949098,0.367462158203125,-0.45001220703125,0.3133544921875,-0.751129150390625,-0.06103515625,-0.18310546875,-0.06103515625,0.443603515625,-0.802001953125,0.3988037109375,-293.0,149.0,-151.0,101701.0,-3.130000114440918,0,0
1.896246100004646,0.367462158203125,-0.45001220703125,0.3133544921875,-0.751129150390625,0.30517578125,0.1220703125,-0.06103515625,0.4473876953125,-0.80322265625,0.3983154296875,-293.0,149.0,-151.0,101701.0,-3.130000114440918,0,0
1.8962987999984762,0.367462158203125,-0.45001220703125,0.3133544921875,-0.751129150390625,-0.18310546875,-0.18310546875,0.06103515625,0.4443359375,-0.802001953125,0.3975830078125,-293.0,149.0,-151.0,101701.0,-3.130000114440918,0,0
1.8963536000082968,0.367462158203125,-0.45001220703125,0.3133544921875,-0.751129150390625,-0.18310546875,-0.18310546875,0.06103515625,0.4443359375,-0.802001953125,0.3975830078125,-293.0,149.0,-151.0,101701.0,-3.130000114440918,0,0
1.8965473999996902,0.367462158203125,-0.45001220703125,0.3133544921875,-0.751129150390625,0.18310546875,-0.06103515625,0.0,0.4459228515625,-0.8031005859375,0.3997802734375,-293.0,149.0,-151.0,101701.0,-3.130000114440918,0,0
1.8966078999947058,0.367462158203125,-0.45001220703125,0.3133544921875,-0.751129150390625,-0.18310546875,0.0,-0.06103515625,0.4478759765625,-0.802490234375,0.3985595703125,-293.0,149.0,-151.0,101701.0,-3.130000114440918,0,0
1.8966607000038493,0.367462158203125,-0.45001220703125,0.3133544921875,-0.75115966796875,0.18310546875,0.0,0.1220703125,0.4443359375,-0.8006591796875,0.39990234375,-293.0,149.0,-151.0,101701.0,-3.130000114440918,0,0
1.8967129999946337,0.367462158203125,-0.449981689453125,0.3133544921875,-0.75115966796875,0.0,-0.06103515625,0.0,0.4453125,-0.802978515625,0.40087890625,-293.0,149.0,-151.0,101701.0,-3.130000114440918,0,0
1.8967644000076689,0.36749267578125,-0.449981689453125,0.3133544921875,-0.75115966796875,0.3662109375,0.30517578125,0.06103515625,0.446044921875,-0.802734375,0.3995361328125,-293.0,149.0,-151.0,101701.0,-3.130000114440918,0,0
1.896815100000822,0.36749267578125,-0.449981689453125,0.3133544921875,-0.75115966796875,0.0,-0.18310546875,-0.18310546875,0.44287109375,-0.8017578125,0.3990478515625,-293.0,149.0,-151.0,101701.0,-3.130000114440918,0,0
1.896866900002351,0.36749267578125,-0.449981689453125,0.3133544921875,-0.75115966796875,-0.244140625,-0.18310546875,-0.06103515625,0.44384765625,-0.800048828125,0.3988037109375,-293.0,149.0,-151.0,101701.0,-3.130000114440918,0,0
1.9568788000033237,0.36749267578125,-0.449981689453125,0.3133544921875,-0.75115966796875,-0.06103515625,-0.18310546875,-0.06103515625,0.4454345703125,-0.7996826171875,0.398193359375,-293.0,149.0,-151.0,101701.0,-3.130000114440918,0,0
1.9569498000055319,0.36737060546875,-0.449951171875,0.31341552734375,-0.751190185546875,0.0,0.0,-0.06103515625,0.4481201171875,-0.80078125,0.398681640625,-293.0,150.0,-152.0,101701.0,-3.130000114440918,0,0
1.9570090000052005,0.36737060546875,-0.449951171875,0.31341552734375,-0.751190185546875,0.244140625,0.06103515625,-0.18310546875,0.4464111328125,-0.80224609375,0.3992919921875,-293.0,150.0,-152.0,101701.0,-3.130000114440918,0,0
1.9570676000003004,0.36737060546875,-0.449951171875,0.31341552734375,-0.751190185546875,-0.6103515625,-0.18310546875,-0.18310546875,0.4462890625,-0.8037109375,0.3980712890625,-293.0,150.0,-152.0,101701.0,-3.130000114440918,0,0
1.957255700006499,0.36737060546875,-0.449951171875,0.31341552734375,-0.751190185546875,0.18310546875,-0.3662109375,-0.244140625,0.446044921875,-0.8037109375,0.3994140625,-293.0,150.0,-152.0,101701.0,-3.130000114440918,0,0
1.9573267999949167,0.36737060546875,-0.449951171875,0.31341552734375,-0.751190185546875,-0.48828125,-0.244140625,-0.1220703125,0.4468994140625,-0.8028564453125,0.3997802734375,-293.0,150.0,-152.0,101701.0,-3.130000114440918,0,0
1.957387899994501,0.36737060546875,-0.449951171875,0.31341552734375,-0.751190185546875,0.1220703125,-0.18310546875,0.1220703125,0.4461669921875,-0.8006591796875,0.3988037109375,-293.0,150.0,-152.0,101701.0,-3.130000114440918,0,0
1.957447399996454,0.36737060546875,-0.449951171875,0.31341552734375,-0.751190185546875,0.1220703125,-0.18310546875,-0.1220703125,0.4456787109375,-0.8023681640625,0.399658203125,-293.0,150.0,-152.0,101701.0,-3.130000114440918,0,0
1.9575450999982422,0.36737060546875,-0.449951171875,0.31341552734375,-0.751190185546875,-0.06103515625,0.0,0.0,0.447265625,-0.801513671875,0.3988037109375,-293.0,150.0,-152.0,101701.0,-3.130000114440918,0,0
1.9576096999953734,0.36737060546875,-0.449951171875,0.31341552734375,-0.751190185546875,-0.06103515625,0.0,0.0,0.447265625,-0.801513671875,0.3988037109375,-293.0,150.0,-152.0,101701.0,-3.130000114440918,0,0
1.9576686000073096,0.36737060546875,-0.449951171875,0.31341552734375,-0.751190185546875,-0.06103515625,-0.1220703125,-0.18310546875,0.4451904296875,-0.80029296875,0.39892578125,-293.0,150.0,-152.0,101701.0,-3.130000114440918,0,0
2.0266569999948842,0.36737060546875,-0.449951171875,0.31341552734375,-0.751190185546875,0.1220703125,0.0,-0.18310546875,0.443603515625,-0.801025390625,0.3984375,-293.0,150.0,-152.0,101701.0,-3.130000114440918,0,0
2.026723899994977,0.36737060546875,-0.449951171875,0.31341552734375,-0.751190185546875,-0.06103515625,0.06103515625,-0.1220703125,0.4464111328125,-0.8018798828125,0.3992919921875,-293.0,150.0,-152.0,101701.0,-3.130000114440918,0,0
2.026783000008436,0.36737060546875,-0.449951171875,0.31341552734375,-0.751190185546875,0.06103515625,-0.18310546875,0.1220703125,0.445068359375,-0.801025390625,0.3978271484375,-293.0,150.0,-152.0,101701.0,-3.130000114440918,0,0
2.0268382000067504,0.36737060546875,-0.449951171875,0.31341552734375,-0.751190185546875,0.42724609375,0.06103515625,-0.18310546875,0.4451904296875,-0.800537109375,0.3978271484375,-293.0,150.0,-152.0,101701.0,-3.130000114440918,0,0
2.0268943999981275,0.36737060546875,-0.449951171875,0.31341552734375,-0.751190185546875,0.3662109375,0.18310546875,0.0,0.446044921875,-0.80029296875,0.39794921875,-293.0,150.0,-152.0,101701.0,-3.130000114440918,0,0
2.026949200007948,0.36737060546875,-0.449951171875,0.313385009765625,-0.751190185546875,0.18310546875,-0.06103515625,-0.18310546875,0.4462890625,-0.79931640625,0.3997802734375,-293.0,150.0,-152.0,101701.0,-3.130000114440918,0,0
2.027025899995351,0.36737060546875,-0.449951171875,0.313385009765625,-0.751190185546875,0.06103515625,-0.1220703125,-0.18310546875,0.446044921875,-0.8006591796875,0.3997802734375,-293.0,150.0,-152.0,101701.0,-3.130000114440918,0,0
2.027080300002126,0.36737060546875,-0.449951171875,0.313385009765625,-0.751190185546875,0.1220703125,-0.18310546875,0.0,0.4447021484375,-0.7994384765625,0.396240234375,-293.0,150.0,-152.0,101701.0,-3.130000114440918,0,0
2.0271399000048405,0.36737060546875,-0.449951171875,0.313385009765625,-0.751190185546875,0.1220703125,-0.18310546875,0.0,0.4447021484375,-0.7994384765625,0.396240234375,-293.0,150.0,-152.0,101701.0,-3.130000114440918,0,0
2.0271955000062007,0.36737060546875,-0.449951171875,0.31341552734375,-0.751190185546875,0.42724609375,-0.244140625,0.0,0.4434814453125,-0.8011474609375,0.3985595703125,-293.0,150.0,-152.0,101701.0,-3.130000114440918,0,0
2.0272620000032475,0.36737060546875,-0.449951171875,0.31341552734375,-0.751190185546875,-0.06103515625,-0.244140625,-0.18310546875,0.4464111328125,-0.8018798828125,0.3990478515625,-294.0,150.0,-150.0,101701.0,-3.130000114440918,0,0
2.0273200000083307,0.367462158203125,-0.45001220703125,0.3133544921875,-0.75115966796875,0.1220703125,-0.244140625,0.06103515625,0.447265625,-0.8009033203125,0.3975830078125,-294.0,150.0,-150.0,101701.0,-3.130000114440918,0,0
2.0273760999989463,0.367462158203125,-0.45001220703125,0.3133544921875,-0.75115966796875,0.06103515625,-0.30517578125,-0.18310546875,0.445556640625,-0.8026123046875,0.3980712890625,-294.0,150.0,-150.0,101701.0,-3.130000114440918,0,0
2.088827900006436,0.367462158203125,-0.45001220703125,0.3133544921875,-0.75115966796875,0.18310546875,-0.244140625,0.0,0.4442138671875,-0.8021240234375,0.398193359375,-294.0,150.0,-150.0,101701.0,-3.130000114440918,0,0
2.0888889000052586,0.367462158203125,-0.45001220703125,0.3133544921875,-0.75115966796875,-0.06103515625,0.1220703125,-0.18310546875,0.4473876953125,-0.7998046875,0.3992919921875,-294.0,150.0,-150.0,101701.0,-3.130000114440918,0,0
2.08894539999892,0.367462158203125,-0.449981689453125,0.3133544921875,-0.75115966796875,-0.244140625,-0.18310546875,-0.1220703125,0.4461669921875,-0.80126953125,0.3995361328125,-294.0,150.0,-150.0,101701.0,-3.130000114440918,0,0
2.0890021000086563,0.367462158203125,-0.449981689453125,0.3133544921875,-0.75115966796875,-0.244140625,-0.18310546875,-0.1220703125,0.4461669921875,-0.80126953125,0.3995361328125,-294.0,150.0,-150.0,101701.0,-3.130000114440918,0,0
2.089057999997749,0.367462158203125,-0.449981689453125,0.3133544921875,-0.75115966796875,0.06103515625,0.1220703125,-0.1220703125,0.447509765625,-0.8040771484375,0.3995361328125,-294.0,150.0,-150.0,101701.0,-3.130000114440918,0,0
2.089280800006236,0.367462158203125,-0.449981689453125,0.3133544921875,-0.75115966796875,0.06103515625,0.0,-0.06103515625,0.4449462890625,-0.8031005859375,0.3985595703125,-294.0,150.0,-150.0,101701.0,-3.130000114440918,0,0
2.089333700001589,0.367462158203125,-0.449981689453125,0.3133544921875,-0.75115966796875,0.06103515625,-0.18310546875,0.0,0.4451904296875,-0.8004150390625,0.3978271484375,-294.0,150.0,-150.0,101701.0,-3.130000114440918,0,0
2.089387200001511,0.36749267578125,-0.449981689453125,0.3133544921875,-0.75115966796875,0.1220703125,-0.1220703125,-0.06103515625,0.4442138671875,-0.801513671875,0.398193359375,-294.0,150.0,-150.0,101701.0,-3.130000114440918,0,0
2.089439300005324,0.36749267578125,-0.449981689453125,0.3133544921875,-0.751129150390625,-0.30517578125,-0.06103515625,-0.244140625,0.4447021484375,-0.8026123046875,0.398681640625,-294.0,150.0,-150.0,101701.0,-3.130000114440918,0,0
2.0894915999961086,0.36749267578125,-0.449981689453125,0.3133544921875,-0.751129150390625,-0.06103515625,0.0,-0.244140625,0.4459228515625,-0.8016357421875,0.3992919921875,-294.0,150.0,-150.0,101701.0,-3.130000114440918,0,0
2.0895435999991605,0.36749267578125,-0.449981689453125,0.3133544921875,-0.751129150390625,0.06103515625,-0.06103515625,-0.1220703125,0.4459228515625,-0.8011474609375,0.3980712890625,-294.0,150.0,-150.0,101701.0,-3.130000114440918,0,0
2.089595299999928,0.36749267578125,-0.449981689453125,0.3133544921875,-0.751129150390625,-0.18310546875,-0.1220703125,-0.06103515625,0.4454345703125,-0.8006591796875,0.397216796875,-294.0,150.0,-150.0,101701.0,-3.130000114440918,0,0
2.15083539999614,0.36749267578125,-0.449981689453125,0.3133544921875,-0.751129150390625,0.0,-0.18310546875,0.06103515625,0.443603515625,-0.8013916015625,0.3970947265625,-294.0,150.0,-150.0,101701.0,-3.130000114440918,0,0
2.1508990000002086,0.36749267578125,-0.449981689453125,0.3133544921875,-0.751129150390625,0.244140625,0.18310546875,0.0,0.4459228515625,-0.8001708984375,0.3985595703125,-294.0,150.0,-150.0,101701.0,-3.130000114440918,0,0
2.1509518999955617,0.36749267578125,-0.449981689453125,0.3133544921875,-0.751129150390625,0.1220703125,0.1220703125,-0.1220703125,0.445068359375,-0.802734375,0.3983154296875,-294.0,150.0,-150.0,101701.0,-3.128000259399414,0,0
2.1510052000085125,0.367584228515625,-0.450042724609375,0.31329345703125,-0.7510986328125,0.06103515625,-0.1220703125,0.06103515625,0.44482421875,-0.8035888671875,0.399169921875,-295.0,152.0,-149.0,101701.0,-3.128000259399414,0,0
2.151058600007673,0.367584228515625,-0.450042724609375,0.313323974609375,-0.7510986328125,0.06103515625,0.1220703125,-0.1220703125,0.443603515625,-0.8017578125,0.3983154296875,-295.0,152.0,-149.0,101701.0,-3.128000259399414,0,0
2.151127799996175,0.367584228515625,-0.450042724609375,0.313323974609375,-0.7510986328125,0.18310546875,-0.18310546875,-0.3662109375,0.447021484375,-0.8033447265625,0.3975830078125,-295.0,152.0,-149.0,101701.0,-3.128000259399414,0,0
2.1511796999984654,0.367584228515625,-0.450042724609375,0.313323974609375,-0.751068115234375,-0.30517578125,-0.48828125,-0.06103515625,0.446533203125,-0.802001953125,0.39892578125,-295.0,152.0,-149.0,101701.0,-3.128000259399414,0,0
2.1512318000022788,0.367584228515625,-0.450042724609375,0.313323974609375,-0.7510986328125,0.30517578125,-0.244140625,0.0,0.44482421875,-0.7994384765625,0.39990234375,-295.0,152.0,-149.0,101701.0,-3.128000259399414,0,0
2.1512842000083765,0.367584228515625,-0.450042724609375,0.313323974609375,-0.7510986328125,0.30517578125,-0.244140625,0.0,0.44482421875,-0.7994384765625,0.39990234375,-295.0,152.0,-149.0,101701.0,-3.128000259399414,0,0
2.151336099996115,0.367584228515625,-0.450042724609375,0.31329345703125,-0.7510986328125,0.1220703125,0.0,-0.18310546875,0.4451904296875,-0.80029296875,0.3980712890625,-295.0,152.0,-149.0,101701.0,-3.128000259399414,0,0
2.1513893000083044,0.367584228515625,-0.450042724609375,0.31329345703125,-0.7510986328125,-0.1220703125,-0.244140625,0.0,0.4464111328125,-0.802490234375,0.3984375,-295.0,152.0,-149.0,101701.0,-3.128000259399414,0,0
2.2165640000021085,0.367584228515625,-0.450042724609375,0.31329345703125,-0.7510986328125,-0.18310546875,-0.18310546875,0.0,0.44384765625,-0.8013916015625,0.3985595703125,-295.0,152.0,-149.0,101701.0,-3.128000259399414,0,0
2.216629600006854,0.367584228515625,-0.450042724609375,0.313323974609375,-0.7510986328125,-0.18310546875,-0.18310546875,0.0,0.44384765625,-0.8013916015625,0.3985595703125,-295.0,152.0,-149.0,101701.0,-3.128000259399414,0,0
2.2166863000020385,0.367584228515625,-0.450042724609375,0.313323974609375,-0.7510986328125,-0.18310546875,0.0,-0.06103515625,0.4456787109375,-0.800048828125,0.398193359375,-295.0,152.0,-149.0,101701.0,-3.128000259399414,0,0
2.216740799995023,0.367584228515625,-0.450042724609375,0.313323974609375,-0.7510986328125,-0.18310546875,0.0,-0.06103515625,0.446533203125,-0.8013916015625,0.399169921875,-295.0,152.0,-149.0,101701.0,-3.128000259399414,0,0
2.2167944999964675,0.367584228515625,-0.450042724609375,0.313323974609375,-0.7510986328125,0.30517578125,-0.18310546875,-0.18310546875,0.4454345703125,-0.8004150390625,0.3985595703125,-295.0,152.0,-149.0,101701.0,-3.128000259399414,0,0
2.2168467000010423,0.367584228515625,-0.450042724609375,0.313323974609375,-0.7510986328125,0.18310546875,0.06103515625,0.0,0.444091796875,-0.8028564453125,0.3990478515625,-295.0,152.0,-149.0,101701.0,-3.128000259399414,0,0
2.2169165999948746,0.367584228515625,-0.450042724609375,0.313323974609375,-0.751068115234375,-0.06103515625,-0.18310546875,0.30517578125,0.4453125,-0.8021240234375,0.3978271484375,-295.0,152.0,-149.0,101701.0,-3.128000259399414,0,0
2.2169695000047795,0.367584228515625,-0.450042724609375,0.313323974609375,-0.751068115234375,-0.06103515625,-0.18310546875,0.30517578125,0.4453125,-0.8021240234375,0.3978271484375,-295.0,152.0,-149.0,101701.0,-3.128000259399414,0,0
2.2170236999954795,0.367584228515625,-0.45001220703125,0.313323974609375,-0.751068115234375,0.0,-0.30517578125,-0.1220703125,0.445068359375,-0.8018798828125,0.3984375,-295.0,152.0,-149.0,101701.0,-3.128000259399414,0,0
2.217076000000816,0.367584228515625,-0.45001220703125,0.313323974609375,-0.751068115234375,-0.06103515625,0.06103515625,0.0,0.445556640625,-0.8011474609375,0.397216796875,-295.0,152.0,-149.0,101701.0,-3.128000259399414,0,0
2.217128699994646,0.367584228515625,-0.45001220703125,0.313323974609375,-0.751068115234375,-0.244140625,-0.1220703125,0.06103515625,0.44580078125,-0.8009033203125,0.398193359375,-295.0,152.0,-149.0,101701.0,-3.128000259399414,0,0
2.2171821000083582,0.367584228515625,-0.45001220703125,0.313323974609375,-0.751068115234375,-0.244140625,-0.1220703125,0.06103515625,0.44580078125,-0.8009033203125,0.398193359375,-295.0,152.0,-149.0,101701.0,-3.13100004196167,0,0
2.21723560000828,0.367584228515625,-0.45001220703125,0.313323974609375,-0.751068115234375,0.06103515625,-0.06103515625,-0.1220703125,0.4429931640625,-0.8023681640625,0.399169921875,-295.0,153.0,-150.0,101701.0,-3.13100004196167,0,0
2.283047999997507,0.3677978515625,-0.450103759765625,0.313201904296875,-0.7509765625,0.244140625,0.1220703125,0.0,0.447021484375,-0.801513671875,0.3985595703125,-295.0,153.0,-150.0,101701.0,-3.13100004196167,0,0
2.28310820000479,0.3677978515625,-0.450103759765625,0.313201904296875,-0.7509765625,0.244140625,0.1220703125,0.0,0.447021484375,-0.801513671875,0.3985595703125,-295.0,153.0,-150.0,101701.0,-3.13100004196167,0,0
2.28316239999549,0.3677978515625,-0.450103759765625,0.313201904296875,-0.7509765625,0.0,-0.18310546875,-0.06103515625,0.4471435546875,-0.80126953125,0.396728515625,-295.0,153.0,-150.0,101701.0,-3.13100004196167,0,0
2.2833847000001697,0.3677978515625,-0.450103759765625,0.313201904296875,-0.7509765625,0.06103515625,0.06103515625,-0.30517578125,0.4451904296875,-0.8018798828125,0.3988037109375,-295.0,153.0,-150.0,101701.0,-3.13100004196167,0,0
2.2837794000079157,0.3677978515625,-0.450103759765625,0.313201904296875,-0.7509765625,0.1220703125,-0.1220703125,0.06103515625,0.4456787109375,-0.80078125,0.3992919921875,-295.0,153.0,-150.0,101701.0,-3.13100004196167,0,0
2.283964600006584,0.3677978515625,-0.450103759765625,0.313232421875,-0.7509765625,-0.1220703125,-0.18310546875,-0.18310546875,0.446044921875,-0.8028564453125,0.398193359375,-295.0,153.0,-150.0,101701.0,-3.13100004196167,0,0
2.2840271000022767,0.3677978515625,-0.450103759765625,0.313232421875,-0.7509765625,0.1220703125,-0.244140625,-0.244140625,0.44384765625,-0.802001953125,0.3970947265625,-295.0,153.0,-150.0,101701.0,-3.13100004196167,0,0
2.2840826000028756,0.3677978515625,-0.450103759765625,0.313201904296875,-0.7509765625,-0.06103515625,-0.1220703125,-0.18310546875,0.445068359375,-0.800048828125,0.3975830078125,-295.0,153.0,-150.0,101701.0,-3.13100004196167,0,0
2.2848680000024615,0.3677978515625,-0.450103759765625,0.313232421875,-0.7509765625,-0.48828125,-0.1220703125,0.06103515625,0.4464111328125,-0.801513671875,0.3974609375,-295.0,153.0,-150.0,101701.0,-3.13100004196167,0,0
2.285422600005404,0.3677978515625,-0.450103759765625,0.313232421875,-0.7509765625,0.3662109375,-0.1220703125,-0.06103515625,0.4459228515625,-0.802001953125,0.3984375,-295.0,153.0,-150.0,101701.0,-3.13100004196167,0,0
2.285488000008627,0.3677978515625,-0.450103759765625,0.313232421875,-0.7509765625,-0.244140625,0.0,-0.1220703125,0.4444580078125,-0.802001953125,0.39990234375,-295.0,153.0,-150.0,101701.0,-3.13100004196167,0,0
2.3428426000027684,0.3677978515625,-0.450103759765625,0.313232421875,-0.7509765625,0.18310546875,-0.1220703125,-0.30517578125,0.444091796875,-0.8006591796875,0.3985595703125,-295.0,153.0,-150.0,101701.0,-3.13100004196167,0,0
2.342915000001085,0.3677978515625,-0.450103759765625,0.313232421875,-0.7509765625,-0.06103515625,0.1220703125,-0.06103515625,0.4476318359375,-0.8006591796875,0.3988037109375,-295.0,153.0,-150.0,101701.0,-3.13100004196167,0,0
2.3429762000014307,0.3677978515625,-0.450103759765625,0.313232421875,-0.7509765625,0.0,-0.06103515625,-0.244140625,0.446533203125,-0.7999267578125,0.3970947265625,-295.0,153.0,-150.0,101701.0,-3.13100004196167,0,0
2.343029800002114,0.3677978515625,-0.450103759765625,0.313232421875,-0.7509765625,0.1220703125,-0.18310546875,-0.18310546875,0.4443359375,-0.802001953125,0.3980712890625,-295.0,153.0,-150.0,101701.0,-3.130000114440918,0,0
2.343083800005843,0.3677978515625,-0.450103759765625,0.313232421875,-0.7509765625,0.0,0.0,0.06103515625,0.4456787109375,-0.8026123046875,0.39794921875,-295.0,153.0,-150.0,101701.0,-3.130000114440918,0,0
2.343188900005771,0.36810302734375,-0.450225830078125,0.31304931640625,-0.750823974609375,-0.30517578125,-0.1220703125,0.1220703125,0.4454345703125,-0.8011474609375,0.3995361328125,-294.0,151.0,-149.0,101701.0,-3.130000114440918,0,0
2.343242500006454,0.36810302734375,-0.450225830078125,0.31304931640625,-0.750823974609375,0.3662109375,0.06103515625,0.0,0.44580078125,-0.8021240234375,0.3997802734375,-294.0,151.0,-149.0,101701.0,-3.130000114440918,0,0
2.3432942000072217,0.36810302734375,-0.450225830078125,0.31304931640625,-0.750823974609375,0.3662109375,0.06103515625,0.0,0.44580078125,-0.8021240234375,0.3997802734375,-294.0,151.0,-149.0,101701.0,-3.130000114440918,0,0
2.343349600007059,0.36810302734375,-0.450225830078125,0.31304931640625,-0.750823974609375,0.18310546875,0.0,-0.1220703125,0.443603515625,-0.8016357421875,0.399658203125,-294.0,151.0,-149.0,101701.0,-3.130000114440918,0,0
2.343401999998605,0.36810302734375,-0.450225830078125,0.31304931640625,-0.750823974609375,0.1220703125,0.0,-0.18310546875,0.445068359375,-0.8016357421875,0.39794921875,-294.0,151.0,-149.0,101701.0,-3.130000114440918,0,0
2.343453399997088,0.36810302734375,-0.450225830078125,0.31304931640625,-0.750823974609375,0.244140625,-0.18310546875,0.0,0.4464111328125,-0.80078125,0.3984375,-294.0,151.0,-149.0,101701.0,-3.130000114440918,0,0
2.40716830000747,0.36810302734375,-0.450225830078125,0.31304931640625,-0.750823974609375,0.1220703125,-0.06103515625,0.0,0.4459228515625,-0.802001953125,0.3985595703125,-294.0,151.0,-149.0,101701.0,-3.130000114440918,0,0
2.4072357999975793,0.36810302734375,-0.45025634765625,0.31304931640625,-0.750823974609375,-0.244140625,-0.06103515625,0.0,0.4486083984375,-0.80224609375,0.3988037109375,-294.0,151.0,-149.0,101701.0,-3.130000114440918,0,0
2.4072910999966552,0.36810302734375,-0.45025634765625,0.31304931640625,-0.750823974609375,0.244140625,-0.06103515625,-0.1220703125,0.446044921875,-0.8023681640625,0.3974609375,-294.0,151.0,-149.0,101701.0,-3.130000114440918,0,0
2.407346799998777,0.36810302734375,-0.45025634765625,0.31304931640625,-0.750823974609375,0.0,0.0,-0.06103515625,0.4449462890625,-0.80224609375,0.3970947265625,-294.0,151.0,-149.0,101701.0,-3.130000114440918,0,0
2.4073999999964144,0.36810302734375,-0.45025634765625,0.31304931640625,-0.750823974609375,0.0,-0.06103515625,-0.18310546875,0.444091796875,-0.80126953125,0.3978271484375,-294.0,151.0,-149.0,101701.0,-3.130000114440918,0,0
2.4074525000032736,0.36810302734375,-0.45025634765625,0.31304931640625,-0.750823974609375,0.30517578125,0.0,0.06103515625,0.4454345703125,-0.801025390625,0.39892578125,-294.0,151.0,-149.0,101701.0,-3.130000114440918,0,0
2.4075201000086963,0.36810302734375,-0.45025634765625,0.31304931640625,-0.750823974609375,0.30517578125,0.0,0.06103515625,0.4454345703125,-0.801025390625,0.39892578125,-294.0,151.0,-149.0,101701.0,-3.130000114440918,0,0
2.407573400007095,0.36810302734375,-0.45025634765625,0.31304931640625,-0.750823974609375,0.0,0.0,-0.244140625,0.4451904296875,-0.8017578125,0.3980712890625,-294.0,151.0,-149.0,101701.0,-3.130000114440918,0,0
2.407625599997118,0.36810302734375,-0.45025634765625,0.31304931640625,-0.750823974609375,0.54931640625,0.0,0.0,0.4462890625,-0.8004150390625,0.39794921875,-294.0,151.0,-149.0,101701.0,-3.130000114440918,0,0
2.4076799000031315,0.36810302734375,-0.45025634765625,0.31304931640625,-0.750823974609375,-0.18310546875,-0.06103515625,-0.18310546875,0.4456787109375,-0.7991943359375,0.400146484375,-294.0,151.0,-149.0,101701.0,-3.130000114440918,0,0
2.407732699997723,0.36810302734375,-0.45025634765625,0.313018798828125,-0.750823974609375,-0.06103515625,-0.1220703125,-0.1220703125,0.4483642578125,-0.8016357421875,0.3988037109375,-294.0,151.0,-149.0,101701.0,-3.130000114440918,0,0
2.4077858999953605,0.36810302734375,-0.45025634765625,0.31304931640625,-0.750823974609375,0.244140625,-0.06103515625,0.06103515625,0.4468994140625,-0.8023681640625,0.397216796875,-294.0,151.0,-149.0,101701.0,-3.130000114440918,0,0
2.4078388000052655,0.36810302734375,-0.45025634765625,0.31304931640625,-0.750823974609375,0.18310546875,-0.1220703125,0.18310546875,0.444580078125,-0.801513671875,0.39697265625,-294.0,151.0,-149.0,101701.0,-3.130000114440918,0,0
2.4699987000058172,0.368408203125,-0.45037841796875,0.3128662109375,-0.75067138671875,0.0,0.06103515625,0.1220703125,0.4434814453125,-0.802001953125,0.39990234375,-294.0,150.0,-148.0,101701.0,-3.130000114440918,0,0
2.4700697000080254,0.368408203125,-0.45037841796875,0.3128662109375,-0.75067138671875,-0.06103515625,-0.06103515625,0.1220703125,0.445556640625,-0.8006591796875,0.399658203125,-294.0,150.0,-148.0,101701.0,-3.130000114440918,0,0
2.47020579999662,0.368408203125,-0.45037841796875,0.3128662109375,-0.75067138671875,-0.30517578125,-0.30517578125,0.1220703125,0.4459228515625,-0.8017578125,0.3990478515625,-294.0,150.0,-148.0,101701.0,-3.130000114440918,0,0
2.4703682999970624,0.368408203125,-0.45037841796875,0.3128662109375,-0.75067138671875,0.1220703125,0.0,0.06103515625,0.4442138671875,-0.8023681640625,0.398681640625,-294.0,150.0,-148.0,101701.0,-3.130000114440918,0,0
2.470424600003753,0.368408203125,-0.45037841796875,0.3128662109375,-0.75067138671875,0.1220703125,0.1220703125,-0.244140625,0.4442138671875,-0.801025390625,0.39599609375,-294.0,150.0,-148.0,101701.0,-3.130000114440918,0,0
2.470480400006636,0.368408203125,-0.45037841796875,0.3128662109375,-0.75067138671875,-0.1220703125,-0.42724609375,-0.3662109375,0.446533203125,-0.802490234375,0.398681640625,-294.0,150.0,-148.0,101701.0,-3.130000114440918,0,0
2.470601399996667,0.368408203125,-0.45037841796875,0.3128662109375,-0.75067138671875,0.244140625,0.0,-0.06103515625,0.4434814453125,-0.8023681640625,0.398681640625,-294.0,150.0,-148.0,101701.0,-3.130000114440918,0,0
2.470741099998122,0.368408203125,-0.45037841796875,0.3128662109375,-0.75067138671875,0.1220703125,-0.18310546875,0.18310546875,0.447021484375,-0.80078125,0.3980712890625,-294.0,150.0,-148.0,101701.0,-3.130000114440918,0,0
2.470854600003804,0.368408203125,-0.45037841796875,0.3128662109375,-0.75067138671875,0.1220703125,-0.18310546875,0.18310546875,0.447021484375,-0.80078125,0.3980712890625,-294.0,150.0,-148.0,101701.0,-3.130000114440918,0,0
2.533183299994562,0.368408203125,-0.45037841796875,0.3128662109375,-0.75067138671875,0.1220703125,-0.244140625,0.06103515625,0.4459228515625,-0.8038330078125,0.3970947265625,-294.0,150.0,-148.0,101701.0,-3.130000114440918,0,0
2.533253000001423,0.368408203125,-0.45037841796875,0.3128662109375,-0.75067138671875,0.244140625,-0.06103515625,-0.18310546875,0.4443359375,-0.7998046875,0.400146484375,-294.0,150.0,-148.0,101701.0,-3.130000114440918,0,0
2.5333104000019375,0.368408203125,-0.45037841796875,0.3128662109375,-0.75067138671875,0.06103515625,-0.244140625,-0.1220703125,0.44677734375,-0.8031005859375,0.4002685546875,-294.0,150.0,-148.0,101701.0,-3.130000114440918,0,0
2.5333667999948375,0.368408203125,-0.45037841796875,0.3128662109375,-0.75067138671875,-0.06103515625,-0.1220703125,-0.1220703125,0.446533203125,-0.802734375,0.39794921875,-294.0,150.0,-148.0,101701.0,-3.130000114440918,0,0
2.533423800006858,0.368408203125,-0.45037841796875,0.3128662109375,-0.75067138671875,0.18310546875,-0.244140625,0.0,0.4449462890625,-0.80078125,0.39794921875,-294.0,150.0,-148.0,101701.0,-3.130000114440918,0,0
2.5337306000001263,0.368408203125,-0.45037841796875,0.3128662109375,-0.75067138671875,-0.3662109375,0.0,0.06103515625,0.4449462890625,-0.8017578125,0.3974609375,-294.0,150.0,-148.0,101701.0,-3.128000259399414,0,0
2.5337933999981033,0.368408203125,-0.45037841796875,0.3128662109375,-0.75067138671875,-0.3662109375,0.0,0.06103515625,0.4449462890625,-0.8017578125,0.3974609375,-294.0,150.0,-148.0,101701.0,-3.128000259399414,0,0
2.5338521000085166,0.368499755859375,-0.450408935546875,0.31280517578125,-0.7506103515625,0.1220703125,0.06103515625,-0.244140625,0.4453125,-0.799560546875,0.399169921875,-294.0,149.0,-149.0,101701.0,-3.128000259399414,0,0
2.533905500007677,0.368499755859375,-0.450408935546875,0.31280517578125,-0.7506103515625,0.3662109375,-0.06103515625,0.06103515625,0.445556640625,-0.800537109375,0.3995361328125,-294.0,149.0,-149.0,101701.0,-3.128000259399414,0,0
2.5339578999992227,0.368499755859375,-0.450408935546875,0.31280517578125,-0.7506103515625,-0.1220703125,0.06103515625,-0.244140625,0.4437255859375,-0.8004150390625,0.3992919921875,-294.0,149.0,-149.0,101701.0,-3.128000259399414,0,0
2.5340095999999903,0.368499755859375,-0.450408935546875,0.31280517578125,-0.7506103515625,-0.1220703125,0.06103515625,-0.244140625,0.4437255859375,-0.8004150390625,0.3992919921875,-294.0,149.0,-149.0,101701.0,-3.128000259399414,0,0
2.6007712999999058,0.3685302734375,-0.450408935546875,0.31280517578125,-0.7506103515625,0.1220703125,-0.18310546875,-0.1220703125,0.444091796875,-0.8016357421875,0.3984375,-294.0,149.0,-149.0,101701.0,-3.128000259399414,0,0
2.600839699996868,0.3685302734375,-0.450408935546875,0.31280517578125,-0.7506103515625,0.06103515625,0.0,-0.06103515625,0.44384765625,-0.802978515625,0.3988037109375,-294.0,149.0,-149.0,101701.0,-3.128000259399414,0,0
2.6008962000050815,0.3685302734375,-0.45037841796875,0.31280517578125,-0.7506103515625,-0.06103515625,0.1220703125,-0.244140625,0.4443359375,-0.8011474609375,0.400634765625,-294.0,149.0,-149.0,101701.0,-3.128000259399414,0,0
2.60095249999722,0.3685302734375,-0.45037841796875,0.31280517578125,-0.7506103515625,0.18310546875,-0.18310546875,0.0,0.4453125,-0.80419921875,0.3990478515625,-294.0,149.0,-149.0,101701.0,-3.128000259399414,0,0
2.601007999997819,0.3685302734375,-0.45037841796875,0.31280517578125,-0.7506103515625,0.0,-0.18310546875,0.06103515625,0.4464111328125,-0.8016357421875,0.4007568359375,-294.0,149.0,-149.0,101701.0,-3.128000259399414,0,0
2.601062500005355,0.3685302734375,-0.45037841796875,0.31280517578125,-0.7506103515625,0.0,-0.18310546875,0.06103515625,0.4464111328125,-0.8016357421875,0.4007568359375,-294.0,149.0,-149.0,101701.0,-3.128000259399414,0,0
2.6012779000011506,0.3685302734375,-0.45037841796875,0.31280517578125,-0.750640869140625,0.0,0.06103515625,-0.06103515625,0.446044921875,-0.80224609375,0.400146484375,-294.0,149.0,-149.0,101701.0,-3.128000259399414,0,0
2.6015038000041386,0.3685302734375,-0.45037841796875,0.31280517578125,-0.750640869140625,0.1220703125,-0.18310546875,-0.06103515625,0.4429931640625,-0.8016357421875,0.4002685546875,-294.0,149.0,-149.0,101701.0,-3.128000259399414,0,0
2.6015578000078676,0.3685302734375,-0.45037841796875,0.31280517578125,-0.750640869140625,0.18310546875,0.30517578125,0.06103515625,0.4486083984375,-0.802001953125,0.4007568359375,-294.0,149.0,-149.0,101701.0,-3.128000259399414,0,0
2.6016095999948448,0.3685302734375,-0.45037841796875,0.31280517578125,-0.750640869140625,0.18310546875,-0.06103515625,-0.06103515625,0.4451904296875,-0.802001953125,0.3984375,-294.0,149.0,-149.0,101701.0,-3.128000259399414,0,0
2.6017330000031507,0.3685302734375,-0.45037841796875,0.31280517578125,-0.750640869140625,-0.06103515625,-0.06103515625,-0.18310546875,0.4466552734375,-0.8004150390625,0.3990478515625,-294.0,149.0,-149.0,101701.0,-3.128000259399414,0,0
2.601788200001465,0.3685302734375,-0.45037841796875,0.31280517578125,-0.750640869140625,0.0,0.1220703125,-0.1220703125,0.4453125,-0.8009033203125,0.3978271484375,-294.0,149.0,-149.0,101701.0,-3.128000259399414,0,0
2.60184040000604,0.3685302734375,-0.45037841796875,0.31280517578125,-0.750640869140625,-0.30517578125,-0.1220703125,0.0,0.44580078125,-0.8013916015625,0.3980712890625,-294.0,149.0,-149.0,101701.0,-3.128000259399414,0,0
2.6659191000071587,0.3685302734375,-0.45037841796875,0.31280517578125,-0.750640869140625,0.1220703125,-0.18310546875,-0.18310546875,0.4454345703125,-0.80126953125,0.3985595703125,-294.0,149.0,-149.0,101701.0,-3.128000259399414,0,0
2.6659868999995524,0.3685302734375,-0.45037841796875,0.31280517578125,-0.750640869140625,0.1220703125,0.0,0.244140625,0.4456787109375,-0.80322265625,0.3974609375,-294.0,149.0,-149.0,101701.0,-3.128000259399414,0,0
2.6660424000001512,0.368621826171875,-0.450408935546875,0.312744140625,-0.750579833984375,0.244140625,-0.1220703125,-0.30517578125,0.4442138671875,-0.801025390625,0.3975830078125,-294.0,149.0,-149.0,101701.0,-3.128000259399414,0,0
2.666097699999227,0.368621826171875,-0.450408935546875,0.312744140625,-0.750579833984375,-0.18310546875,-0.18310546875,0.1220703125,0.4453125,-0.8031005859375,0.39697265625,-294.0,149.0,-149.0,101701.0,-3.128000259399414,0,0
2.6661512999999104,0.368621826171875,-0.450408935546875,0.312744140625,-0.750579833984375,0.244140625,-0.06103515625,0.30517578125,0.4461669921875,-0.8016357421875,0.4000244140625,-294.0,149.0,-149.0,101701.0,-3.128000259399414,0,0
2.667304000002332,0.368621826171875,-0.450408935546875,0.312744140625,-0.750579833984375,-0.1220703125,-0.1220703125,0.0,0.4456787109375,-0.802734375,0.400146484375,-294.0,149.0,-149.0,101701.0,-3.128000259399414,0,0
2.667362799998955,0.368621826171875,-0.450408935546875,0.312744140625,-0.750579833984375,0.30517578125,-0.244140625,0.0,0.44677734375,-0.80224609375,0.3995361328125,-294.0,149.0,-149.0,101701.0,-3.128000259399414,0,0
2.667417300006491,0.368621826171875,-0.450408935546875,0.312744140625,-0.750579833984375,0.18310546875,-0.1220703125,-0.244140625,0.4443359375,-0.80029296875,0.4002685546875,-294.0,149.0,-149.0,101701.0,-3.128000259399414,0,0
2.667469699998037,0.368621826171875,-0.450408935546875,0.312744140625,-0.750579833984375,0.06103515625,-0.1220703125,-0.06103515625,0.4456787109375,-0.801513671875,0.399169921875,-294.0,149.0,-149.0,101701.0,-3.128000259399414,0,0
2.6675236000010045,0.368621826171875,-0.450408935546875,0.312744140625,-0.750579833984375,0.06103515625,-0.1220703125,-0.06103515625,0.4456787109375,-0.801513671875,0.399169921875,-294.0,149.0,-149.0,101701.0,-3.128000259399414,0,0
2.6675845999998273,0.368621826171875,-0.450408935546875,0.312744140625,-0.750579833984375,0.06103515625,-0.1220703125,0.0,0.446044921875,-0.80126953125,0.3988037109375,-294.0,149.0,-149.0,101701.0,-3.130000114440918,0,0
