Time stamp(sec),quaternion_0,quaternion_1,quaternion_2,quaternion_3,roll_angular_rate,pitch_angular_rate,yaw_angular_rate,acc_X,acc_Y,acc_Z,mag_X,mag_Y,mag_Z,pressure,altitude
75.638996,-0.659912109375,0.37384033203125,0.19134521484375,0.622955322265625,-225.830078125,102.47802734375,-169.86083984375,1.388427734375,0.0673828125,2.1375732421875,-101.0,35.0,-6.0,101299.0,0.2160000056028366,0,0
75.645996,-0.653564453125,0.369903564453125,0.18634033203125,0.633453369140625,-140.5029296875,242.3095703125,-279.35791015625,1.791259765625,0.8504638671875,0.6058349609375,-101.0,35.0,-6.0,101299.0,0.2160000056028366,0,0
75.652028,-0.653564453125,0.369903564453125,0.18634033203125,0.633453369140625,-140.5029296875,242.3095703125,-279.35791015625,1.791259765625,0.8504638671875,0.6058349609375,-101.0,35.0,-6.0,101299.0,0.2160000056028366,0,0
75.658997,-0.640869140625,0.3271484375,0.14483642578125,0.67913818359375,-93.8720703125,788.39111328125,-86.48681640625,0.5970458984375,-1.8944091796875,1.836669921875,-141.0,56.0,-66.0,101299.0,0.2160000056028366,0,0
75.665997,-0.64599609375,0.30987548828125,0.118682861328125,0.687408447265625,-177.79541015625,915.71044921875,121.337890625,0.6846923828125,-2.34521484375,0.8670654296875,-141.0,56.0,-66.0,101299.0,0.2160000056028366,0,0
75.672996,-0.649993896484375,0.2342529296875,0.058685302734375,0.72052001953125,-0.79345703125,1028.9306640625,62.56103515625,1.03271484375,0.862060546875,0.5704345703125,-141.0,56.0,-66.0,101299.0,0.2160000056028366,0,0
75.679997,-0.646087646484375,0.2115478515625,0.04571533203125,0.731903076171875,109.19189453125,780.57861328125,-243.71337890625,-0.439453125,-0.416015625,-2.3751220703125,-141.0,56.0,-66.0,101299.0,0.2160000056028366,0,0
75.686994,-0.6378173828125,0.17779541015625,0.015228271484375,0.74920654296875,15.44189453125,728.759765625,-218.994140625,-0.1876220703125,-0.528564453125,-3.265380859375,-141.0,56.0,-66.0,101299.0,0.2160000056028366,0,0
75.693995,-0.627593994140625,0.16424560546875,0.000579833984375,0.760986328125,-118.22509765625,216.4306640625,-192.32177734375,0.703125,0.41357421875,-3.9927978515625,-141.0,56.0,-66.0,101299.0,0.2160000056028366,0,0
75.700995,-0.619659423828125,0.1617431640625,-0.007232666015625,0.767974853515625,-162.65869140625,227.96630859375,-261.41357421875,0.5452880859375,0.939208984375,-3.1583251953125,-141.0,56.0,-66.0,101299.0,0.2160000056028366,0,0
75.721996,-0.571746826171875,0.06292724609375,-0.09088134765625,0.812896728515625,26.3671875,1401.9775390625,-291.93115234375,1.04541015625,-0.03857421875,3.6395263671875,-141.0,56.0,-66.0,101297.0,0.22700001299381256,0,0
75.728996,-0.56671142578125,0.02960205078125,-0.112640380859375,0.81561279296875,-16.845703125,516.2353515625,18.24951171875,1.352783203125,-1.1297607421875,-2.395751953125,-141.0,56.0,-66.0,101297.0,0.22700001299381256,0,0
75.735996,-0.563201904296875,0.00537109375,-0.1177978515625,0.817840576171875,208.80126953125,339.78271484375,-52.978515625,0.8460693359375,0.907958984375,-0.594970703125,-141.0,56.0,-66.0,101297.0,0.22700001299381256,0,0
75.742028,-0.563201904296875,0.00537109375,-0.1177978515625,0.817840576171875,208.80126953125,339.78271484375,-52.978515625,0.8460693359375,0.907958984375,-0.594970703125,-141.0,56.0,-66.0,101297.0,0.22700001299381256,0,0
75.748997,-0.55169677734375,-0.067413330078125,-0.1422119140625,0.81903076171875,5.55419921875,782.3486328125,122.13134765625,1.079833984375,-2.4150390625,-0.078857421875,-141.0,56.0,-66.0,101297.0,0.22700001299381256,0,0
75.755997,-0.55419921875,-0.0916748046875,-0.144500732421875,0.8145751953125,118.71337890625,115.478515625,167.8466796875,0.666748046875,-0.5638427734375,-3.54443359375,-183.0,64.0,-119.0,101297.0,0.22700001299381256,0,0
75.762996,-0.542724609375,-0.0789794921875,-0.112396240234375,0.82855224609375,234.7412109375,-315.24658203125,7.8125,0.5535888671875,2.00390625,-3.9927978515625,-183.0,64.0,-119.0,101297.0,0.22700001299381256,0,0
75.769997,-0.54217529296875,-0.0645751953125,-0.09344482421875,0.83251953125,240.6005859375,-643.5546875,-78.369140625,0.42626953125,1.427978515625,1.1708984375,-183.0,64.0,-119.0,101297.0,0.22700001299381256,0,0
75.776994,-0.544281005859375,-0.042022705078125,-0.064727783203125,0.8353271484375,227.6611328125,-419.0673828125,24.90234375,0.3736572265625,-0.8260498046875,1.9986572265625,-183.0,64.0,-119.0,101297.0,0.22700001299381256,0,0
75.783995,-0.548553466796875,-0.020660400390625,-0.035247802734375,0.8350830078125,164.12353515625,-489.2578125,54.443359375,0.2064208984375,0.6885986328125,1.6109619140625,-183.0,64.0,-119.0,101297.0,0.22700001299381256,0,0
75.790995,-0.55230712890625,-0.00775146484375,-0.0203857421875,0.83331298828125,158.87451171875,-541.748046875,114.56298828125,0.1119384765625,-0.52099609375,1.51171875,-183.0,64.0,-119.0,101297.0,0.22700001299381256,0,0
75.797998,-0.5560302734375,0.024261474609375,0.02301025390625,0.830474853515625,176.08642578125,-443.54248046875,30.82275390625,0.3192138671875,0.5836181640625,1.91162109375,-183.0,64.0,-119.0,101297.0,0.22700001299381256,0,0
75.804998,-0.553314208984375,0.0341796875,0.03839111328125,0.83135986328125,205.87158203125,-483.154296875,-82.94677734375,0.46337890625,1.2999267578125,2.167236328125,-183.0,64.0,-119.0,101297.0,0.22700001299381256,0,0
75.811996,-0.546966552734375,0.0552978515625,0.06939697265625,0.832427978515625,130.79833984375,-408.38623046875,-26.123046875,0.6051025390625,-0.7230224609375,3.134521484375,-183.0,64.0,-119.0,101297.0,0.22700001299381256,0,0
75.818996,-0.5439453125,0.059173583984375,0.076934814453125,0.833465576171875,128.11279296875,-280.45654296875,-74.70703125,1.2554931640625,-0.17578125,2.8863525390625,-183.0,64.0,-119.0,101297.0,0.22600001096725464,0,0
75.825995,-0.541259765625,0.059967041015625,0.084014892578125,0.83447265625,150.146484375,-132.6904296875,-89.9658203125,1.6043701171875,-0.2239990234375,3.4652099609375,-183.0,64.0,-119.0,101297.0,0.22600001096725464,0,0
75.832996,-0.534149169921875,0.061004638671875,0.096923828125,0.837554931640625,136.474609375,-76.5380859375,-76.5380859375,1.74072265625,-0.24365234375,3.5810546875,-183.0,64.0,-119.0,101297.0,0.22600001096725464,0,0
75.839027,-0.534149169921875,0.061004638671875,0.096923828125,0.837554931640625,136.474609375,-76.5380859375,-76.5380859375,1.74072265625,-0.24365234375,3.5810546875,-183.0,64.0,-119.0,101297.0,0.22600001096725464,0,0
75.845997,-0.528717041015625,0.066802978515625,0.102447509765625,0.83990478515625,-2.74658203125,-138.3056640625,-71.10595703125,2.0162353515625,-0.5040283203125,2.4329833984375,-183.0,64.0,-119.0,101297.0,0.22600001096725464,0,0
75.852996,-0.51983642578125,0.09088134765625,0.118621826171875,0.841064453125,23.4375,-208.31298828125,-61.6455078125,1.9556884765625,-0.375,2.232421875,-183.0,64.0,-119.0,101297.0,0.22600001096725464,0,0
75.859996,-0.496734619140625,0.107940673828125,0.122955322265625,0.852294921875,-61.1572265625,-459.16748046875,-66.83349609375,1.9017333984375,-0.353271484375,1.3948974609375,-190.0,68.0,-185.0,101297.0,0.22600001096725464,0,0
75.866995,-0.49212646484375,0.1253662109375,0.131744384765625,0.851287841796875,-44.00634765625,-570.1904296875,-64.697265625,1.924560546875,-0.473876953125,1.3758544921875,-190.0,68.0,-185.0,101297.0,0.22600001096725464,0,0
75.873994,-0.47076416015625,0.192291259765625,0.174652099609375,0.843109130859375,-15.93017578125,-697.3876953125,-85.87646484375,2.0059814453125,0.031982421875,1.286376953125,-190.0,68.0,-185.0,101297.0,0.22600001096725464,0,0
75.894998,-0.429290771484375,0.2435302734375,0.220458984375,0.841278076171875,43.0908203125,19.8974609375,-209.228515625,1.6453857421875,0.60107421875,2.980224609375,-190.0,68.0,-185.0,101297.0,0.22600001096725464,0,0
75.901996,-0.423126220703125,0.223663330078125,0.21746826171875,0.85064697265625,-25.69580078125,175.84228515625,-180.96923828125,1.9454345703125,-1.0030517578125,1.0328369140625,-190.0,68.0,-185.0,101297.0,0.22600001096725464,0,0
75.908997,-0.423004150390625,0.203216552734375,0.2171630859375,0.85589599609375,207.1533203125,534.72900390625,-192.0166015625,1.220458984375,-0.26806640625,2.35888671875,-190.0,68.0,-185.0,101297.0,0.22600001096725464,0,0
75.915997,-0.434326171875,0.1573486328125,0.202056884765625,0.863555908203125,48.828125,765.44189453125,107.84912109375,0.5750732421875,-3.71240234375,1.056396484375,-190.0,68.0,-185.0,101296.0,0.24000000953674316,0,0
75.923001,-0.456756591796875,0.107208251953125,0.1756591796875,0.865447998046875,14.2822265625,864.80712890625,232.23876953125,0.2408447265625,-1.6251220703125,1.1126708984375,-190.0,68.0,-185.0,101296.0,0.24000000953674316,0,0
75.929033,-0.456756591796875,0.107208251953125,0.1756591796875,0.865447998046875,14.2822265625,864.80712890625,232.23876953125,0.2408447265625,-1.6251220703125,1.1126708984375,-190.0,68.0,-185.0,101296.0,0.24000000953674316,0,0
75.935997,-0.455810546875,0.0169677734375,0.138519287109375,0.8790283203125,-5.79833984375,981.62841796875,-170.10498046875,-0.3687744140625,0.18798828125,-0.7412109375,-190.0,68.0,-185.0,101296.0,0.24000000953674316,0,0
75.942997,-0.45648193359375,-0.020904541015625,0.12646484375,0.88043212890625,141.6015625,633.9111328125,-142.02880859375,-0.5330810546875,-0.930419921875,-3.5880126953125,-190.0,68.0,-185.0,101296.0,0.24000000953674316,0,0
75.95,-0.45513916015625,-0.0301513671875,0.123016357421875,0.88134765625,31.8603515625,273.4375,-81.11572265625,0.084716796875,0.3834228515625,-3.9927978515625,-190.0,68.0,-185.0,101296.0,0.24000000953674316,0,0
75.957,-0.454498291015625,-0.04876708984375,0.117218017578125,0.881622314453125,37.353515625,227.1728515625,-86.36474609375,0.244873046875,1.441162109375,-3.2110595703125,-205.0,67.0,-239.0,101296.0,0.24000000953674316,0,0
75.963995,-0.466064453125,-0.08929443359375,0.10113525390625,0.874359130859375,215.576171875,488.95263671875,-159.7900390625,-0.2059326171875,1.2926025390625,1.6248779296875,-205.0,67.0,-239.0,101296.0,0.24000000953674316,0,0
75.984998,-0.462310791015625,-0.196563720703125,0.0447998046875,0.86346435546875,2.8076171875,362.48779296875,14.22119140625,0.6346435546875,0.642333984375,-0.63720703125,-205.0,67.0,-239.0,101296.0,0.24000000953674316,0,0
75.991997,-0.453643798828125,-0.23968505859375,0.030670166015625,0.857757568359375,183.77685546875,765.380859375,-196.044921875,-0.06884765625,0.923828125,3.5704345703125,-205.0,67.0,-239.0,101296.0,0.24000000953674316,0,0
75.998996,-0.45416259765625,-0.27197265625,-0.000274658203125,0.848358154296875,-152.89306640625,776.85546875,-36.92626953125,1.053466796875,-0.61328125,-0.1876220703125,-205.0,67.0,-239.0,101296.0,0.24000000953674316,0,0
76.005996,-0.45404052734375,-0.274688720703125,-0.0103759765625,0.84747314453125,-209.1064453125,204.77294921875,-70.73974609375,0.9549560546875,-0.0220947265625,-3.9927978515625,-205.0,67.0,-239.0,101296.0,0.24000000953674316,0,0
76.012996,-0.444793701171875,-0.242462158203125,0.010040283203125,0.862091064453125,120.9716796875,-699.8291015625,-163.57421875,0.3690185546875,1.048583984375,-0.6800537109375,-205.0,67.0,-239.0,101296.0,0.24000000953674316,0,0
76.019995,-0.44158935546875,-0.21038818359375,0.027679443359375,0.871734619140625,45.95947265625,-614.80712890625,-30.029296875,0.603515625,-2.17236328125,2.7659912109375,-205.0,67.0,-239.0,101295.0,0.242000013589859,0,0
76.026022,-0.44158935546875,-0.21038818359375,0.027679443359375,0.871734619140625,45.95947265625,-614.80712890625,-30.029296875,0.603515625,-2.17236328125,2.7659912109375,-205.0,67.0,-239.0,101295.0,0.242000013589859,0,0
76.032995,-0.443695068359375,-0.166961669921875,0.045257568359375,0.879302978515625,-36.4990234375,-550.23193359375,105.40771484375,-0.27880859375,-0.060302734375,1.2513427734375,-205.0,67.0,-239.0,101295.0,0.242000013589859,0,0
76.039997,-0.444122314453125,-0.13134765625,0.05987548828125,0.884246826171875,-92.6513671875,-575.5615234375,31.3720703125,0.162841796875,0.10986328125,1.0859375,-205.0,67.0,-239.0,101295.0,0.242000013589859,0,0
76.046995,-0.441650390625,-0.112762451171875,0.06622314453125,0.8875732421875,-72.265625,-568.05419921875,-49.86572265625,0.1304931640625,0.846923828125,2.572265625,-205.0,67.0,-239.0,101295.0,0.242000013589859,0,0
76.053995,-0.43756103515625,-0.075225830078125,0.072021484375,0.89312744140625,-171.2646484375,-540.6494140625,-89.17236328125,0.6968994140625,1.019287109375,2.1810302734375,-175.0,64.0,-277.0,101295.0,0.242000013589859,0,0
76.060995,-0.38433837890625,-0.032623291015625,0.0777587890625,0.9193115234375,-228.21044921875,-576.7822265625,-67.93212890625,1.1934814453125,-1.2086181640625,1.2197265625,-175.0,64.0,-277.0,101295.0,0.242000013589859,0,0
76.067997,-0.378753662109375,-0.0089111328125,0.076751708984375,0.9222412109375,-289.24560546875,-628.11279296875,-127.25830078125,1.4091796875,0.8013916015625,2.514404296875,-175.0,64.0,-277.0,101295.0,0.242000013589859,0,0
76.074998,-0.35406494140625,0.072418212890625,0.06689453125,0.92999267578125,-360.41259765625,-681.82373046875,-148.62060546875,1.2471923828125,-0.8663330078125,3.041259765625,-175.0,64.0,-277.0,101295.0,0.242000013589859,0,0
76.081997,-0.342071533203125,0.103912353515625,0.06158447265625,0.931854248046875,-490.05126953125,-804.50439453125,-266.78466796875,1.3409423828125,-0.5462646484375,2.862060546875,-175.0,64.0,-277.0,101295.0,0.242000013589859,0,0
76.088996,-0.29669189453125,0.206329345703125,0.05322265625,0.930877685546875,-496.15478515625,-841.4306640625,-321.77734375,1.3043212890625,-0.3294677734375,3.4073486328125,-175.0,64.0,-277.0,101295.0,0.242000013589859,0,0
76.095995,-0.280029296875,0.242034912109375,0.052459716796875,0.927459716796875,-418.02978515625,-992.37060546875,-356.93359375,2.258056640625,-0.4927978515625,2.5980224609375,-175.0,64.0,-277.0,101295.0,0.242000013589859,0,0
76.102997,-0.261383056640625,0.2801513671875,0.053924560546875,0.922088623046875,-388.3056640625,-1090.39306640625,-405.70068359375,2.73095703125,-0.08740234375,2.16259765625,-175.0,64.0,-277.0,101295.0,0.242000013589859,0,0
76.109995,-0.197998046875,0.384552001953125,0.066009521484375,0.899169921875,-290.46630859375,-977.9052734375,-523.98681640625,3.250244140625,0.16357421875,3.975830078125,-175.0,64.0,-277.0,101295.0,0.242000013589859,0,0
76.116022,-0.197998046875,0.384552001953125,0.066009521484375,0.899169921875,-290.46630859375,-977.9052734375,-523.98681640625,3.250244140625,0.16357421875,3.975830078125,-175.0,64.0,-277.0,101295.0,0.242000013589859,0,0
76.122996,-0.15093994140625,0.43914794921875,0.081451416015625,0.881866455078125,-182.06787109375,-832.45849609375,-605.65185546875,3.1949462890625,0.3330078125,3.975830078125,-175.0,64.0,-277.0,101299.0,0.21300001442432404,0,0
76.129997,-0.0772705078125,0.50518798828125,0.099212646484375,0.853790283203125,-148.92578125,-801.94091796875,-608.82568359375,3.230712890625,0.1114501953125,2.9833984375,-175.0,64.0,-277.0,101299.0,0.21300001442432404,0,0
76.136995,-0.051544189453125,0.52294921875,0.0985107421875,0.845062255859375,-404.23583984375,-632.62939453125,-550.4150390625,2.5452880859375,-0.626708984375,3.2882080078125,-175.0,64.0,-277.0,101299.0,0.21300001442432404,0,0
76.157998,0.063201904296875,0.54034423828125,0.088958740234375,0.834320068359375,-293.0908203125,168.0908203125,-482.177734375,1.6156005859375,0.889404296875,1.083740234375,-149.0,56.0,-329.0,101299.0,0.21300001442432404,0,0
76.164998,0.001617431640625,0.51080322265625,0.150238037109375,0.846435546875,-365.3564453125,214.4775390625,-387.0849609375,2.7757568359375,-1.4052734375,-2.1165771484375,-149.0,56.0,-329.0,101299.0,0.21300001442432404,0,0
76.171996,0.028839111328125,0.48138427734375,0.164825439453125,0.8603515625,-62.07275390625,505.92041015625,-500.244140625,1.0389404296875,-0.068359375,2.20068359375,-149.0,56.0,-329.0,101299.0,0.21300001442432404,0,0
76.178997,0.038360595703125,0.45556640625,0.171966552734375,0.87255859375,-34.912109375,766.4794921875,-444.9462890625,1.0546875,-0.889404296875,2.136474609375,-149.0,56.0,-329.0,101299.0,0.21300001442432404,0,0
76.185997,0.03424072265625,0.40069580078125,0.179656982421875,0.897735595703125,87.890625,886.23046875,-98.44970703125,0.607666015625,0.1656494140625,1.52490234375,-149.0,56.0,-329.0,101299.0,0.21300001442432404,0,0
76.193001,0.03594970703125,0.328216552734375,0.209747314453125,0.9202880859375,373.96240234375,1196.22802734375,-431.884765625,0.873046875,0.257080078125,-1.93212890625,-149.0,56.0,-329.0,101299.0,0.21300001442432404,0,0
76.2,0.04937744140625,0.26812744140625,0.201812744140625,0.940673828125,-228.271484375,921.44775390625,-394.10400390625,0.93017578125,-1.6094970703125,-3.3377685546875,-149.0,56.0,-329.0,101299.0,0.21300001442432404,0,0
76.206033,0.04937744140625,0.26812744140625,0.201812744140625,0.940673828125,-228.271484375,921.44775390625,-394.10400390625,0.93017578125,-1.6094970703125,-3.3377685546875,-149.0,56.0,-329.0,101299.0,0.21300001442432404,0,0
76.212996,0.057342529296875,0.19781494140625,0.216705322265625,0.954254150390625,223.20556640625,452.7587890625,-176.6357421875,0.946044921875,-1.87451171875,-3.9927978515625,-149.0,56.0,-329.0,101299.0,0.21300001442432404,0,0
76.220001,0.06512451171875,0.15374755859375,0.225494384765625,0.959808349609375,117.85888671875,418.5791015625,-162.90283203125,0.53662109375,0.908935546875,-2.867431640625,-149.0,56.0,-329.0,101298.0,0.21900001168251038,0,0
76.226999,0.06903076171875,0.1231689453125,0.2333984375,0.962066650390625,117.67578125,855.3466796875,-339.66064453125,0.67431640625,0.4205322265625,-0.2919921875,-149.0,56.0,-329.0,101298.0,0.21900001168251038,0,0
76.247998,0.046966552734375,0.028839111328125,0.2657470703125,0.962432861328125,302.18505859375,571.10595703125,-39.48974609375,0.6378173828125,0.516845703125,0.4639892578125,-149.0,56.0,-329.0,101298.0,0.21900001168251038,0,0
76.254998,0.0301513671875,-0.02996826171875,0.3199462890625,0.94647216796875,572.265625,742.431640625,-39.794921875,0.790283203125,-0.5068359375,0.81298828125,-132.0,46.0,-377.0,101298.0,0.21900001168251038,0,0
76.261996,-0.0286865234375,-0.058197021484375,0.329986572265625,0.941741943359375,371.7041015625,359.0087890625,117.0654296875,0.200927734375,-2.6129150390625,-0.8280029296875,-132.0,46.0,-377.0,101298.0,0.21900001168251038,0,0
76.268996,-0.0400390625,-0.066864013671875,0.333831787109375,0.93939208984375,121.826171875,340.63720703125,234.619140625,-0.110107421875,-0.255126953125,0.2322998046875,-132.0,46.0,-377.0,101298.0,0.21900001168251038,0,0
76.275995,-0.02203369140625,-0.041290283203125,0.34466552734375,0.937530517578125,236.75537109375,-224.91455078125,-19.775390625,-0.29736328125,0.8697509765625,-2.5615234375,-132.0,46.0,-377.0,101298.0,0.21900001168251038,0,0
76.282997,0.001251220703125,-0.00689697265625,0.332855224609375,0.94293212890625,-372.00927734375,-1157.3486328125,-301.513671875,-0.2254638671875,0.192626953125,-0.286865234375,-132.0,46.0,-377.0,101298.0,0.21900001168251038,0,0
76.289995,0.083831787109375,0.08807373046875,0.29876708984375,0.946533203125,-377.38037109375,-1196.83837890625,-510.8642578125,0.4967041015625,0.9537353515625,2.0677490234375,-132.0,46.0,-377.0,101298.0,0.21900001168251038,0,0
76.296995,0.103118896484375,0.1209716796875,0.290069580078125,0.943695068359375,-180.7861328125,-1085.99853515625,-225.7080078125,0.3675537109375,-1.4051513671875,2.484375,-132.0,46.0,-377.0,101298.0,0.21900001168251038,0,0
76.303026,0.103118896484375,0.1209716796875,0.290069580078125,0.943695068359375,-180.7861328125,-1085.99853515625,-225.7080078125,0.3675537109375,-1.4051513671875,2.484375,-132.0,46.0,-377.0,101298.0,0.21900001168251038,0,0
76.309996,0.179046630859375,0.26361083984375,0.269287109375,0.908782958984375,-114.501953125,-1238.6474609375,-237.4267578125,0.8736572265625,0.8927001953125,2.548095703125,-132.0,46.0,-377.0,101298.0,0.21900001168251038,0,0
76.316995,0.199371337890625,0.29266357421875,0.272918701171875,0.89447021484375,200.50048828125,-1003.60107421875,-406.31103515625,0.6395263671875,1.7242431640625,3.9468994140625,-132.0,46.0,-377.0,101298.0,0.21900001168251038,0,0
76.323995,0.220367431640625,0.316375732421875,0.2801513671875,0.87908935546875,265.2587890625,-860.2294921875,-501.52587890625,0.671142578125,1.1719970703125,3.975830078125,-132.0,46.0,-377.0,101303.0,0.18000000715255737,0,0
76.330995,0.28759765625,0.382720947265625,0.287933349609375,0.829376220703125,155.09033203125,-883.97216796875,-549.4384765625,2.201171875,0.8629150390625,2.1734619140625,-132.0,46.0,-377.0,101303.0,0.18000000715255737,0,0
76.337998,0.311920166015625,0.401519775390625,0.29351806640625,0.80950927734375,184.63134765625,-819.4580078125,-648.681640625,2.0638427734375,1.00341796875,3.196044921875,-132.0,46.0,-377.0,101303.0,0.18000000715255737,0,0
76.344998,0.358306884765625,0.434417724609375,0.306610107421875,0.767364501953125,211.48681640625,-822.20458984375,-671.93603515625,2.06640625,0.05908203125,2.931396484375,-132.0,46.0,-377.0,101303.0,0.18000000715255737,0,0
76.351996,0.402252197265625,0.46368408203125,0.309967041015625,0.725982666015625,127.685546875,-707.763671875,-591.9189453125,1.961669921875,0.7021484375,3.9482421875,-132.0,46.0,-377.0,101303.0,0.18000000715255737,0,0
76.358997,0.395599365234375,0.49713134765625,0.3275146484375,0.699310302734375,1076.416015625,-789.794921875,-105.77392578125,1.15576171875,3.2254638671875,3.9267578125,-90.0,34.0,-378.0,101303.0,0.18000000715255737,0,0
76.365995,0.21905517578125,0.4287109375,0.43304443359375,0.761993408203125,-60.302734375,-372.9248046875,-11.65771484375,0.21728515625,3.1124267578125,2.7396240234375,-90.0,34.0,-378.0,101303.0,0.18000000715255737,0,0
76.372996,0.222015380859375,0.435821533203125,0.4283447265625,0.759765625,133.85009765625,-112.4267578125,-27.83203125,-0.50537109375,2.5250244140625,2.9244384765625,-90.0,34.0,-378.0,101303.0,0.18000000715255737,0,0
76.379995,0.2218017578125,0.454559326171875,0.413604736328125,0.75701904296875,-11.1083984375,-87.95166015625,172.30224609375,-0.4075927734375,-0.776123046875,0.5966796875,-90.0,34.0,-378.0,101303.0,0.18000000715255737,0,0
76.386994,0.22821044921875,0.477081298828125,0.398162841796875,0.749481201171875,-168.76220703125,-771.17919921875,281.31103515625,0.6885986328125,1.019287109375,1.220947265625,-90.0,34.0,-378.0,101303.0,0.18000000715255737,0,0
76.393027,0.22821044921875,0.477081298828125,0.398162841796875,0.749481201171875,-168.76220703125,-771.17919921875,281.31103515625,0.6885986328125,1.019287109375,1.220947265625,-90.0,34.0,-378.0,101303.0,0.18000000715255737,0,0
76.399997,0.261810302734375,0.587646484375,0.342742919921875,0.684539794921875,-64.0869140625,-1046.5087890625,225.89111328125,0.889404296875,-0.2374267578125,2.117919921875,-90.0,34.0,-378.0,101303.0,0.18000000715255737,0,0
76.420995,0.318878173828125,0.68310546875,0.284576416015625,0.5921630859375,-67.138671875,-810.60791015625,-44.25048828125,0.63232421875,1.34033203125,2.1561279296875,-90.0,34.0,-378.0,101303.0,0.18200001120567322,0,0
76.427997,0.333404541015625,0.694366455078125,0.2706298828125,0.577392578125,-298.095703125,-726.13525390625,-15.869140625,0.647216796875,-0.4913330078125,1.6707763671875,-90.0,34.0,-378.0,101303.0,0.18200001120567322,0,0
76.434998,0.384185791015625,0.7159423828125,0.2266845703125,0.5369873046875,-472.7783203125,-701.84326171875,-68.66455078125,0.20068359375,1.3037109375,1.3466796875,-90.0,34.0,-378.0,101303.0,0.18200001120567322,0,0
76.441997,0.39483642578125,0.721649169921875,0.21221923828125,0.5274658203125,-313.720703125,-513.916015625,61.46240234375,-0.229736328125,-0.5975341796875,0.2607421875,-90.0,34.0,-378.0,101303.0,0.18200001120567322,0,0
76.448997,0.405975341796875,0.720794677734375,0.2020263671875,0.524169921875,-373.1689453125,-238.76953125,-0.244140625,-0.4720458984375,1.7196044921875,1.66015625,-90.0,34.0,-378.0,101303.0,0.18200001120567322,0,0
76.455995,0.43353271484375,0.71649169921875,0.1812744140625,0.51556396484375,-297.91259765625,-149.35302734375,-10.498046875,0.1187744140625,0.397705078125,0.56396484375,-42.0,16.0,-408.0,101303.0,0.18200001120567322,0,0
76.462996,0.331451416015625,0.67138671875,0.313140869140625,0.584197998046875,-95.8251953125,-217.46826171875,-62.68310546875,0.5618896484375,0.3018798828125,-1.305419921875,-42.0,16.0,-408.0,101303.0,0.18200001120567322,0,0
76.469995,0.3323974609375,0.676025390625,0.31109619140625,0.579376220703125,19.6533203125,-189.208984375,3.35693359375,0.3740234375,-0.728515625,-0.7935791015625,-42.0,16.0,-408.0,101303.0,0.18200001120567322,0,0
76.476995,0.314208984375,0.691619873046875,0.291839599609375,0.581146240234375,89.17236328125,-20.99609375,344.23828125,0.4915771484375,0.021240234375,-0.5765380859375,-42.0,16.0,-408.0,101303.0,0.18200001120567322,0,0
76.483999,0.304840087890625,0.6949462890625,0.2857666015625,0.58514404296875,83.251953125,46.142578125,341.36962890625,0.47021484375,0.6180419921875,0.0186767578125,-42.0,16.0,-408.0,101303.0,0.18200001120567322,0,0
76.490027,0.304840087890625,0.6949462890625,0.2857666015625,0.58514404296875,83.251953125,46.142578125,341.36962890625,0.47021484375,0.6180419921875,0.0186767578125,-42.0,16.0,-408.0,101303.0,0.18200001120567322,0,0
76.510999,0.271636962890625,0.691314697265625,0.24114990234375,0.62457275390625,40.283203125,-94.6044921875,130.67626953125,0.2198486328125,0.03515625,-1.7354736328125,-42.0,16.0,-408.0,101303.0,0.18200001120567322,0,0
76.517999,0.2706298828125,0.6976318359375,0.236053466796875,0.619903564453125,10.92529296875,-238.525390625,126.8310546875,0.36474609375,-0.175537109375,-2.3311767578125,-42.0,16.0,-408.0,101303.0,0.18200001120567322,0,0
76.524998,0.2713623046875,0.704254150390625,0.2271728515625,0.615386962890625,-90.9423828125,-281.55517578125,173.9501953125,0.081298828125,-1.1207275390625,-1.1817626953125,-42.0,16.0,-408.0,101302.0,0.18700000643730164,0,0
76.531997,0.27227783203125,0.71209716796875,0.20635986328125,0.61328125,-52.06298828125,-16.2353515625,120.361328125,0.1607666015625,0.3187255859375,0.72705078125,-42.0,16.0,-408.0,101302.0,0.18700000643730164,0,0
76.538997,0.27044677734375,0.709381103515625,0.204132080078125,0.61798095703125,-39.9169921875,123.84033203125,99.12109375,0.192138671875,0.218505859375,0.77587890625,-42.0,16.0,-408.0,101302.0,0.18700000643730164,0,0
76.545996,0.263031005859375,0.697662353515625,0.205413818359375,0.6339111328125,45.95947265625,320.3125,69.64111328125,0.360107421875,0.8416748046875,0.763427734375,-42.0,16.0,-408.0,101302.0,0.18700000643730164,0,0
76.553001,0.256317138671875,0.688934326171875,0.198974609375,0.6480712890625,-65.185546875,210.87646484375,165.83251953125,0.33642578125,-0.556396484375,-0.2108154296875,-42.0,16.0,-408.0,101302.0,0.18700000643730164,0,0
76.559999,0.251434326171875,0.686065673828125,0.19482421875,0.654296875,-39.9169921875,175.78125,192.9931640625,0.18408203125,-0.399658203125,-0.1605224609375,-34.0,17.0,-411.0,101302.0,0.18700000643730164,0,0
76.566996,0.150238037109375,0.65057373046875,0.279876708984375,0.689788818359375,127.74658203125,180.7861328125,169.43359375,-0.0595703125,0.1649169921875,0.044189453125,-34.0,17.0,-411.0,101302.0,0.18700000643730164,0,0
76.573995,0.134735107421875,0.645477294921875,0.279541015625,0.6978759765625,53.955078125,191.162109375,149.169921875,-0.032958984375,0.004150390625,-0.008056640625,-34.0,17.0,-411.0,101302.0,0.18700000643730164,0,0
76.580022,0.134735107421875,0.645477294921875,0.279541015625,0.6978759765625,53.955078125,191.162109375,149.169921875,-0.032958984375,0.004150390625,-0.008056640625,-34.0,17.0,-411.0,101302.0,0.18700000643730164,0,0
76.586995,0.120513916015625,0.6392822265625,0.264312744140625,0.71197509765625,-121.337890625,133.60595703125,184.02099609375,-0.008544921875,0.029296875,0.32861328125,-34.0,17.0,-411.0,101302.0,0.18700000643730164,0,0
76.593995,0.111572265625,0.63287353515625,0.2606201171875,0.720458984375,19.95849609375,168.8232421875,116.2109375,-0.172119140625,0.6387939453125,0.1788330078125,-34.0,17.0,-411.0,101302.0,0.18700000643730164,0,0
76.600994,0.100921630859375,0.631134033203125,0.26116943359375,0.723358154296875,139.70947265625,107.421875,73.2421875,-0.13427734375,0.942626953125,-0.1357421875,-34.0,17.0,-411.0,101302.0,0.18700000643730164,0,0
76.607997,0.097503662109375,0.632659912109375,0.258636474609375,0.723388671875,7.8125,-3.23486328125,132.8125,-0.1082763671875,0.182861328125,-0.4986572265625,-34.0,17.0,-411.0,101302.0,0.18700000643730164,0,0
76.614998,0.093017578125,0.6363525390625,0.256134033203125,0.72161865234375,31.92138671875,-66.5283203125,74.951171875,-0.0755615234375,0.3310546875,-0.032470703125,-34.0,17.0,-411.0,101302.0,0.18700000643730164,0,0
76.621996,0.093414306640625,0.634613037109375,0.25238037109375,0.72442626953125,-10.07080078125,-34.48486328125,68.603515625,-0.0478515625,0.0496826171875,0.5809326171875,-34.0,17.0,-411.0,101301.0,0.19200000166893005,0,0
76.628997,0.0914306640625,0.6326904296875,0.249420166015625,0.72735595703125,-52.001953125,99.365234375,88.80615234375,-0.003662109375,-0.022216796875,1.6785888671875,-34.0,17.0,-411.0,101301.0,0.19200000166893005,0,0
76.635996,0.084259033203125,0.61370849609375,0.237945556640625,0.748046875,-97.7783203125,265.625,89.78271484375,0.13916015625,-0.069580078125,1.1456298828125,-34.0,17.0,-411.0,101301.0,0.19200000166893005,0,0
76.642997,0.081878662109375,0.605804443359375,0.23248291015625,0.756439208984375,-145.5078125,308.4716796875,112.6708984375,0.244140625,0.034423828125,0.63623046875,-34.0,17.0,-411.0,101301.0,0.19200000166893005,0,0
76.649995,0.0767822265625,0.591766357421875,0.218017578125,0.772247314453125,-138.0615234375,247.55859375,116.51611328125,0.23193359375,-0.02490234375,0.195068359375,-34.0,17.0,-411.0,101301.0,0.19200000166893005,0,0
76.656994,0.0765380859375,0.588623046875,0.21368408203125,0.775848388671875,-120.91064453125,139.404296875,85.8154296875,0.161376953125,-0.0009765625,-0.27978515625,-30.0,17.0,-410.0,101301.0,0.19200000166893005,0,0
76.663995,-0.18902587890625,0.483123779296875,0.3924560546875,0.75946044921875,-109.130859375,90.2099609375,100.15869140625,-0.0157470703125,-0.297119140625,0.4288330078125,-30.0,17.0,-410.0,101301.0,0.19200000166893005,0,0
76.683995,-0.203521728515625,0.46588134765625,0.36578369140625,0.779541015625,-103.57666015625,195.1904296875,65.49072265625,-0.0172119140625,0.174560546875,0.312744140625,-30.0,17.0,-410.0,101301.0,0.19200000166893005,0,0
76.690994,-0.209381103515625,0.454986572265625,0.35125732421875,0.791015625,-101.07421875,185.85205078125,52.91748046875,-0.071044921875,0.1807861328125,0.29833984375,-30.0,17.0,-410.0,101301.0,0.19200000166893005,0,0
76.697998,-0.211090087890625,0.451385498046875,0.346588134765625,0.794677734375,-96.49658203125,165.58837890625,44.677734375,-0.024169921875,0.1363525390625,0.4434814453125,-30.0,17.0,-410.0,101301.0,0.19200000166893005,0,0
76.704998,-0.21282958984375,0.444915771484375,0.33502197265625,0.802764892578125,-137.451171875,166.56494140625,36.80419921875,0.057861328125,0.1607666015625,0.4256591796875,-30.0,17.0,-410.0,101301.0,0.19200000166893005,0,0
76.711996,-0.2130126953125,0.4390869140625,0.322784423828125,0.8109130859375,-162.7197265625,143.798828125,29.78515625,0.0936279296875,0.11083984375,0.6397705078125,-30.0,17.0,-410.0,101301.0,0.19200000166893005,0,0
76.773995,-0.373443603515625,0.3170166015625,0.2972412109375,0.819549560546875,-205.50537109375,184.50927734375,-45.83740234375,-0.0272216796875,-0.01953125,0.7064208984375,-23.0,29.0,-428.0,101306.0,0.1550000011920929,0,0
76.780999,-0.36932373046875,0.309844970703125,0.281402587890625,0.829681396484375,-206.4208984375,189.208984375,-53.466796875,-0.0316162109375,0.1644287109375,0.7535400390625,-23.0,29.0,-428.0,101306.0,0.1550000011920929,0,0
76.787999,-0.366973876953125,0.306427001953125,0.273956298828125,0.83447265625,-198.18115234375,171.0205078125,-66.46728515625,-0.0975341796875,0.095947265625,0.71923828125,-23.0,29.0,-428.0,101306.0,0.1550000011920929,0,0
76.794998,-0.362030029296875,0.2999267578125,0.259368896484375,0.843597412109375,-194.2138671875,162.59765625,-69.82421875,-0.0972900390625,0.0732421875,0.686279296875,-23.0,29.0,-428.0,101306.0,0.1550000011920929,0,0
76.801997,-0.35687255859375,0.29278564453125,0.24444580078125,0.85272216796875,-201.416015625,174.31640625,-72.265625,-0.076171875,0.015380859375,0.77001953125,-23.0,29.0,-428.0,101306.0,0.1550000011920929,0,0
76.808996,-0.353973388671875,0.289215087890625,0.23651123046875,0.85736083984375,-211.12060546875,175.23193359375,-75.25634765625,-0.0888671875,0.0428466796875,0.7471923828125,-23.0,29.0,-428.0,101306.0,0.1550000011920929,0,0
76.815997,-0.345428466796875,0.2779541015625,0.2144775390625,0.870269775390625,-193.78662109375,166.6259765625,-74.64599609375,-0.0938720703125,0.048828125,0.8321533203125,-23.0,29.0,-428.0,101306.0,0.1550000011920929,0,0
76.823001,-0.342620849609375,0.2738037109375,0.2073974609375,0.8743896484375,-180.7861328125,175.84228515625,-78.67431640625,-0.08154296875,0.0362548828125,0.9429931640625,-23.0,29.0,-428.0,101306.0,0.1550000011920929,0,0
76.83,-0.33984375,0.269195556640625,0.2005615234375,0.878509521484375,-171.5087890625,185.24169921875,-80.87158203125,0.0079345703125,0.2017822265625,1.0101318359375,-23.0,29.0,-428.0,101306.0,0.1550000011920929,0,0
76.836995,-0.333221435546875,0.252685546875,0.182037353515625,0.889892578125,-64.27001953125,190.7958984375,-55.60302734375,-0.02392578125,-0.1226806640625,0.8333740234375,-23.0,29.0,-428.0,101306.0,0.1550000011920929,0,0
76.843998,-0.332244873046875,0.2484130859375,0.18048095703125,0.89178466796875,-16.4794921875,126.89208984375,-53.16162109375,-0.0238037109375,0.1053466796875,0.446533203125,-23.0,29.0,-428.0,101306.0,0.1550000011920929,0,0
76.850999,-0.32696533203125,0.239410400390625,0.16546630859375,0.899078369140625,-48.03466796875,44.677734375,-50.78125,-0.1568603515625,-0.279052734375,1.0693359375,-23.0,29.0,-428.0,101306.0,0.1550000011920929,0,0
76.857998,-0.3258056640625,0.232757568359375,0.15936279296875,0.90234375,-114.8681640625,228.515625,-49.9267578125,0.0321044921875,0.02880859375,1.517822265625,-30.0,55.0,-428.0,101306.0,0.1550000011920929,0,0
76.864029,-0.3258056640625,0.232757568359375,0.15936279296875,0.90234375,-114.8681640625,228.515625,-49.9267578125,0.0321044921875,0.02880859375,1.517822265625,-30.0,55.0,-428.0,101306.0,0.1550000011920929,0,0
76.870999,-0.692230224609375,0.134063720703125,0.227294921875,0.671661376953125,-194.82421875,211.97509765625,-42.3583984375,-0.0445556640625,0.178955078125,0.793701171875,-30.0,55.0,-428.0,101305.0,0.1600000113248825,0,0
76.877998,-0.688751220703125,0.1309814453125,0.2083740234375,0.681915283203125,-104.91943359375,96.98486328125,-72.265625,-0.205322265625,0.192138671875,0.816162109375,-30.0,55.0,-428.0,101305.0,0.1600000113248825,0,0
76.884998,-0.687042236328125,0.130218505859375,0.202972412109375,0.68536376953125,-122.55859375,113.58642578125,-81.6650390625,-0.096923828125,0.365478515625,0.9051513671875,-30.0,55.0,-428.0,101305.0,0.1600000113248825,0,0
76.891997,-0.681976318359375,0.12322998046875,0.184173583984375,0.69696044921875,-91.30859375,175.72021484375,-99.365234375,-0.1864013671875,0.1536865234375,1.21533203125,-30.0,55.0,-428.0,101305.0,0.1600000113248825,0,0
76.898996,-0.680267333984375,0.11968994140625,0.177703857421875,0.700897216796875,-88.80615234375,187.56103515625,-104.98046875,-0.1629638671875,0.210205078125,1.281982421875,-30.0,55.0,-428.0,101305.0,0.1600000113248825,0,0
76.905996,-0.675384521484375,0.111663818359375,0.163543701171875,0.710357666015625,-102.9052734375,200.50048828125,-123.046875,-0.1309814453125,0.343017578125,1.141357421875,-30.0,55.0,-428.0,101305.0,0.1600000113248825,0,0
76.912996,-0.66864013671875,0.10382080078125,0.14947509765625,0.720916748046875,-103.1494140625,197.93701171875,-165.83251953125,-0.178466796875,0.357421875,1.057373046875,-30.0,55.0,-428.0,101305.0,0.1600000113248825,0,0
76.919994,-0.6649169921875,0.09954833984375,0.143310546875,0.7261962890625,-83.80126953125,194.9462890625,-175.537109375,-0.1678466796875,0.30224609375,1.1434326171875,-30.0,55.0,-428.0,101305.0,0.1600000113248825,0,0
76.926994,-0.6571044921875,0.09014892578125,0.13031005859375,0.736907958984375,-80.2001953125,197.81494140625,-176.81884765625,-0.1522216796875,0.253662109375,1.1951904296875,-30.0,55.0,-428.0,101305.0,0.1600000113248825,0,0
76.947998,-0.638153076171875,0.05084228515625,0.0892333984375,0.762969970703125,-38.51318359375,335.8154296875,-204.40673828125,-0.0833740234375,0.427734375,1.2120361328125,-30.0,55.0,-428.0,101305.0,0.1600000113248825,0,0
76.954024,-0.638153076171875,0.05084228515625,0.0892333984375,0.762969970703125,-38.51318359375,335.8154296875,-204.40673828125,-0.0833740234375,0.427734375,1.2120361328125,-30.0,55.0,-428.0,101305.0,0.1600000113248825,0,0
76.960994,-0.6201171875,0.02752685546875,0.065673828125,0.78125,-71.59423828125,293.51806640625,-267.7001953125,-0.071044921875,0.317626953125,1.1640625,-11.0,98.0,-437.0,101305.0,0.1600000113248825,0,0
76.967998,-0.882904052734375,-0.009674072265625,0.05029296875,0.4666748046875,-60.11962890625,306.884765625,-283.0810546875,-0.03759765625,0.265869140625,1.344970703125,-11.0,98.0,-437.0,101305.0,0.1600000113248825,0,0
76.974998,-0.87451171875,-0.018585205078125,0.02752685546875,0.483856201171875,-57.4951171875,347.22900390625,-284.85107421875,-0.00927734375,0.2686767578125,1.3125,-11.0,98.0,-437.0,101306.0,0.15200001001358032,0,0
76.981997,-0.864532470703125,-0.0279541015625,0.004241943359375,0.501739501953125,-58.16650390625,352.6611328125,-296.69189453125,-0.0262451171875,0.327880859375,1.2550048828125,-11.0,98.0,-437.0,101306.0,0.15200001001358032,0,0
76.988997,-0.85882568359375,-0.032806396484375,-0.00640869140625,0.5111083984375,-35.400390625,326.7822265625,-323.1201171875,-0.0357666015625,0.3045654296875,1.07958984375,-11.0,98.0,-437.0,101306.0,0.15200001001358032,0,0
76.995995,-0.839813232421875,-0.046600341796875,-0.037628173828125,0.539520263671875,-34.11865234375,313.29345703125,-336.73095703125,-0.021240234375,0.209716796875,1.17333984375,-11.0,98.0,-437.0,101306.0,0.15200001001358032,0,0
77.002997,-0.832855224609375,-0.0513916015625,-0.04876708984375,0.548919677734375,-40.283203125,340.75927734375,-343.6279296875,0.0045166015625,0.1851806640625,1.2716064453125,-11.0,98.0,-437.0,101306.0,0.15200001001358032,0,0
77.009995,-0.82550048828125,-0.0565185546875,-0.06005859375,0.55828857421875,-34.97314453125,350.830078125,-349.42626953125,0.00146484375,0.2110595703125,1.2457275390625,-11.0,98.0,-437.0,101306.0,0.15200001001358032,0,0
77.030998,-0.766998291015625,-0.093475341796875,-0.126129150390625,0.622100830078125,16.05224609375,302.6123046875,-355.1025390625,0.0321044921875,0.0418701171875,1.142578125,-11.0,98.0,-437.0,101306.0,0.15200001001358032,0,0
77.037998,-0.7578125,-0.098846435546875,-0.134613037109375,0.630706787109375,20.1416015625,300.72021484375,-356.93359375,0.0299072265625,0.08203125,1.0799560546875,-11.0,98.0,-437.0,101306.0,0.15200001001358032,0,0
77.044997,-0.748504638671875,-0.104034423828125,-0.142669677734375,0.63916015625,25.0244140625,288.39111328125,-355.224609375,0.02001953125,0.035888671875,1.0291748046875,-11.0,98.0,-437.0,101306.0,0.15200001001358032,0,0
77.05103,-0.748504638671875,-0.104034423828125,-0.142669677734375,0.63916015625,25.0244140625,288.39111328125,-355.224609375,0.02001953125,0.035888671875,1.0291748046875,-11.0,98.0,-437.0,101306.0,0.15200001001358032,0,0
77.057998,-0.709869384765625,-0.124053955078125,-0.170440673828125,0.6719970703125,43.8232421875,259.765625,-352.47802734375,0.00927734375,0.0172119140625,1.02685546875,0.0,153.0,-445.0,101306.0,0.15200001001358032,0,0
77.064998,-0.77618408203125,-0.1068115234375,-0.1910400390625,0.59124755859375,46.5087890625,254.82177734375,-350.7080078125,0.0087890625,0.0089111328125,1.0687255859375,0.0,153.0,-445.0,101306.0,0.15200001001358032,0,0
77.071996,-0.748291015625,-0.11871337890625,-0.210205078125,0.61785888671875,48.52294921875,249.81689453125,-352.294921875,0.010986328125,0.0450439453125,1.0145263671875,0.0,153.0,-445.0,101306.0,0.15400001406669617,0,0
77.078996,-0.738739013671875,-0.122772216796875,-0.215728759765625,0.6265869140625,72.021484375,227.47802734375,-350.89111328125,-0.000244140625,0.02685546875,0.979248046875,0.0,153.0,-445.0,101306.0,0.15400001406669617,0,0
77.085997,-0.71929931640625,-0.131103515625,-0.225372314453125,0.643890380859375,83.1298828125,220.15380859375,-348.876953125,0.0001220703125,0.0086669921875,0.97607421875,0.0,153.0,-445.0,101306.0,0.15400001406669617,0,0
77.093001,-0.69940185546875,-0.1395263671875,-0.2333984375,0.66094970703125,110.65673828125,199.76806640625,-346.0693359375,-0.009521484375,-0.0426025390625,0.9698486328125,0.0,153.0,-445.0,101306.0,0.15400001406669617,0,0
77.1,-0.689361572265625,-0.14398193359375,-0.2364501953125,0.669403076171875,127.5634765625,189.208984375,-340.51513671875,-0.0086669921875,-0.0880126953125,0.9658203125,0.0,153.0,-445.0,101306.0,0.15400001406669617,0,0
77.106995,-0.66912841796875,-0.1522216796875,-0.2408447265625,0.686309814453125,129.39453125,171.93603515625,-342.10205078125,-0.002685546875,0.03125,0.8443603515625,0.0,153.0,-445.0,101306.0,0.15400001406669617,0,0
77.113998,-0.64837646484375,-0.15960693359375,-0.24365234375,0.703369140625,141.54052734375,141.7236328125,-352.47802734375,-0.01025390625,0.0950927734375,0.9578857421875,0.0,153.0,-445.0,101306.0,0.15400001406669617,0,0
77.120999,-0.63763427734375,-0.162872314453125,-0.24481201171875,0.71197509765625,142.39501953125,135.07080078125,-358.82568359375,-0.01708984375,0.042236328125,1.0257568359375,0.0,153.0,-445.0,101306.0,0.15400001406669617,0,0
77.127998,-0.615570068359375,-0.169189453125,-0.246795654296875,0.72900390625,148.86474609375,130.615234375,-362.36572265625,0.00244140625,-0.056884765625,0.9617919921875,0.0,153.0,-445.0,101306.0,0.15400001406669617,0,0
77.134996,-0.5933837890625,-0.1751708984375,-0.24713134765625,0.745697021484375,168.88427734375,103.271484375,-356.8115234375,-0.00927734375,-0.079833984375,0.8502197265625,0.0,153.0,-445.0,101306.0,0.15400001406669617,0,0
77.14103,-0.5933837890625,-0.1751708984375,-0.24713134765625,0.745697021484375,168.88427734375,103.271484375,-356.8115234375,-0.00927734375,-0.079833984375,0.8502197265625,0.0,153.0,-445.0,101306.0,0.15400001406669617,0,0
77.203995,-0.4967041015625,-0.1868896484375,-0.199371337890625,0.82373046875,233.45947265625,-69.76318359375,-333.3740234375,0.03759765625,0.0885009765625,0.8634033203125,5.0,211.0,-447.0,101312.0,0.10100000351667404,0,0
77.210997,-0.465362548828125,-0.184661865234375,-0.1787109375,0.846954345703125,240.53955078125,-83.19091796875,-335.44921875,0.041015625,0.011962890625,1.0455322265625,5.0,211.0,-447.0,101312.0,0.10100000351667404,0,0
77.217998,-0.4552001953125,-0.18499755859375,-0.17156982421875,0.853851318359375,265.93017578125,-55.60302734375,-297.9736328125,0.0645751953125,-0.1173095703125,1.4410400390625,5.0,211.0,-447.0,101312.0,0.10100000351667404,0,0
77.224997,-0.445098876953125,-0.186126708984375,-0.16424560546875,0.8603515625,278.01513671875,-37.2314453125,-285.15625,0.03759765625,-0.1466064453125,1.5140380859375,5.0,211.0,-447.0,101312.0,0.10100000351667404,0,0
77.231996,-0.41546630859375,-0.192596435546875,-0.144134521484375,0.877197265625,280.57861328125,-19.6533203125,-270.93505859375,0.0615234375,-0.114501953125,1.495361328125,5.0,211.0,-447.0,101312.0,0.10100000351667404,0,0
77.238029,-0.41546630859375,-0.192596435546875,-0.144134521484375,0.877197265625,280.57861328125,-19.6533203125,-270.93505859375,0.0615234375,-0.114501953125,1.495361328125,5.0,211.0,-447.0,101312.0,0.10100000351667404,0,0
77.244998,-0.395355224609375,-0.19439697265625,-0.131134033203125,0.8880615234375,250.54931640625,-51.3916015625,-279.6630859375,0.052734375,0.0595703125,0.9696044921875,5.0,211.0,-447.0,101312.0,0.10100000351667404,0,0
77.251996,-0.36517333984375,-0.19134521484375,-0.106414794921875,0.90478515625,273.4375,-87.2802734375,-282.5927734375,0.03759765625,0.03955078125,1.146240234375,5.0,211.0,-447.0,101312.0,0.10100000351667404,0,0
77.258996,-0.354888916015625,-0.19073486328125,-0.098297119140625,0.909912109375,274.10888671875,-81.84814453125,-277.77099609375,0.09912109375,0.0687255859375,1.5645751953125,10.0,261.0,-453.0,101312.0,0.10100000351667404,0,0
77.265996,-0.42413330078125,-0.181610107421875,-0.107635498046875,0.880615234375,248.10791015625,-61.767578125,-279.96826171875,0.0975341796875,0.1466064453125,1.58740234375,10.0,261.0,-453.0,101312.0,0.10100000351667404,0,0
77.272997,-0.392913818359375,-0.184234619140625,-0.085601806640625,0.896820068359375,253.173828125,-48.583984375,-288.14697265625,0.0955810546875,0.145263671875,1.5999755859375,10.0,261.0,-453.0,101312.0,0.10500000417232513,0,0
77.293994,-0.34002685546875,-0.183441162109375,-0.044036865234375,0.9212646484375,272.5830078125,-100.2197265625,-288.14697265625,0.1617431640625,0.232421875,1.4149169921875,10.0,261.0,-453.0,101312.0,0.10500000417232513,0,0
77.300998,-0.32904052734375,-0.181671142578125,-0.03533935546875,0.92596435546875,274.4140625,-128.47900390625,-293.3349609375,0.1435546875,0.1793212890625,1.5255126953125,10.0,261.0,-453.0,101312.0,0.10500000417232513,0,0
77.307998,-0.30645751953125,-0.176300048828125,-0.016571044921875,0.93524169921875,293.45703125,-162.353515625,-301.7578125,0.19677734375,0.1021728515625,1.7366943359375,10.0,261.0,-453.0,101312.0,0.10500000417232513,0,0
77.314997,-0.2833251953125,-0.17095947265625,0.00054931640625,0.943634033203125,261.962890625,-132.14111328125,-308.7158203125,0.239501953125,0.168701171875,1.91943359375,10.0,261.0,-453.0,101312.0,0.10500000417232513,0,0
77.321996,-0.27142333984375,-0.168914794921875,0.008636474609375,0.94744873046875,260.80322265625,-122.61962890625,-314.39208984375,0.215576171875,0.2237548828125,1.880615234375,10.0,261.0,-453.0,101312.0,0.10500000417232513,0,0
77.328028,-0.27142333984375,-0.168914794921875,0.008636474609375,0.94744873046875,260.80322265625,-122.61962890625,-314.39208984375,0.215576171875,0.2237548828125,1.880615234375,10.0,261.0,-453.0,101312.0,0.10500000417232513,0,0
77.334998,-0.222503662109375,-0.16412353515625,0.0386962890625,0.960205078125,264.22119140625,-115.72265625,-323.42529296875,0.1995849609375,0.0802001953125,1.78125,10.0,261.0,-453.0,101312.0,0.10500000417232513,0,0
77.341997,-0.2056884765625,-0.177581787109375,0.0440673828125,0.961334228515625,261.3525390625,-48.52294921875,-287.59765625,0.239990234375,-0.1082763671875,2.281494140625,10.0,261.0,-453.0,101312.0,0.10500000417232513,0,0
77.348997,-0.193756103515625,-0.200958251953125,0.05828857421875,0.958465576171875,594.3603515625,559.75341796875,-269.47021484375,-1.546630859375,0.991455078125,3.975830078125,10.0,261.0,-453.0,101312.0,0.10500000417232513,0,0
77.355996,-0.168975830078125,-0.206634521484375,0.0738525390625,0.960845947265625,249.57275390625,-186.8896484375,-255.92041015625,-0.772216796875,-1.24853515625,-1.118408203125,-12.0,279.0,-468.0,101312.0,0.10500000417232513,0,0
77.362997,-0.1796875,-0.174102783203125,0.0889892578125,0.964080810546875,348.388671875,-561.09619140625,-360.04638671875,0.2335205078125,1.9244384765625,-1.8714599609375,-12.0,279.0,-468.0,101312.0,0.10500000417232513,0,0
77.369995,-0.14715576171875,-0.111358642578125,0.055938720703125,0.981201171875,-1121.09375,-1736.75537109375,-994.62890625,3.9674072265625,3.7384033203125,3.975830078125,-12.0,279.0,-468.0,101312.0,0.10500000417232513,0,0
77.376995,-0.12664794921875,-0.121429443359375,0.07586669921875,0.981536865234375,346.13037109375,830.26123046875,-173.4619140625,-1.3447265625,-1.673095703125,3.975830078125,-12.0,279.0,-468.0,101316.0,0.07100000232458115,0,0
77.383999,-0.09381103515625,-0.1907958984375,0.08209228515625,0.973663330078125,193.78662109375,905.33447265625,-424.01123046875,0.268798828125,-1.9940185546875,1.6904296875,-12.0,279.0,-468.0,101316.0,0.07100000232458115,0,0
77.390999,-0.0921630859375,-0.209442138671875,0.076507568359375,0.970428466796875,-89.41650390625,549.13330078125,-111.87744140625,1.08056640625,-2.8699951171875,-3.389892578125,-12.0,279.0,-468.0,101316.0,0.07100000232458115,0,0
77.397998,-0.058929443359375,-0.199859619140625,0.096954345703125,0.97320556640625,600.28076171875,-138.73291015625,-348.5107421875,0.5460205078125,0.8055419921875,-0.2344970703125,-12.0,279.0,-468.0,101316.0,0.07100000232458115,0,0
77.404996,-0.04541015625,-0.191375732421875,0.1015625,0.97515869140625,185.85205078125,-293.76220703125,-330.62744140625,0.670654296875,-1.060302734375,-1.4930419921875,-12.0,279.0,-468.0,101316.0,0.07100000232458115,0,0
77.411997,-0.00579833984375,-0.1595458984375,0.09881591796875,0.982208251953125,110.04638671875,-220.947265625,-274.35302734375,0.2867431640625,-1.0511474609375,1.6319580078125,-12.0,279.0,-468.0,101316.0,0.07100000232458115,0,0
77.418996,0.006866455078125,-0.14691162109375,0.108306884765625,0.983154296875,335.8154296875,-389.7705078125,-275.2685546875,0.2554931640625,-0.679931640625,0.4423828125,-12.0,279.0,-468.0,101316.0,0.07100000232458115,0,0
77.425028,0.006866455078125,-0.14691162109375,0.108306884765625,0.983154296875,335.8154296875,-389.7705078125,-275.2685546875,0.2554931640625,-0.679931640625,0.4423828125,-12.0,279.0,-468.0,101316.0,0.07100000232458115,0,0
77.431996,0.041595458984375,-0.100921630859375,0.114166259765625,0.9874267578125,61.5234375,-354.736328125,-244.2626953125,0.45556640625,0.6580810546875,-0.4471435546875,-12.0,279.0,-468.0,101316.0,0.07100000232458115,0,0
77.438997,0.047515869140625,-0.09185791015625,0.105621337890625,0.988983154296875,-205.6884765625,-285.46142578125,-158.5693359375,0.0787353515625,-0.4622802734375,0.770751953125,-12.0,279.0,-468.0,101316.0,0.07100000232458115,0,0
77.445997,0.0538330078125,-0.0841064453125,0.1014404296875,0.98980712890625,-95.52001953125,-244.32373046875,-166.56494140625,-0.0159912109375,0.2525634765625,0.843505859375,-12.0,279.0,-468.0,101316.0,0.07100000232458115,0,0
77.466995,0.087127685546875,-0.068359375,0.085845947265625,0.9901123046875,-31.06689453125,-82.09228515625,-313.04931640625,-0.2763671875,0.7296142578125,0.3209228515625,-28.0,279.0,-461.0,101316.0,0.07100000232458115,0,0
77.473994,0.105743408203125,-0.0704345703125,0.072418212890625,0.989227294921875,-43.701171875,-67.44384765625,-287.90283203125,-0.35888671875,-0.2841796875,1.662841796875,-28.0,279.0,-461.0,101316.0,0.07300000637769699,0,0
77.480997,0.11724853515625,-0.06597900390625,0.0538330078125,0.98944091796875,-489.990234375,-206.787109375,-353.3935546875,0.0418701171875,-0.0777587890625,3.27734375,-28.0,279.0,-461.0,101316.0,0.07300000637769699,0,0
77.487998,0.13818359375,-0.062255859375,0.052978515625,0.98699951171875,50.6591796875,-44.25048828125,-243.0419921875,-0.220947265625,-0.3544921875,2.9786376953125,-28.0,279.0,-461.0,101316.0,0.07300000637769699,0,0
77.494997,0.16485595703125,-0.0535888671875,0.053924560546875,0.983367919921875,108.21533203125,-145.08056640625,-391.66259765625,0.02392578125,0.5184326171875,0.941650390625,-28.0,279.0,-461.0,101316.0,0.07300000637769699,0,0
77.501997,0.191009521484375,-0.04388427734375,0.057342529296875,0.978912353515625,103.33251953125,-140.2587890625,-396.3623046875,0.30810546875,0.181884765625,0.4852294921875,-28.0,279.0,-461.0,101316.0,0.07300000637769699,0,0
77.508995,0.19830322265625,-0.04058837890625,0.055511474609375,0.977691650390625,8.23974609375,-121.58203125,-204.52880859375,-0.488037109375,-1.341796875,1.0626220703125,-28.0,279.0,-461.0,101316.0,0.07300000637769699,0,0
77.515029,0.19830322265625,-0.04058837890625,0.055511474609375,0.977691650390625,8.23974609375,-121.58203125,-204.52880859375,-0.488037109375,-1.341796875,1.0626220703125,-28.0,279.0,-461.0,101316.0,0.07300000637769699,0,0
77.521996,0.214874267578125,-0.028289794921875,0.0443115234375,0.9752197265625,-102.47802734375,-160.400390625,-168.212890625,-0.1865234375,0.3121337890625,1.9345703125,-28.0,279.0,-461.0,101316.0,0.07300000637769699,0,0
77.528996,0.22528076171875,-0.018829345703125,0.03460693359375,0.973480224609375,-70.49560546875,-167.66357421875,-150.32958984375,0.095947265625,0.0494384765625,1.1358642578125,-28.0,279.0,-461.0,101316.0,0.07300000637769699,0,0
77.535995,0.23468017578125,-0.0078125,0.025848388671875,0.9716796875,-49.6826171875,-191.22314453125,-134.033203125,0.0484619140625,0.189697265625,1.3746337890625,-28.0,279.0,-461.0,101316.0,0.07300000637769699,0,0
77.556995,0.261932373046875,0.020416259765625,0.006866455078125,0.964813232421875,-118.7744140625,-194.88525390625,-167.724609375,0.03271484375,-0.319580078125,1.109130859375,-2.0,265.0,-462.0,101316.0,0.07300000637769699,0,0
77.563994,0.250091552734375,0.0361328125,0.002197265625,0.967529296875,52.1240234375,-294.189453125,-94.482421875,0.406494140625,-0.4940185546875,-0.0711669921875,-2.0,265.0,-462.0,101316.0,0.07300000637769699,0,0
77.570997,0.252777099609375,0.045623779296875,0.0008544921875,0.9664306640625,27.40478515625,-262.939453125,-79.77294921875,0.5733642578125,0.036865234375,0.7193603515625,-2.0,265.0,-462.0,101325.0,-0.0020000000949949026,0,0
77.577998,0.26312255859375,0.066162109375,-0.021148681640625,0.962249755859375,-138.427734375,-260.3759765625,-105.52978515625,0.298828125,-0.069091796875,0.911865234375,-2.0,265.0,-462.0,101325.0,-0.0020000000949949026,0,0
77.584997,0.266693115234375,0.07061767578125,-0.0318603515625,0.96063232421875,-257.2021484375,-200.13427734375,-95.0927734375,0.3848876953125,-0.595458984375,1.1380615234375,-2.0,265.0,-462.0,101325.0,-0.0020000000949949026,0,0
77.591997,0.276458740234375,0.087554931640625,-0.053466796875,0.95550537109375,-149.5361328125,-193.05419921875,-104.18701171875,0.111083984375,-0.22802734375,1.7247314453125,-2.0,265.0,-462.0,101325.0,-0.0020000000949949026,0,0
77.598995,0.27880859375,0.09429931640625,-0.056488037109375,0.954010009765625,-36.865234375,-204.7119140625,-78.79638671875,0.397216796875,-0.0867919921875,0.922607421875,-2.0,265.0,-462.0,101325.0,-0.0020000000949949026,0,0
77.605997,0.28070068359375,0.101165771484375,-0.060760498046875,0.952484130859375,-64.3310546875,-218.1396484375,-64.39208984375,0.4652099609375,-0.313720703125,1.1021728515625,-2.0,265.0,-462.0,101325.0,-0.0020000000949949026,0,0
77.612027,0.28070068359375,0.101165771484375,-0.060760498046875,0.952484130859375,-64.3310546875,-218.1396484375,-64.39208984375,0.4652099609375,-0.313720703125,1.1021728515625,-2.0,265.0,-462.0,101325.0,-0.0020000000949949026,0,0
77.618997,0.28802490234375,0.126983642578125,-0.08233642578125,0.945556640625,-90.6982421875,-247.86376953125,-52.42919921875,0.3643798828125,-0.1510009765625,0.37109375,-2.0,265.0,-462.0,101325.0,-0.0020000000949949026,0,0
77.625995,0.289215087890625,0.1341552734375,-0.086334228515625,0.94384765625,-52.8564453125,-231.0791015625,-50.048828125,0.29443359375,-0.3043212890625,1.05126953125,-2.0,265.0,-462.0,101325.0,-0.0020000000949949026,0,0
77.632996,0.2926025390625,0.15216064453125,-0.100433349609375,0.93865966796875,-63.5986328125,-217.59033203125,-47.607421875,0.326904296875,-0.3243408203125,0.93017578125,-2.0,265.0,-462.0,101325.0,-0.0020000000949949026,0,0
77.639995,0.2930908203125,0.157012939453125,-0.104888916015625,0.937225341796875,-76.11083984375,-171.7529296875,-23.3154296875,0.382568359375,-0.5350341796875,0.89208984375,-2.0,265.0,-462.0,101325.0,-0.0020000000949949026,0,0
77.646995,0.293670654296875,0.1644287109375,-0.113922119140625,0.934722900390625,-111.572265625,-141.29638671875,-8.85009765625,0.4000244140625,-0.623291015625,1.14501953125,-2.0,265.0,-462.0,101325.0,-0.0020000000949949026,0,0
77.653994,0.2923583984375,0.173004150390625,-0.121337890625,0.932647705078125,-37.41455078125,-143.37158203125,15.869140625,0.55224609375,-0.4752197265625,0.9208984375,-2.0,265.0,-462.0,101325.0,-0.0020000000949949026,0,0
77.660997,0.290924072265625,0.178009033203125,-0.12310791015625,0.931915283203125,3.0517578125,-155.517578125,23.01025390625,0.6265869140625,-0.3143310546875,1.2012939453125,22.0,243.0,-466.0,101325.0,-0.0020000000949949026,0,0
77.667998,0.208648681640625,0.20074462890625,-0.10809326171875,0.951019287109375,21.3623046875,-172.36328125,-11.04736328125,0.549072265625,-0.0767822265625,1.2587890625,22.0,243.0,-466.0,101325.0,-0.0020000000949949026,0,0
77.674996,0.207977294921875,0.21356201171875,-0.112762451171875,0.94781494140625,-64.75830078125,-180.35888671875,-14.404296875,0.357421875,-0.428466796875,1.619384765625,22.0,243.0,-466.0,101324.0,0.0010000000474974513,0,0
77.681997,0.20831298828125,0.21966552734375,-0.11346435546875,0.9462890625,7.8125,-177.06298828125,-32.16552734375,0.5440673828125,-0.0125732421875,0.909912109375,22.0,243.0,-466.0,101324.0,0.0010000000474974513,0,0
77.688997,0.2071533203125,0.23394775390625,-0.11346435546875,0.943084716796875,43.0908203125,-218.505859375,-15.0146484375,0.523193359375,-0.303466796875,0.671875,22.0,243.0,-466.0,101324.0,0.0010000000474974513,0,0
77.696001,0.2054443359375,0.248626708984375,-0.114471435546875,0.9395751953125,23.92578125,-205.26123046875,-0.6103515625,0.4443359375,-0.3697509765625,1.0535888671875,22.0,243.0,-466.0,101324.0,0.0010000000474974513,0,0
77.702033,0.2054443359375,0.248626708984375,-0.114471435546875,0.9395751953125,23.92578125,-205.26123046875,-0.6103515625,0.4443359375,-0.3697509765625,1.0535888671875,22.0,243.0,-466.0,101324.0,0.0010000000474974513,0,0
77.708997,0.20355224609375,0.260589599609375,-0.119293212890625,0.9361572265625,-26.06201171875,-106.4453125,13.916015625,0.6578369140625,-0.2105712890625,0.9210205078125,22.0,243.0,-466.0,101324.0,0.0010000000474974513,0,0
77.729999,0.20166015625,0.2735595703125,-0.120361328125,0.932708740234375,33.99658203125,-56.94580078125,-4.94384765625,0.783447265625,-0.5699462890625,0.697509765625,22.0,243.0,-466.0,101324.0,0.0010000000474974513,0,0
77.736996,0.19964599609375,0.27789306640625,-0.12310791015625,0.9315185546875,12.5732421875,-52.978515625,5.31005859375,0.72021484375,-0.45947265625,0.7479248046875,22.0,243.0,-466.0,101324.0,0.0010000000474974513,0,0
77.743999,0.19757080078125,0.282379150390625,-0.12750244140625,0.930023193359375,-5.18798828125,-61.95068359375,9.46044921875,0.76416015625,-0.406494140625,0.859375,22.0,243.0,-466.0,101324.0,0.0010000000474974513,0,0
77.750999,0.1966552734375,0.285736083984375,-0.12884521484375,0.928985595703125,8.544921875,-91.12548828125,4.150390625,0.7589111328125,-0.4183349609375,0.697265625,22.0,243.0,-466.0,101324.0,0.0010000000474974513,0,0
77.757998,0.195709228515625,0.292144775390625,-0.131591796875,0.92681884765625,-2.74658203125,-109.19189453125,-2.01416015625,0.6988525390625,-0.97607421875,0.6890869140625,30.0,218.0,-465.0,101324.0,0.0010000000474974513,0,0
77.764997,-0.028961181640625,0.321868896484375,-0.06097412109375,0.944366455078125,15.13671875,-115.8447265625,-6.2255859375,0.9129638671875,-0.85986328125,0.779296875,30.0,218.0,-465.0,101324.0,0.0010000000474974513,0,0
77.771997,-0.02984619140625,0.32586669921875,-0.060943603515625,0.942962646484375,24.23095703125,-120.17822265625,1.5869140625,0.8804931640625,-1.4022216796875,0.9498291015625,30.0,218.0,-465.0,101324.0,0.005000000353902578,0,0
77.778996,-0.032470703125,0.336883544921875,-0.061370849609375,0.93896484375,10.8642578125,-116.14990234375,11.16943359375,0.941162109375,-1.1195068359375,0.8111572265625,30.0,218.0,-465.0,101324.0,0.005000000353902578,0,0
77.785997,-0.033111572265625,0.339263916015625,-0.06109619140625,0.9381103515625,20.6298828125,-80.810546875,1.953125,0.7840576171875,-0.3447265625,1.07421875,30.0,218.0,-465.0,101324.0,0.005000000353902578,0,0
77.792995,-0.034149169921875,0.344390869140625,-0.06280517578125,0.936065673828125,-12.3291015625,-61.46240234375,-0.732421875,0.715576171875,-0.4962158203125,0.9024658203125,30.0,218.0,-465.0,101324.0,0.005000000353902578,0,0
77.799023,-0.034149169921875,0.344390869140625,-0.06280517578125,0.936065673828125,-12.3291015625,-61.46240234375,-0.732421875,0.715576171875,-0.4962158203125,0.9024658203125,30.0,218.0,-465.0,101324.0,0.005000000353902578,0,0
77.819995,-0.03253173828125,0.36407470703125,-0.05133056640625,0.929351806640625,23.681640625,-102.05078125,-27.4658203125,0.781005859375,-0.2015380859375,0.5101318359375,30.0,218.0,-465.0,101324.0,0.005000000353902578,0,0
77.826995,-0.032623291015625,0.367523193359375,-0.051483154296875,0.928009033203125,-1.52587890625,-90.33203125,-3.662109375,0.7890625,-0.1986083984375,0.58349609375,30.0,218.0,-465.0,101324.0,0.005000000353902578,0,0
77.833995,-0.03314208984375,0.375762939453125,-0.051513671875,0.9246826171875,-6.89697265625,-76.96533203125,14.0380859375,0.7777099609375,-0.046875,0.6787109375,30.0,218.0,-465.0,101324.0,0.005000000353902578,0,0
77.840997,-0.032745361328125,0.378509521484375,-0.05059814453125,0.923614501953125,-8.11767578125,-68.359375,3.47900390625,0.882080078125,0.29345703125,0.6331787109375,30.0,218.0,-465.0,101324.0,0.005000000353902578,0,0
77.847998,-0.032012939453125,0.38543701171875,-0.0482177734375,0.9208984375,6.04248046875,-86.97509765625,-4.94384765625,0.853271484375,0.1903076171875,0.6240234375,30.0,218.0,-465.0,101324.0,0.005000000353902578,0,0
77.854997,-0.0321044921875,0.392364501953125,-0.0455322265625,0.9180908203125,21.78955078125,-104.8583984375,-10.31494140625,0.8477783203125,0.1229248046875,0.7901611328125,30.0,218.0,-465.0,101324.0,0.005000000353902578,0,0
77.861997,-0.032257080078125,0.396148681640625,-0.043914794921875,0.916534423828125,33.8134765625,-117.3095703125,-12.5732421875,0.861328125,0.185791015625,0.7169189453125,31.0,182.0,-458.0,101324.0,0.005000000353902578,0,0
77.868996,-0.3253173828125,0.39532470703125,0.09100341796875,0.854156494140625,33.8134765625,-117.3095703125,-12.5732421875,0.861328125,0.185791015625,0.7169189453125,31.0,182.0,-458.0,101324.0,0.005000000353902578,0,0
77.875997,-0.32421875,0.400390625,0.093505859375,0.8519287109375,-5.18798828125,-87.0361328125,0.42724609375,0.810302734375,0.0718994140625,1.0269775390625,31.0,182.0,-458.0,101323.0,0.013000000268220901,0,0
77.882994,-0.3238525390625,0.401641845703125,0.09454345703125,0.85137939453125,-7.62939453125,-67.32177734375,5.37109375,0.7607421875,0.179931640625,0.9921875,31.0,182.0,-458.0,101323.0,0.013000000268220901,0,0
77.889022,-0.3238525390625,0.401641845703125,0.09454345703125,0.85137939453125,-7.62939453125,-67.32177734375,5.37109375,0.7607421875,0.179931640625,0.9921875,31.0,182.0,-458.0,101323.0,0.013000000268220901,0,0
77.895996,-0.321533203125,0.405853271484375,0.097625732421875,0.84991455078125,-13.671875,-32.16552734375,3.11279296875,0.767578125,0.1435546875,0.12158203125,31.0,182.0,-458.0,101323.0,0.013000000268220901,0,0
77.902996,-0.319976806640625,0.409912109375,0.099700927734375,0.848297119140625,-22.64404296875,-37.7197265625,1.3427734375,0.7298583984375,0.2568359375,0.16845703125,31.0,182.0,-458.0,101323.0,0.013000000268220901,0,0
77.909995,-0.319671630859375,0.412750244140625,0.100311279296875,0.846954345703125,-9.94873046875,-51.26953125,11.23046875,0.818115234375,-0.025390625,0.089599609375,31.0,182.0,-458.0,101323.0,0.013000000268220901,0,0
77.916995,-0.3197021484375,0.417236328125,0.10137939453125,0.8446044921875,-4.94384765625,-42.6025390625,25.2685546875,0.7979736328125,0.113525390625,0.2789306640625,31.0,182.0,-458.0,101323.0,0.013000000268220901,0,0
77.923994,-0.31884765625,0.419342041015625,0.103668212890625,0.8436279296875,-4.69970703125,-28.25927734375,12.75634765625,0.8150634765625,0.306396484375,0.3809814453125,31.0,182.0,-458.0,101323.0,0.013000000268220901,0,0
77.930997,-0.318389892578125,0.420562744140625,0.1044921875,0.84307861328125,-4.82177734375,-17.9443359375,3.11279296875,0.8843994140625,0.1273193359375,0.3115234375,31.0,182.0,-458.0,101323.0,0.013000000268220901,0,0
77.937998,-0.314453125,0.4287109375,0.101318359375,0.840850830078125,-9.21630859375,-50.29296875,4.7607421875,0.7960205078125,0.12109375,0.228271484375,31.0,182.0,-458.0,101323.0,0.013000000268220901,0,0
77.944997,-0.31097412109375,0.430755615234375,0.092315673828125,0.842132568359375,-278.80859375,25.87890625,15.5029296875,0.5809326171875,-0.4383544921875,1.1082763671875,31.0,182.0,-458.0,101323.0,0.013000000268220901,0,0
77.951997,-0.310150146484375,0.431610107421875,0.080841064453125,0.843170166015625,-283.75244140625,101.98974609375,99.12109375,1.0211181640625,-1.09619140625,0.265869140625,31.0,182.0,-458.0,101323.0,0.013000000268220901,0,0
77.958996,-0.3079833984375,0.42962646484375,0.037139892578125,0.8480224609375,-356.87255859375,193.66455078125,202.94189453125,1.0574951171875,-1.04833984375,-0.1741943359375,17.0,135.0,-452.0,101323.0,0.013000000268220901,0,0
77.965996,-0.575469970703125,0.39434814453125,0.173675537109375,0.695037841796875,-172.30224609375,58.349609375,61.70654296875,1.0194091796875,1.1776123046875,-1.001708984375,17.0,135.0,-452.0,101323.0,0.013000000268220901,0,0
77.972996,-0.5748291015625,0.393768310546875,0.172027587890625,0.696319580078125,-36.376953125,50.048828125,-17.822265625,0.8546142578125,1.330078125,0.294189453125,17.0,135.0,-452.0,101323.0,0.009000000543892384,0,0
77.993,-0.562347412109375,0.3724365234375,0.205230712890625,0.709136962890625,189.3310546875,-39.12353515625,-215.8203125,0.8529052734375,-0.2794189453125,0.1788330078125,17.0,135.0,-452.0,101323.0,0.009000000543892384,0,0
78.0,-0.5626220703125,0.373138427734375,0.202728271484375,0.70928955078125,-16.7236328125,-19.47021484375,-26.9775390625,0.5848388671875,-1.0343017578125,1.230712890625,17.0,135.0,-452.0,101323.0,0.009000000543892384,0,0
78.006996,-0.56353759765625,0.37481689453125,0.1978759765625,0.709014892578125,-74.27978515625,20.8740234375,31.73828125,0.583740234375,-0.9271240234375,0.890625,17.0,135.0,-452.0,101323.0,0.009000000543892384,0,0
78.013999,-0.56640625,0.36749267578125,0.1815185546875,0.714935302734375,-74.64599609375,127.197265625,17.2119140625,0.587158203125,0.1805419921875,1.8255615234375,17.0,135.0,-452.0,101323.0,0.009000000543892384,0,0
78.020998,-0.56744384765625,0.36651611328125,0.177703857421875,0.715576171875,-53.40576171875,100.76904296875,46.0205078125,0.6810302734375,-0.1468505859375,0.169189453125,17.0,135.0,-452.0,101323.0,0.009000000543892384,0,0
78.027998,-0.567962646484375,0.3663330078125,0.176422119140625,0.715576171875,-23.5595703125,48.64501953125,34.60693359375,0.6046142578125,0.045166015625,0.2237548828125,17.0,135.0,-452.0,101323.0,0.009000000543892384,0,0
78.034996,-0.567718505859375,0.368621826171875,0.17706298828125,0.714447021484375,-17.15087890625,-18.798828125,16.05224609375,0.7041015625,0.18115234375,0.5369873046875,17.0,135.0,-452.0,101323.0,0.009000000543892384,0,0
78.041997,-0.5679931640625,0.368621826171875,0.176788330078125,0.714263916015625,-14.22119140625,-10.8642578125,21.1181640625,0.697509765625,-0.00439453125,0.8822021484375,17.0,135.0,-452.0,101323.0,0.009000000543892384,0,0
78.048997,-0.56884765625,0.365509033203125,0.174652099609375,0.7156982421875,-20.01953125,18.06640625,18.310546875,0.70068359375,0.185546875,0.831787109375,17.0,135.0,-452.0,101323.0,0.009000000543892384,0,0
78.056,-0.568878173828125,0.360870361328125,0.171966552734375,0.71868896484375,-16.78466796875,82.33642578125,4.45556640625,0.6280517578125,0.2789306640625,0.8514404296875,17.0,135.0,-452.0,101323.0,0.009000000543892384,0,0
78.063,-0.568878173828125,0.358917236328125,0.171051025390625,0.71990966796875,-12.939453125,67.19970703125,0.18310546875,0.5869140625,0.197021484375,0.5738525390625,-2.0,82.0,-452.0,101323.0,0.009000000543892384,0,0
78.082997,-0.79705810546875,0.259674072265625,0.28411865234375,0.46527099609375,-29.052734375,115.66162109375,-6.28662109375,0.64111328125,-0.3743896484375,0.836669921875,-2.0,82.0,-452.0,101323.0,0.009000000543892384,0,0
78.089994,-0.799407958984375,0.26123046875,0.2744140625,0.466217041015625,-77.5146484375,116.02783203125,55.96923828125,0.5657958984375,-0.372314453125,0.525146484375,-2.0,82.0,-452.0,101323.0,0.009000000543892384,0,0
78.096995,-0.80169677734375,0.263702392578125,0.2646484375,0.466522216796875,-68.42041015625,103.759765625,57.43408203125,0.576416015625,0.0252685546875,0.2572021484375,-2.0,82.0,-452.0,101323.0,0.009000000543892384,0,0
78.103994,-0.80224609375,0.26458740234375,0.262237548828125,0.4664306640625,-44.43359375,72.3876953125,45.47119140625,0.644775390625,0.0662841796875,0.148681640625,-2.0,82.0,-452.0,101323.0,0.009000000543892384,0,0
78.110998,-0.801788330078125,0.264312744140625,0.2637939453125,0.46649169921875,10.8642578125,-3.35693359375,-2.44140625,0.679931640625,0.1495361328125,0.1719970703125,-2.0,82.0,-452.0,101323.0,0.009000000543892384,0,0
78.117998,-0.800079345703125,0.261322021484375,0.26922607421875,0.468017578125,34.912109375,-23.86474609375,-37.9638671875,0.628173828125,0.063232421875,0.6611328125,-2.0,82.0,-452.0,101323.0,0.009000000543892384,0,0
78.124997,-0.799957275390625,0.261199951171875,0.26904296875,0.468414306640625,32.1044921875,-16.54052734375,-41.015625,0.614501953125,-0.24169921875,0.6102294921875,-2.0,82.0,-452.0,101322.0,0.020000001415610313,0,0
78.131996,-0.800079345703125,0.261993408203125,0.267730712890625,0.468505859375,-13.3056640625,21.42333984375,-5.79833984375,0.6319580078125,-0.5255126953125,0.672607421875,-2.0,82.0,-452.0,101322.0,0.020000001415610313,0,0
78.138996,-0.800628662109375,0.26104736328125,0.263824462890625,0.470306396484375,-10.68115234375,46.44775390625,-7.01904296875,0.615478515625,-0.077880859375,0.661376953125,-2.0,82.0,-452.0,101322.0,0.020000001415610313,0,0
78.145997,-0.800384521484375,0.260589599609375,0.263641357421875,0.4710693359375,-5.67626953125,24.5361328125,-15.07568359375,0.6427001953125,-0.0244140625,0.5208740234375,-2.0,82.0,-452.0,101322.0,0.020000001415610313,0,0
78.200997,-0.92962646484375,0.082305908203125,0.358184814453125,0.026611328125,-7.8125,21.6064453125,0.91552734375,0.70654296875,-0.01318359375,0.7762451171875,-14.0,38.0,-453.0,101322.0,0.020000001415610313,0,0
78.207998,-0.930023193359375,0.081939697265625,0.357177734375,0.0269775390625,-10.7421875,28.25927734375,4.39453125,0.716064453125,0.1148681640625,0.8458251953125,-14.0,38.0,-453.0,101322.0,0.020000001415610313,0,0
78.214996,-0.93194580078125,0.08319091796875,0.351776123046875,0.027923583984375,-30.94482421875,64.27001953125,14.5263671875,0.732177734375,0.02685546875,0.7471923828125,-14.0,38.0,-453.0,101322.0,0.020000001415610313,0,0
78.221996,-0.93280029296875,0.083343505859375,0.349395751953125,0.02850341796875,-27.89306640625,78.4912109375,8.85009765625,0.744384765625,0.13720703125,0.7659912109375,-14.0,38.0,-453.0,101322.0,0.020000001415610313,0,0
78.228996,-0.934356689453125,0.08331298828125,0.34515380859375,0.02984619140625,-18.798828125,80.38330078125,2.5634765625,0.76953125,0.0565185546875,0.632568359375,-14.0,38.0,-453.0,101324.0,0.005000000353902578,0,0
78.235996,-0.935882568359375,0.083404541015625,0.3408203125,0.031341552734375,-11.5966796875,88.92822265625,-7.32421875,0.813720703125,-0.096923828125,0.5313720703125,-14.0,38.0,-453.0,101324.0,0.005000000353902578,0,0
78.256995,-0.94091796875,0.0850830078125,0.325958251953125,0.03350830078125,1.8310546875,99.18212890625,-18.24951171875,0.82568359375,-0.1085205078125,0.658935546875,-14.0,38.0,-453.0,101324.0,0.005000000353902578,0,0
78.263022,-0.94091796875,0.0850830078125,0.325958251953125,0.03350830078125,1.8310546875,99.18212890625,-18.24951171875,0.82568359375,-0.1085205078125,0.658935546875,-14.0,38.0,-453.0,101324.0,0.005000000353902578,0,0
78.269995,-0.906707763671875,-0.02130126953125,0.3265380859375,-0.265960693359375,13.916015625,102.47802734375,-17.9443359375,0.8096923828125,-0.0587158203125,0.9281005859375,-19.0,20.0,-446.0,101324.0,0.005000000353902578,0,0
78.276995,-0.910919189453125,-0.017913818359375,0.3157958984375,-0.264801025390625,-15.68603515625,185.4248046875,-19.6533203125,0.751220703125,0.08251953125,1.2939453125,-19.0,20.0,-446.0,101324.0,0.005000000353902578,0,0
78.283998,-0.916107177734375,-0.0125732421875,0.30279541015625,-0.262420654296875,-17.4560546875,175.1708984375,-26.85546875,0.8197021484375,0.1414794921875,0.8656005859375,-19.0,20.0,-446.0,101324.0,0.005000000353902578,0,0
78.290998,-0.919036865234375,-0.0113525390625,0.2943115234375,-0.26190185546875,17.39501953125,256.89697265625,-21.97265625,1.127197265625,0.2186279296875,1.6734619140625,-19.0,20.0,-446.0,101324.0,0.005000000353902578,0,0
78.297998,-0.92376708984375,-0.01007080078125,0.280242919921875,-0.260711669921875,3.72314453125,190.91796875,-18.798828125,0.7764892578125,-0.1754150390625,0.989013671875,-19.0,20.0,-446.0,101324.0,0.005000000353902578,0,0
78.304996,-0.9267578125,-0.008148193359375,0.27117919921875,-0.259765625,-3.41796875,137.02392578125,-13.916015625,0.631591796875,-0.011474609375,1.0638427734375,-19.0,20.0,-446.0,101324.0,0.005000000353902578,0,0
78.311997,-0.927978515625,-0.0076904296875,0.267120361328125,-0.2596435546875,14.70947265625,120.66650390625,-8.1787109375,0.5364990234375,-0.0238037109375,0.87158203125,-19.0,20.0,-446.0,101324.0,0.005000000353902578,0,0
78.318997,-0.9317626953125,-0.0057373046875,0.2548828125,-0.258392333984375,14.404296875,115.1123046875,-13.18359375,0.3818359375,-0.0338134765625,0.9091796875,-19.0,20.0,-446.0,101324.0,0.005000000353902578,0,0
78.339995,-0.936492919921875,-0.0037841796875,0.238067626953125,-0.25738525390625,18.9208984375,99.54833984375,-16.11328125,0.304931640625,0.238525390625,1.259765625,-19.0,20.0,-446.0,101323.0,0.013000000268220901,0,0
78.346999,-0.937408447265625,-0.00469970703125,0.234649658203125,-0.25714111328125,26.67236328125,76.72119140625,-11.53564453125,0.3349609375,0.148681640625,1.0618896484375,-19.0,20.0,-446.0,101323.0,0.013000000268220901,0,0
78.353027,-0.937408447265625,-0.00469970703125,0.234649658203125,-0.25714111328125,26.67236328125,76.72119140625,-11.53564453125,0.3349609375,0.148681640625,1.0618896484375,-19.0,20.0,-446.0,101323.0,0.013000000268220901,0,0
78.36,-0.94091796875,-0.003387451171875,0.2210693359375,-0.2564697265625,-3.60107421875,91.1865234375,-4.8828125,0.2841796875,0.1490478515625,1.05859375,-13.0,19.0,-446.0,101323.0,0.013000000268220901,0,0
78.366995,-0.87554931640625,-0.045135498046875,0.21270751953125,-0.431396484375,15.0146484375,98.32763671875,-14.2822265625,0.34765625,0.0947265625,0.8873291015625,-13.0,19.0,-446.0,101323.0,0.013000000268220901,0,0
78.373995,-0.8763427734375,-0.0443115234375,0.20977783203125,-0.431243896484375,10.43701171875,89.90478515625,-10.92529296875,0.3695068359375,-0.0557861328125,0.7972412109375,-13.0,19.0,-446.0,101323.0,0.013000000268220901,0,0
78.380998,-0.878265380859375,-0.040191650390625,0.202392578125,-0.43133544921875,-9.521484375,85.02197265625,-2.8076171875,0.368896484375,0.0140380859375,1.0709228515625,-13.0,19.0,-446.0,101323.0,0.013000000268220901,0,0
78.387998,-0.878570556640625,-0.037750244140625,0.20086669921875,-0.431610107421875,-32.3486328125,71.22802734375,11.77978515625,0.376220703125,-0.210205078125,0.8768310546875,-13.0,19.0,-446.0,101323.0,0.013000000268220901,0,0
78.394997,-0.88031005859375,-0.035003662109375,0.192626953125,-0.43206787109375,-1.77001953125,72.8759765625,3.90625,0.322265625,0.130126953125,1.037841796875,-13.0,19.0,-446.0,101323.0,0.013000000268220901,0,0
78.401997,-0.8809814453125,-0.03472900390625,0.18963623046875,-0.432037353515625,14.95361328125,72.265625,-5.55419921875,0.2762451171875,0.063720703125,1.0208740234375,-13.0,19.0,-446.0,101323.0,0.013000000268220901,0,0
78.408996,-0.88232421875,-0.0323486328125,0.18438720703125,-0.4317626953125,0.0,79.40673828125,-6.2255859375,0.282470703125,-0.0150146484375,1.0013427734375,-13.0,19.0,-446.0,101323.0,0.013000000268220901,0,0
78.415997,-0.883636474609375,-0.029449462890625,0.178741455078125,-0.431671142578125,-7.32421875,91.00341796875,-1.953125,0.27490234375,-0.002197265625,0.84033203125,-13.0,19.0,-446.0,101323.0,0.013000000268220901,0,0
78.422995,-0.88427734375,-0.028472900390625,0.175323486328125,-0.43182373046875,10.19287109375,95.947265625,0.18310546875,0.2406005859375,0.0018310546875,0.8870849609375,-13.0,19.0,-446.0,101324.0,0.006000000052154064,0,0
78.429995,-0.8858642578125,-0.027008056640625,0.167938232421875,-0.431610107421875,20.6298828125,98.32763671875,-6.53076171875,0.2218017578125,0.096435546875,0.9766845703125,-13.0,19.0,-446.0,101324.0,0.006000000052154064,0,0
78.436995,-0.887359619140625,-0.0244140625,0.161102294921875,-0.4312744140625,5.2490234375,105.5908203125,-9.58251953125,0.2060546875,0.034912109375,0.980712890625,-13.0,19.0,-446.0,101324.0,0.006000000052154064,0,0
78.443998,-0.888946533203125,-0.02154541015625,0.15350341796875,-0.430908203125,4.8828125,111.87744140625,-7.50732421875,0.2193603515625,0.0216064453125,0.9423828125,-13.0,19.0,-446.0,101324.0,0.006000000052154064,0,0
78.45003,-0.888946533203125,-0.02154541015625,0.15350341796875,-0.430908203125,4.8828125,111.87744140625,-7.50732421875,0.2193603515625,0.0216064453125,0.9423828125,-13.0,19.0,-446.0,101324.0,0.006000000052154064,0,0
78.456994,-0.89190673828125,-0.01690673828125,0.140594482421875,-0.429443359375,9.94873046875,136.04736328125,-21.97265625,0.20947265625,0.1044921875,0.900634765625,-13.0,19.0,-446.0,101324.0,0.006000000052154064,0,0
78.463994,-0.89288330078125,-0.014862060546875,0.136138916015625,-0.428924560546875,-0.18310546875,142.39501953125,-19.287109375,0.2379150390625,-0.114990234375,0.90576171875,-5.0,21.0,-450.0,101324.0,0.006000000052154064,0,0
78.470998,-0.822540283203125,-0.028289794921875,0.124664306640625,-0.55413818359375,-6.4697265625,147.52197265625,-9.033203125,0.251953125,-0.0281982421875,0.85400390625,-5.0,21.0,-450.0,101324.0,0.006000000052154064,0,0
78.477998,-0.823944091796875,-0.022430419921875,0.117340087890625,-0.55389404296875,-12.939453125,135.80322265625,-5.126953125,0.22412109375,-0.0467529296875,1.0662841796875,-5.0,21.0,-450.0,101324.0,0.006000000052154064,0,0
78.484996,-0.825286865234375,-0.0162353515625,0.109710693359375,-0.553680419921875,-15.80810546875,140.13671875,-5.126953125,0.1717529296875,-0.00341796875,1.136474609375,-5.0,21.0,-450.0,101324.0,0.006000000052154064,0,0
78.491997,-0.82623291015625,-0.01385498046875,0.105499267578125,-0.553131103515625,2.86865234375,140.56396484375,-21.1181640625,0.18359375,0.193115234375,0.8812255859375,-5.0,21.0,-450.0,101324.0,0.006000000052154064,0,0
78.498995,-0.828033447265625,-0.007781982421875,0.09722900390625,-0.552093505859375,-4.69970703125,153.80859375,-12.75634765625,0.1739501953125,-0.1619873046875,1.1177978515625,-5.0,21.0,-450.0,101324.0,0.006000000052154064,0,0
78.519994,-0.831787109375,0.011444091796875,0.070831298828125,-0.5504150390625,8.23974609375,165.1611328125,-6.77490234375,0.1199951171875,0.091552734375,0.8419189453125,-5.0,21.0,-450.0,101324.0,0.006000000052154064,0,0
78.526995,-0.832183837890625,0.01409912109375,0.066192626953125,-0.55029296875,7.9345703125,155.6396484375,-2.13623046875,0.1644287109375,-0.007080078125,0.897216796875,-5.0,21.0,-450.0,101324.0,0.006000000052154064,0,0
78.533997,-0.832550048828125,0.01629638671875,0.061187744140625,-0.55029296875,26.42822265625,155.2734375,0.732421875,0.1387939453125,-0.069580078125,0.942626953125,-5.0,21.0,-450.0,101324.0,0.006000000052154064,0,0
78.54003,-0.832550048828125,0.01629638671875,0.061187744140625,-0.55029296875,26.42822265625,155.2734375,0.732421875,0.1387939453125,-0.069580078125,0.942626953125,-5.0,21.0,-450.0,101324.0,0.006000000052154064,0,0
78.546995,-0.8336181640625,0.02685546875,0.042449951171875,-0.550018310546875,6.16455078125,141.78466796875,0.48828125,0.1412353515625,0.1298828125,0.68115234375,-5.0,21.0,-450.0,101324.0,0.006000000052154064,0,0
78.553995,-0.83380126953125,0.029144287109375,0.037689208984375,-0.54998779296875,16.41845703125,150.20751953125,3.2958984375,0.02978515625,0.0694580078125,1.308837890625,-5.0,21.0,-450.0,101324.0,0.006000000052154064,0,0
78.560998,-0.835174560546875,0.029510498046875,0.0230712890625,-0.548675537109375,64.697265625,112.60986328125,-10.80322265625,0.04638671875,0.1778564453125,0.996337890625,-2.0,30.0,-456.0,101324.0,0.006000000052154064,0,0
78.567998,-0.7877197265625,0.02728271484375,0.02117919921875,-0.615020751953125,70.4345703125,75.68359375,2.44140625,-0.1793212890625,0.012451171875,1.412841796875,-2.0,30.0,-456.0,101324.0,0.006000000052154064,0,0
78.574997,-0.78802490234375,0.026519775390625,0.01812744140625,-0.614776611328125,38.9404296875,37.353515625,-10.3759765625,-0.224365234375,0.3023681640625,1.1556396484375,-2.0,30.0,-456.0,101324.0,0.006000000052154064,0,0
78.581996,-0.787139892578125,0.027923583984375,0.015167236328125,-0.615936279296875,-6.4697265625,29.6630859375,15.93017578125,-0.1170654296875,-0.014404296875,0.961181640625,-2.0,30.0,-456.0,101324.0,0.006000000052154064,0,0
78.602999,-0.786895751953125,0.028472900390625,0.006103515625,-0.616363525390625,28.86962890625,59.02099609375,1.03759765625,-0.0201416015625,0.0386962890625,0.862548828125,-2.0,30.0,-456.0,101324.0,0.006000000052154064,0,0
78.609995,-0.787017822265625,0.02923583984375,0.00128173828125,-0.6162109375,23.62060546875,54.0771484375,0.3662109375,-0.0380859375,-0.0181884765625,0.8896484375,-2.0,30.0,-456.0,101324.0,0.006000000052154064,0,0
78.616999,-0.787017822265625,0.03021240234375,-0.003448486328125,-0.61614990234375,28.4423828125,64.63623046875,-0.48828125,-0.022216796875,0.0416259765625,0.9901123046875,-2.0,30.0,-456.0,101324.0,0.006000000052154064,0,0
78.623998,-0.787017822265625,0.0303955078125,-0.006011962890625,-0.616119384765625,39.97802734375,62.3779296875,1.3427734375,-0.0333251953125,-0.0308837890625,1.0888671875,-2.0,30.0,-456.0,101324.0,0.006000000052154064,0,0
78.630998,-0.786956787109375,0.03131103515625,-0.010772705078125,-0.6160888671875,34.48486328125,62.19482421875,2.38037109375,0.0133056640625,-0.0377197265625,1.1126708984375,-2.0,30.0,-456.0,101324.0,0.006000000052154064,0,0
78.637029,-0.786956787109375,0.03131103515625,-0.010772705078125,-0.6160888671875,34.48486328125,62.19482421875,2.38037109375,0.0133056640625,-0.0377197265625,1.1126708984375,-2.0,30.0,-456.0,101324.0,0.006000000052154064,0,0
78.643999,-0.786102294921875,0.03192138671875,-0.01861572265625,-0.616943359375,48.7060546875,68.84765625,15.56396484375,-0.0244140625,0.088623046875,0.9552001953125,-2.0,30.0,-456.0,101324.0,0.006000000052154064,0,0
78.650999,-0.7857666015625,0.03363037109375,-0.023406982421875,-0.617156982421875,9.94873046875,67.138671875,11.3525390625,0.01025390625,-0.0814208984375,1.2823486328125,-2.0,30.0,-456.0,101324.0,0.006000000052154064,0,0
78.657998,-0.785247802734375,0.03521728515625,-0.0263671875,-0.617584228515625,-9.21630859375,38.87939453125,9.3994140625,-0.1737060546875,0.14990234375,1.1326904296875,-2.0,30.0,-456.0,101324.0,0.006000000052154064,0,0
78.664997,-0.785064697265625,0.03607177734375,-0.027740478515625,-0.617706298828125,-21.66748046875,39.9169921875,3.96728515625,-0.163330078125,0.283203125,1.0198974609375,5.0,31.0,-458.0,101324.0,0.006000000052154064,0,0
78.671996,-0.752227783203125,0.039398193359375,-0.02874755859375,-0.657073974609375,-7.32421875,47.119140625,11.77978515625,-0.1102294921875,0.1629638671875,0.7916259765625,5.0,31.0,-458.0,101324.0,0.006000000052154064,0,0
78.678996,-0.751495361328125,0.040679931640625,-0.032257080078125,-0.657684326171875,-0.1220703125,61.03515625,12.02392578125,-0.03125,0.1923828125,1.1517333984375,5.0,31.0,-458.0,101324.0,0.006000000052154064,0,0
78.685996,-0.751068115234375,0.0433349609375,-0.036468505859375,-0.657745361328125,-8.60595703125,71.6552734375,7.8125,-0.033203125,0.1571044921875,1.38232421875,5.0,31.0,-458.0,101324.0,0.006000000052154064,0,0
78.692995,-0.750946044921875,0.045562744140625,-0.03875732421875,-0.6575927734375,-13.61083984375,95.39794921875,-1.0986328125,-0.113525390625,0.07373046875,1.3328857421875,5.0,31.0,-458.0,101324.0,0.006000000052154064,0,0
78.699994,-0.750396728515625,0.052734375,-0.04693603515625,-0.65716552734375,1.8310546875,107.91015625,0.0,-0.0198974609375,0.07080078125,0.943603515625,5.0,31.0,-458.0,101324.0,0.006000000052154064,0,0
78.706995,-0.750152587890625,0.054656982421875,-0.049652099609375,-0.6571044921875,4.82177734375,95.5810546875,3.662109375,-0.1204833984375,0.04052734375,0.81494140625,5.0,31.0,-458.0,101324.0,0.006000000052154064,0,0
78.713997,-0.750030517578125,0.056365966796875,-0.052337646484375,-0.656890869140625,5.79833984375,84.04541015625,-2.01416015625,-0.1956787109375,0.0816650390625,0.7823486328125,5.0,31.0,-458.0,101324.0,0.006000000052154064,0,0
78.720998,-0.74981689453125,0.05950927734375,-0.060455322265625,-0.656158447265625,30.2734375,86.97509765625,-3.60107421875,-0.044677734375,0.033203125,1.064208984375,5.0,31.0,-458.0,101324.0,0.006000000052154064,0,0
78.727025,-0.74981689453125,0.05950927734375,-0.060455322265625,-0.656158447265625,30.2734375,86.97509765625,-3.60107421875,-0.044677734375,0.033203125,1.064208984375,5.0,31.0,-458.0,101324.0,0.006000000052154064,0,0
78.733994,-0.74969482421875,0.062255859375,-0.066619873046875,-0.655426025390625,18.1884765625,93.8720703125,-7.080078125,-0.207763671875,0.0950927734375,1.08740234375,5.0,31.0,-458.0,101324.0,0.004000000189989805,0,0
78.740998,-0.749237060546875,0.069580078125,-0.074462890625,-0.65435791015625,-10.92529296875,109.0087890625,-1.953125,-0.197509765625,-0.0010986328125,1.1214599609375,5.0,31.0,-458.0,101324.0,0.004000000189989805,0,0
78.747998,-0.748870849609375,0.072509765625,-0.0767822265625,-0.65423583984375,-19.10400390625,105.40771484375,2.99072265625,-0.1666259765625,-0.056396484375,0.7855224609375,5.0,31.0,-458.0,101324.0,0.004000000189989805,0,0
78.754996,-0.748138427734375,0.077484130859375,-0.0833740234375,-0.653656005859375,-18.798828125,91.796875,1.52587890625,-0.2491455078125,0.03564453125,0.654296875,5.0,31.0,-458.0,101324.0,0.004000000189989805,0,0
78.775996,-0.72509765625,0.084228515625,-0.093292236328125,-0.677032470703125,37.41455078125,68.90869140625,-5.55419921875,-0.11865234375,0.058349609375,1.2872314453125,30.0,28.0,-455.0,101324.0,0.004000000189989805,0,0
78.782995,-0.725128173828125,0.086822509765625,-0.095855712890625,-0.67633056640625,-6.4697265625,106.4453125,-17.822265625,-0.2464599609375,0.22705078125,1.1402587890625,30.0,28.0,-455.0,101324.0,0.004000000189989805,0,0
78.789995,-0.724945068359375,0.0936279296875,-0.10040283203125,-0.674957275390625,-30.1513671875,116.455078125,-16.357421875,-0.2376708984375,0.19677734375,0.9405517578125,30.0,28.0,-455.0,101324.0,0.004000000189989805,0,0
78.796995,-0.7249755859375,0.09912109375,-0.10467529296875,-0.673492431640625,-24.23095703125,89.9658203125,-18.73779296875,-0.235595703125,0.1378173828125,0.7620849609375,30.0,28.0,-455.0,101324.0,0.004000000189989805,0,0
78.803998,-0.7252197265625,0.10125732421875,-0.106842041015625,-0.672576904296875,-6.7138671875,92.46826171875,-26.18408203125,-0.227294921875,0.0887451171875,0.91552734375,30.0,28.0,-455.0,101324.0,0.004000000189989805,0,0
78.810998,-0.725311279296875,0.106292724609375,-0.11102294921875,-0.6710205078125,-6.89697265625,96.25244140625,-20.01953125,-0.244873046875,-0.0638427734375,1.2579345703125,30.0,28.0,-455.0,101324.0,0.004000000189989805,0,0
78.817997,-0.725006103515625,0.11297607421875,-0.117095947265625,-0.669189453125,-16.11328125,143.98193359375,-15.56396484375,-0.301025390625,-0.04296875,1.0904541015625,30.0,28.0,-455.0,101324.0,0.004000000189989805,0,0
78.82403,-0.725006103515625,0.11297607421875,-0.117095947265625,-0.669189453125,-16.11328125,143.98193359375,-15.56396484375,-0.301025390625,-0.04296875,1.0904541015625,30.0,28.0,-455.0,101324.0,0.004000000189989805,0,0
78.830997,-0.723724365234375,0.123382568359375,-0.1259765625,-0.667144775390625,-16.9677734375,128.60107421875,-7.32421875,-0.30078125,0.02978515625,0.858154296875,30.0,28.0,-455.0,101324.0,0.005000000353902578,0,0
78.837998,-0.72332763671875,0.127349853515625,-0.1324462890625,-0.665557861328125,27.40478515625,102.4169921875,-4.638671875,-0.31787109375,-0.075927734375,0.83251953125,30.0,28.0,-455.0,101324.0,0.005000000353902578,0,0
78.844997,-0.72283935546875,0.130462646484375,-0.1390380859375,-0.664154052734375,29.11376953125,98.876953125,-0.30517578125,-0.3377685546875,-0.032470703125,0.8702392578125,30.0,28.0,-455.0,101324.0,0.005000000353902578,0,0
78.865997,-0.7059326171875,0.142608642578125,-0.14947509765625,-0.677459716796875,12.20703125,100.52490234375,-3.173828125,-0.35498046875,0.105712890625,0.9200439453125,60.0,29.0,-455.0,101324.0,0.005000000353902578,0,0
78.872996,-0.705413818359375,0.144775390625,-0.151580810546875,-0.67706298828125,-10.31494140625,88.80615234375,-1.64794921875,-0.3868408203125,0.080322265625,0.8629150390625,60.0,29.0,-455.0,101324.0,0.005000000353902578,0,0
78.879996,-0.70428466796875,0.149505615234375,-0.155426025390625,-0.67633056640625,-22.94921875,95.03173828125,-1.28173828125,-0.388671875,0.0960693359375,0.947509765625,60.0,29.0,-455.0,101324.0,0.005000000353902578,0,0
78.886999,-0.703399658203125,0.1539306640625,-0.160247802734375,-0.675140380859375,5.4931640625,80.38330078125,-2.62451171875,-0.46337890625,-0.04736328125,0.6435546875,60.0,29.0,-455.0,101324.0,0.005000000353902578,0,0
78.893998,-0.703125,0.1551513671875,-0.16265869140625,-0.674560546875,18.37158203125,64.63623046875,-3.23486328125,-0.436767578125,0.0654296875,0.5885009765625,60.0,29.0,-455.0,101324.0,0.005000000353902578,0,0
78.900998,-0.7030029296875,0.15679931640625,-0.16888427734375,-0.672760009765625,24.4140625,47.91259765625,-9.521484375,-0.4735107421875,0.1317138671875,0.8701171875,60.0,29.0,-455.0,101324.0,0.005000000353902578,0,0
78.907997,-0.703155517578125,0.157928466796875,-0.17047119140625,-0.67193603515625,2.01416015625,59.4482421875,-22.64404296875,-0.399658203125,0.1390380859375,0.8570556640625,60.0,29.0,-455.0,101324.0,0.005000000353902578,0,0
78.91403,-0.703155517578125,0.157928466796875,-0.17047119140625,-0.67193603515625,2.01416015625,59.4482421875,-22.64404296875,-0.399658203125,0.1390380859375,0.8570556640625,60.0,29.0,-455.0,101324.0,0.005000000353902578,0,0
78.920999,-0.703125,0.162689208984375,-0.175872802734375,-0.66943359375,11.65771484375,54.62646484375,-15.869140625,-0.48193359375,0.1798095703125,0.8028564453125,60.0,29.0,-455.0,101324.0,0.005000000353902578,0,0
78.927998,-0.703338623046875,0.16302490234375,-0.177490234375,-0.668731689453125,29.9072265625,37.109375,-12.0849609375,-0.468017578125,-0.0032958984375,0.7750244140625,60.0,29.0,-455.0,101323.0,0.010000000707805157,0,0
78.934997,-0.703521728515625,0.163177490234375,-0.178863525390625,-0.668121337890625,24.2919921875,31.6162109375,-12.02392578125,-0.4400634765625,0.0506591796875,0.8060302734375,60.0,29.0,-455.0,101323.0,0.010000000707805157,0,0
78.941996,-0.703857421875,0.16510009765625,-0.1822509765625,-0.6663818359375,0.06103515625,38.26904296875,-11.29150390625,-0.4613037109375,0.047119140625,0.91845703125,60.0,29.0,-455.0,101323.0,0.010000000707805157,0,0
78.948996,-0.703765869140625,0.165679931640625,-0.18341064453125,-0.666015625,5.126953125,43.02978515625,-7.4462890625,-0.431640625,0.1004638671875,0.942626953125,60.0,29.0,-455.0,101323.0,0.010000000707805157,0,0
78.956,-0.703094482421875,0.1693115234375,-0.18695068359375,-0.664825439453125,-3.7841796875,52.8564453125,-3.7841796875,-0.417724609375,0.0667724609375,1.0047607421875,60.0,29.0,-455.0,101323.0,0.010000000707805157,0,0
78.962996,-0.702789306640625,0.170989990234375,-0.188201904296875,-0.66436767578125,-5.615234375,61.1572265625,-4.5166015625,-0.4609375,-0.0338134765625,0.8150634765625,99.0,29.0,-455.0,101323.0,0.010000000707805157,0,0
78.969994,-0.693206787109375,0.174835205078125,-0.187347412109375,-0.673614501953125,4.0283203125,57.373046875,-3.84521484375,-0.478759765625,0.0306396484375,0.80322265625,99.0,29.0,-455.0,101323.0,0.010000000707805157,0,0
78.976994,-0.69219970703125,0.177825927734375,-0.192413330078125,-0.67242431640625,9.765625,55.60302734375,-0.06103515625,-0.4886474609375,-0.0203857421875,0.823486328125,99.0,29.0,-455.0,101323.0,0.010000000707805157,0,0
78.983997,-0.691864013671875,0.17852783203125,-0.1939697265625,-0.672119140625,7.2021484375,50.72021484375,-0.42724609375,-0.4925537109375,0.1318359375,0.906982421875,99.0,29.0,-455.0,101323.0,0.010000000707805157,0,0
78.990998,-0.691131591796875,0.180450439453125,-0.196685791015625,-0.67156982421875,-6.77490234375,47.7294921875,-1.708984375,-0.46923828125,0.17431640625,0.8701171875,99.0,29.0,-455.0,101323.0,0.010000000707805157,0,0
78.997997,-0.6905517578125,0.183258056640625,-0.19903564453125,-0.670745849609375,-11.71875,47.05810546875,-7.2021484375,-0.513916015625,0.0867919921875,0.7825927734375,99.0,29.0,-455.0,101323.0,0.010000000707805157,0,0
79.004997,-0.690338134765625,0.18450927734375,-0.20001220703125,-0.670318603515625,-6.7138671875,48.88916015625,-8.30078125,-0.4803466796875,0.0506591796875,0.8262939453125,99.0,29.0,-455.0,101323.0,0.010000000707805157,0,0
79.011029,-0.690338134765625,0.18450927734375,-0.20001220703125,-0.670318603515625,-6.7138671875,48.88916015625,-8.30078125,-0.4803466796875,0.0506591796875,0.8262939453125,99.0,29.0,-455.0,101323.0,0.010000000707805157,0,0
79.017998,-0.68994140625,0.18780517578125,-0.205322265625,-0.668182373046875,23.13232421875,35.888671875,-0.06103515625,-0.4986572265625,-0.039794921875,0.77099609375,99.0,29.0,-455.0,101323.0,0.010000000707805157,0,0
79.052995,-0.688720703125,0.193817138671875,-0.21563720703125,-0.66448974609375,-1.64794921875,37.17041015625,-13.916015625,-0.5460205078125,0.0462646484375,0.8341064453125,99.0,29.0,-455.0,101324.0,0.0,0,0
79.059995,-0.688568115234375,0.19586181640625,-0.217071533203125,-0.66357421875,-6.7138671875,48.7060546875,-14.70947265625,-0.504638671875,0.1319580078125,0.9071044921875,140.0,26.0,-450.0,101324.0,0.0,0,0
79.066995,-0.680633544921875,0.20062255859375,-0.216583251953125,-0.67047119140625,-3.35693359375,47.91259765625,-15.9912109375,-0.539794921875,0.0540771484375,0.8214111328125,140.0,26.0,-450.0,101324.0,0.0,0,0
79.073997,-0.68096923828125,0.20086669921875,-0.2176513671875,-0.669708251953125,16.11328125,42.41943359375,-20.6298828125,-0.4901123046875,0.10693359375,1.009033203125,140.0,26.0,-450.0,101324.0,0.0,0,0
79.080998,-0.68121337890625,0.2022705078125,-0.219451904296875,-0.668426513671875,11.53564453125,74.3408203125,-0.9765625,-0.4769287109375,-0.212158203125,1.3817138671875,140.0,26.0,-450.0,101324.0,0.0,0,0
79.087996,-0.680145263671875,0.205810546875,-0.2235107421875,-0.6671142578125,10.986328125,96.8017578125,5.615234375,-0.591552734375,-0.0526123046875,0.9129638671875,140.0,26.0,-450.0,101324.0,0.0,0,0
79.094997,-0.679229736328125,0.207672119140625,-0.225830078125,-0.66668701171875,8.4228515625,76.7822265625,13.85498046875,-0.5716552734375,-0.0382080078125,0.5469970703125,140.0,26.0,-450.0,101324.0,0.0,0,0
79.101029,-0.679229736328125,0.207672119140625,-0.225830078125,-0.66668701171875,8.4228515625,76.7822265625,13.85498046875,-0.5716552734375,-0.0382080078125,0.5469970703125,140.0,26.0,-450.0,101324.0,0.0,0,0
79.107998,-0.6778564453125,0.21099853515625,-0.23406982421875,-0.6641845703125,-3.60107421875,31.6162109375,-18.4326171875,-0.5904541015625,0.1207275390625,0.609375,140.0,26.0,-450.0,101324.0,0.0,0,0
79.128995,-0.6776123046875,0.216552734375,-0.240203857421875,-0.66046142578125,27.64892578125,31.982421875,-1.3427734375,-0.6199951171875,-0.1397705078125,0.4564208984375,140.0,26.0,-450.0,101323.0,0.00800000037997961,0,0
79.135997,-0.677581787109375,0.2161865234375,-0.24420166015625,-0.659149169921875,29.052734375,20.6298828125,5.4931640625,-0.5989990234375,-0.02880859375,0.6710205078125,140.0,26.0,-450.0,101323.0,0.00800000037997961,0,0
79.142995,-0.677398681640625,0.216705322265625,-0.245819091796875,-0.658538818359375,18.1884765625,54.01611328125,-6.7138671875,-0.6173095703125,0.1185302734375,0.9324951171875,140.0,26.0,-450.0,101323.0,0.00800000037997961,0,0
79.149994,-0.6771240234375,0.2174072265625,-0.24737548828125,-0.65802001953125,14.95361328125,56.57958984375,-3.60107421875,-0.5604248046875,0.0831298828125,0.8455810546875,140.0,26.0,-450.0,101323.0,0.00800000037997961,0,0
79.156995,-0.67633056640625,0.22015380859375,-0.252960205078125,-0.655792236328125,10.92529296875,63.53759765625,-3.84521484375,-0.57373046875,0.1370849609375,0.87939453125,140.0,26.0,-450.0,101323.0,0.00800000037997961,0,0
79.163998,-0.676177978515625,0.22100830078125,-0.2545166015625,-0.655059814453125,17.51708984375,44.86083984375,-7.99560546875,-0.5960693359375,0.0262451171875,0.588623046875,183.0,24.0,-442.0,101323.0,0.00800000037997961,0,0
79.170998,-0.691741943359375,0.215545654296875,-0.262451171875,-0.63726806640625,21.3623046875,35.70556640625,-2.99072265625,-0.6099853515625,-0.0281982421875,0.647216796875,183.0,24.0,-442.0,101323.0,0.00800000037997961,0,0
79.177996,-0.69140625,0.21630859375,-0.26568603515625,-0.636016845703125,22.03369140625,33.75244140625,-3.173828125,-0.654541015625,0.044677734375,0.7803955078125,183.0,24.0,-442.0,101323.0,0.00800000037997961,0,0
79.184997,-0.69122314453125,0.2166748046875,-0.267364501953125,-0.635406494140625,28.564453125,37.53662109375,0.67138671875,-0.6669921875,0.0086669921875,0.6478271484375,183.0,24.0,-442.0,101323.0,0.00800000037997961,0,0
79.191996,-0.690765380859375,0.216522216796875,-0.270538330078125,-0.634613037109375,28.13720703125,28.4423828125,5.55419921875,-0.63232421875,0.021484375,0.5780029296875,183.0,24.0,-442.0,101323.0,0.00800000037997961,0,0
79.198029,-0.690765380859375,0.216522216796875,-0.270538330078125,-0.634613037109375,28.13720703125,28.4423828125,5.55419921875,-0.63232421875,0.021484375,0.5780029296875,183.0,24.0,-442.0,101323.0,0.00800000037997961,0,0
79.204997,-0.69091796875,0.216552734375,-0.274444580078125,-0.63275146484375,3.0517578125,46.142578125,-20.99609375,-0.6075439453125,0.194091796875,0.8018798828125,183.0,24.0,-442.0,101323.0,0.00800000037997961,0,0
79.211997,-0.690826416015625,0.218505859375,-0.276336669921875,-0.631317138671875,0.06103515625,33.3251953125,-16.66259765625,-0.65625,0.0789794921875,0.5240478515625,183.0,24.0,-442.0,101323.0,0.00800000037997961,0,0
79.218996,-0.69140625,0.218536376953125,-0.27728271484375,-0.63031005859375,20.44677734375,5.7373046875,-8.11767578125,-0.6688232421875,0.0015869140625,0.7633056640625,183.0,24.0,-442.0,101323.0,0.00800000037997961,0,0
79.226001,-0.691680908203125,0.21820068359375,-0.277801513671875,-0.629852294921875,22.39990234375,14.892578125,-8.11767578125,-0.65185546875,0.05224609375,0.922119140625,183.0,24.0,-442.0,101324.0,0.005000000353902578,0,0
79.233,-0.69189453125,0.217864990234375,-0.279083251953125,-0.629180908203125,15.9912109375,28.6865234375,-6.65283203125,-0.61083984375,0.1455078125,0.9266357421875,183.0,24.0,-442.0,101324.0,0.005000000353902578,0,0
79.239995,-0.691680908203125,0.218658447265625,-0.281646728515625,-0.628021240234375,9.09423828125,38.2080078125,-11.90185546875,-0.681640625,0.1304931640625,0.6488037109375,183.0,24.0,-442.0,101324.0,0.005000000353902578,0,0
79.246999,-0.691558837890625,0.219390869140625,-0.28338623046875,-0.627105712890625,7.01904296875,21.78955078125,-9.033203125,-0.6822509765625,0.0677490234375,0.4814453125,183.0,24.0,-442.0,101324.0,0.005000000353902578,0,0
79.253999,-0.691680908203125,0.21942138671875,-0.283843994140625,-0.626739501953125,5.67626953125,13.0615234375,-11.962890625,-0.671875,0.1534423828125,0.7877197265625,183.0,24.0,-442.0,101324.0,0.005000000353902578,0,0
79.260998,-0.691986083984375,0.220001220703125,-0.28485107421875,-0.625732421875,4.2724609375,30.94482421875,-15.93017578125,-0.616943359375,0.0936279296875,0.9283447265625,224.0,23.0,-430.0,101324.0,0.005000000353902578,0,0
79.267996,-0.71112060546875,0.212249755859375,-0.292877197265625,-0.60284423828125,8.30078125,48.88916015625,-14.22119140625,-0.6510009765625,-0.0330810546875,0.8817138671875,224.0,23.0,-430.0,101324.0,0.005000000353902578,0,0
79.274997,-0.710906982421875,0.2132568359375,-0.29437255859375,-0.602020263671875,13.5498046875,40.22216796875,-9.82666015625,-0.73486328125,0.0098876953125,0.545166015625,224.0,23.0,-430.0,101324.0,0.005000000353902578,0,0
79.281996,-0.711212158203125,0.21319580078125,-0.297515869140625,-0.600128173828125,22.88818359375,11.16943359375,-12.3291015625,-0.6805419921875,0.1539306640625,0.6207275390625,224.0,23.0,-430.0,101324.0,0.005000000353902578,0,0
79.301996,-0.71160888671875,0.215606689453125,-0.302276611328125,-0.596405029296875,2.62451171875,38.4521484375,-26.18408203125,-0.642822265625,0.2601318359375,0.8502197265625,224.0,23.0,-430.0,101324.0,0.005000000353902578,0,0
79.308996,-0.71160888671875,0.216888427734375,-0.303314208984375,-0.59539794921875,4.39453125,42.48046875,-20.69091796875,-0.7108154296875,-0.0172119140625,0.62939453125,224.0,23.0,-430.0,101324.0,0.005000000353902578,0,0
79.315997,-0.712249755859375,0.21795654296875,-0.305450439453125,-0.593170166015625,7.9345703125,18.61572265625,-15.0146484375,-0.670166015625,0.0062255859375,0.473388671875,224.0,23.0,-430.0,101324.0,0.005000000353902578,0,0
79.322994,-0.712432861328125,0.21844482421875,-0.306182861328125,-0.592376708984375,12.939453125,35.888671875,-18.00537109375,-0.6820068359375,0.02978515625,0.855224609375,224.0,23.0,-430.0,101324.0,0.005000000353902578,0,0
79.329994,-0.7125244140625,0.21905517578125,-0.306915283203125,-0.5916748046875,12.451171875,35.33935546875,-10.80322265625,-0.6705322265625,-0.0345458984375,0.7952880859375,224.0,23.0,-430.0,101324.0,0.005000000353902578,0,0
79.336995,-0.71209716796875,0.220367431640625,-0.310546875,-0.58978271484375,13.73291015625,37.17041015625,-5.859375,-0.665771484375,-0.0184326171875,0.83349609375,224.0,23.0,-430.0,101324.0,0.005000000353902578,0,0
79.343997,-0.711944580078125,0.2208251953125,-0.311798095703125,-0.589141845703125,9.1552734375,33.26416015625,-14.404296875,-0.6785888671875,0.1663818359375,0.58642578125,224.0,23.0,-430.0,101324.0,0.005000000353902578,0,0
79.350998,-0.711883544921875,0.221832275390625,-0.3135986328125,-0.587860107421875,6.4697265625,28.50341796875,-15.07568359375,-0.7073974609375,0.1522216796875,0.6136474609375,224.0,23.0,-430.0,101324.0,0.005000000353902578,0,0
79.357996,-0.711669921875,0.22344970703125,-0.3150634765625,-0.586761474609375,-2.99072265625,30.517578125,-12.20703125,-0.7056884765625,0.062744140625,0.6541748046875,224.0,23.0,-430.0,101324.0,0.005000000353902578,0,0
79.364996,-0.711578369140625,0.2242431640625,-0.31561279296875,-0.586273193359375,0.54931640625,24.84130859375,-9.033203125,-0.7178955078125,-0.003662109375,0.65185546875,258.0,24.0,-414.0,101324.0,0.005000000353902578,0,0
79.371996,-0.71734619140625,0.221832275390625,-0.318817138671875,-0.578338623046875,0.1220703125,19.83642578125,-5.18798828125,-0.706298828125,0.0157470703125,0.6580810546875,258.0,24.0,-414.0,101324.0,0.005000000353902578,0,0
79.391996,-0.71588134765625,0.2259521484375,-0.321380615234375,-0.577178955078125,-9.8876953125,11.53564453125,5.0048828125,-0.707763671875,-0.0899658203125,0.405517578125,258.0,24.0,-414.0,101324.0,0.007000000216066837,0,0
79.398996,-0.71502685546875,0.226898193359375,-0.321685791015625,-0.57769775390625,-5.0048828125,34.7900390625,12.451171875,-0.744140625,0.0380859375,0.9097900390625,258.0,24.0,-414.0,101324.0,0.007000000216066837,0,0
79.405997,-0.714324951171875,0.2275390625,-0.322540283203125,-0.57781982421875,-2.01416015625,36.0107421875,16.7236328125,-0.72705078125,0.001220703125,0.728515625,258.0,24.0,-414.0,101324.0,0.007000000216066837,0,0
79.412994,-0.712738037109375,0.228271484375,-0.324249267578125,-0.578521728515625,2.3193359375,20.69091796875,22.216796875,-0.708251953125,0.1053466796875,0.604248046875,258.0,24.0,-414.0,101324.0,0.007000000216066837,0,0
79.419994,-0.71142578125,0.228363037109375,-0.325775146484375,-0.579254150390625,-2.50244140625,20.263671875,18.798828125,-0.722900390625,0.11328125,0.672607421875,258.0,24.0,-414.0,101324.0,0.007000000216066837,0,0
79.426994,-0.710723876953125,0.228485107421875,-0.326446533203125,-0.579681396484375,-5.06591796875,18.24951171875,17.578125,-0.708251953125,0.1363525390625,0.64892578125,258.0,24.0,-414.0,101324.0,0.007000000216066837,0,0
79.433998,-0.70947265625,0.228729248046875,-0.327423095703125,-0.58056640625,-5.7373046875,18.9208984375,16.17431640625,-0.7012939453125,0.157958984375,0.7415771484375,258.0,24.0,-414.0,101324.0,0.007000000216066837,0,0
79.440998,-0.70831298828125,0.229034423828125,-0.32879638671875,-0.581085205078125,-5.31005859375,28.99169921875,7.38525390625,-0.7135009765625,0.1778564453125,0.75048828125,258.0,24.0,-414.0,101324.0,0.007000000216066837,0,0
79.447996,-0.707183837890625,0.22991943359375,-0.3302001953125,-0.581298828125,-14.16015625,29.72412109375,1.953125,-0.6983642578125,0.2105712890625,0.676025390625,258.0,24.0,-414.0,101324.0,0.007000000216066837,0,0
79.454996,-0.70660400390625,0.23065185546875,-0.330780029296875,-0.5814208984375,-19.47021484375,33.3251953125,-1.64794921875,-0.7005615234375,0.21630859375,0.716064453125,258.0,24.0,-414.0,101324.0,0.007000000216066837,0,0
79.461996,-0.7056884765625,0.23248291015625,-0.331787109375,-0.581207275390625,-16.66259765625,36.68212890625,-10.7421875,-0.717041015625,0.189697265625,0.7103271484375,288.0,27.0,-396.0,101324.0,0.007000000216066837,0,0
79.469001,-0.748931884765625,0.207366943359375,-0.35015869140625,-0.522918701171875,-12.39013671875,33.447265625,-11.3525390625,-0.7174072265625,0.077392578125,0.7315673828125,288.0,27.0,-396.0,101324.0,0.007000000216066837,0,0
79.475032,-0.748931884765625,0.207366943359375,-0.35015869140625,-0.522918701171875,-12.39013671875,33.447265625,-11.3525390625,-0.7174072265625,0.077392578125,0.7315673828125,288.0,27.0,-396.0,101324.0,0.007000000216066837,0,0
79.481997,-0.74798583984375,0.210479736328125,-0.3524169921875,-0.521514892578125,-6.77490234375,48.40087890625,-11.41357421875,-0.7362060546875,0.04052734375,0.7369384765625,288.0,27.0,-396.0,101324.0,0.0020000000949949026,0,0
79.488996,-0.74713134765625,0.2125244140625,-0.354522705078125,-0.520477294921875,-2.74658203125,50.29296875,-8.056640625,-0.7265625,0.0537109375,0.7235107421875,288.0,27.0,-396.0,101324.0,0.0020000000949949026,0,0
79.496,-0.746734619140625,0.21331787109375,-0.35577392578125,-0.51983642578125,3.47900390625,50.23193359375,-11.23046875,-0.737060546875,0.0994873046875,0.6976318359375,288.0,27.0,-396.0,101324.0,0.0020000000949949026,0,0
79.502999,-0.745574951171875,0.21588134765625,-0.359588623046875,-0.517852783203125,2.13623046875,51.33056640625,-13.18359375,-0.75048828125,0.0789794921875,0.678466796875,288.0,27.0,-396.0,101324.0,0.0020000000949949026,0,0
79.509995,-0.745208740234375,0.21673583984375,-0.36083984375,-0.51715087890625,2.5634765625,51.69677734375,-13.61083984375,-0.73779296875,0.1021728515625,0.6900634765625,288.0,27.0,-396.0,101324.0,0.0020000000949949026,0,0
79.516999,-0.743896484375,0.219818115234375,-0.36474609375,-0.514984130859375,2.0751953125,52.24609375,-15.31982421875,-0.74609375,0.119384765625,0.665771484375,288.0,27.0,-396.0,101324.0,0.0020000000949949026,0,0
79.523998,-0.743408203125,0.220977783203125,-0.366058349609375,-0.514251708984375,-3.7841796875,58.04443359375,-15.93017578125,-0.756591796875,0.1060791015625,0.6654052734375,288.0,27.0,-396.0,101324.0,0.0020000000949949026,0,0
79.530998,-0.742950439453125,0.222137451171875,-0.36737060546875,-0.51348876953125,-2.86865234375,56.0302734375,-17.63916015625,-0.7547607421875,0.1007080078125,0.639892578125,288.0,27.0,-396.0,101324.0,0.0020000000949949026,0,0
79.537996,-0.741729736328125,0.2257080078125,-0.371063232421875,-0.511016845703125,-2.44140625,54.19921875,-19.53125,-0.7513427734375,0.1241455078125,0.62158203125,288.0,27.0,-396.0,101324.0,0.0020000000949949026,0,0
79.544996,-0.7413330078125,0.227020263671875,-0.37225341796875,-0.510162353515625,-7.01904296875,56.640625,-22.39990234375,-0.7744140625,0.093505859375,0.644287109375,288.0,27.0,-396.0,101324.0,0.0020000000949949026,0,0
79.565996,-0.7391357421875,0.233489990234375,-0.37872314453125,-0.505645751953125,12.26806640625,46.44775390625,-0.8544921875,-0.7763671875,-0.0667724609375,0.5264892578125,308.0,33.0,-379.0,101324.0,0.0020000000949949026,0,0
79.572023,-0.7391357421875,0.233489990234375,-0.37872314453125,-0.505645751953125,12.26806640625,46.44775390625,-0.8544921875,-0.7763671875,-0.0667724609375,0.5264892578125,308.0,33.0,-379.0,101324.0,0.0020000000949949026,0,0
79.578995,-0.781890869140625,0.196624755859375,-0.40234375,-0.43365478515625,8.544921875,15.5029296875,13.427734375,-0.7734375,-0.0072021484375,0.447265625,308.0,33.0,-379.0,101324.0,0.004000000189989805,0,0
79.585996,-0.7816162109375,0.196746826171875,-0.402801513671875,-0.43365478515625,5.06591796875,2.3193359375,9.82666015625,-0.8626708984375,-0.04345703125,0.4630126953125,308.0,33.0,-379.0,101324.0,0.004000000189989805,0,0
79.592994,-0.78125,0.196380615234375,-0.40325927734375,-0.43408203125,5.31005859375,1.953125,7.8125,-0.8095703125,0.070068359375,0.5179443359375,308.0,33.0,-379.0,101324.0,0.004000000189989805,0,0
79.599994,-0.78076171875,0.1966552734375,-0.403594970703125,-0.434478759765625,-14.22119140625,-1.953125,-1.89208984375,-0.8485107421875,0.1102294921875,0.484130859375,308.0,33.0,-379.0,101324.0,0.004000000189989805,0,0
79.606994,-0.780120849609375,0.197601318359375,-0.403900146484375,-0.4349365234375,-20.263671875,5.37109375,-2.0751953125,-0.8675537109375,0.1434326171875,0.54736328125,308.0,33.0,-379.0,101324.0,0.004000000189989805,0,0
79.613998,-0.780059814453125,0.197723388671875,-0.40374755859375,-0.435150146484375,-14.58740234375,-3.11279296875,-6.103515625,-0.7769775390625,0.1795654296875,0.56298828125,308.0,33.0,-379.0,101324.0,0.004000000189989805,0,0
79.620998,-0.78021240234375,0.198486328125,-0.403045654296875,-0.435150146484375,-7.8125,5.18798828125,-2.62451171875,-0.7862548828125,-0.0374755859375,0.69921875,308.0,33.0,-379.0,101324.0,0.004000000189989805,0,0
79.627996,-0.780181884765625,0.19879150390625,-0.40313720703125,-0.435028076171875,-3.11279296875,8.48388671875,-1.46484375,-0.7972412109375,0.038818359375,0.6527099609375,308.0,33.0,-379.0,101324.0,0.004000000189989805,0,0
79.634996,-0.78009033203125,0.198699951171875,-0.403289794921875,-0.43505859375,2.0751953125,-0.54931640625,2.197265625,-0.796875,0.0633544921875,0.5455322265625,308.0,33.0,-379.0,101324.0,0.004000000189989805,0,0
79.655994,-0.779937744140625,0.19781494140625,-0.403778076171875,-0.435302734375,0.6103515625,-10.07080078125,2.25830078125,-0.7965087890625,0.0860595703125,0.517333984375,308.0,33.0,-379.0,101324.0,0.004000000189989805,0,0
79.662022,-0.779937744140625,0.19781494140625,-0.403778076171875,-0.435302734375,0.6103515625,-10.07080078125,2.25830078125,-0.7965087890625,0.0860595703125,0.517333984375,308.0,33.0,-379.0,101324.0,0.004000000189989805,0,0
79.668995,-0.7952880859375,0.1822509765625,-0.409576416015625,-0.408050537109375,0.6103515625,-5.67626953125,6.28662109375,-0.76318359375,0.0965576171875,0.647216796875,327.0,39.0,-363.0,101324.0,0.004000000189989805,0,0
79.675997,-0.795318603515625,0.181884765625,-0.409393310546875,-0.408355712890625,0.6103515625,-5.67626953125,6.28662109375,-0.76318359375,0.0965576171875,0.647216796875,327.0,39.0,-363.0,101325.0,0.0,0,0
79.682994,-0.795196533203125,0.1815185546875,-0.409637451171875,-0.408477783203125,4.33349609375,5.615234375,-0.67138671875,-0.8023681640625,0.088623046875,0.6492919921875,327.0,39.0,-363.0,101325.0,0.0,0,0
79.689995,-0.795166015625,0.18145751953125,-0.40960693359375,-0.408599853515625,3.2958984375,-9.82666015625,9.033203125,-0.7978515625,-0.03076171875,0.4864501953125,327.0,39.0,-363.0,101325.0,0.0,0,0
79.696994,-0.7952880859375,0.179962158203125,-0.409271240234375,-0.40936279296875,6.16455078125,-17.39501953125,9.6435546875,-0.786376953125,0.0653076171875,0.5379638671875,327.0,39.0,-363.0,101325.0,0.0,0,0
79.703998,-0.79522705078125,0.18017578125,-0.408966064453125,-0.409698486328125,-10.986328125,-24.5361328125,8.72802734375,-0.7850341796875,-0.02099609375,0.3177490234375,327.0,39.0,-363.0,101325.0,0.0,0,0
79.710998,-0.795440673828125,0.17901611328125,-0.408721923828125,-0.4100341796875,14.5263671875,-25.5126953125,9.21630859375,-0.818359375,0.1724853515625,0.5799560546875,327.0,39.0,-363.0,101325.0,0.0,0,0
79.717996,-0.79644775390625,0.177520751953125,-0.406768798828125,-0.410675048828125,0.0,-35.7666015625,2.38037109375,-0.7626953125,0.1734619140625,0.3214111328125,327.0,39.0,-363.0,101325.0,0.0,0,0
79.724997,-0.796722412109375,0.177642822265625,-0.40606689453125,-0.4107666015625,-11.5966796875,-11.29150390625,-7.38525390625,-0.7725830078125,0.0740966796875,0.6915283203125,327.0,39.0,-363.0,101325.0,0.0,0,0
79.731995,-0.796966552734375,0.177703857421875,-0.405517578125,-0.41082763671875,-7.75146484375,-17.578125,-4.638671875,-0.7872314453125,0.0443115234375,0.5665283203125,327.0,39.0,-363.0,101325.0,0.0,0,0
79.738996,-0.798492431640625,0.1763916015625,-0.40283203125,-0.41107177734375,-1.89208984375,-50.23193359375,-9.765625,-0.776611328125,0.0751953125,0.4576416015625,327.0,39.0,-363.0,101325.0,0.0,0,0
79.745995,-0.79925537109375,0.17578125,-0.401458740234375,-0.411163330078125,-2.13623046875,-56.640625,-9.521484375,-0.8065185546875,0.0894775390625,0.504150390625,327.0,39.0,-363.0,101325.0,0.0,0,0
79.752022,-0.79925537109375,0.17578125,-0.401458740234375,-0.411163330078125,-2.13623046875,-56.640625,-9.521484375,-0.8065185546875,0.0894775390625,0.504150390625,327.0,39.0,-363.0,101325.0,0.0,0,0
79.758995,-0.802276611328125,0.173187255859375,-0.39544677734375,-0.412200927734375,-16.78466796875,-35.2783203125,-5.37109375,-0.7440185546875,0.002685546875,0.7752685546875,327.0,39.0,-363.0,101325.0,0.0,0,0
79.765997,-0.802825927734375,0.173065185546875,-0.39398193359375,-0.412567138671875,-13.48876953125,-30.2734375,-1.89208984375,-0.7476806640625,0.013427734375,0.7945556640625,343.0,40.0,-345.0,101325.0,0.0,0,0
79.772999,-0.84912109375,0.12249755859375,-0.410003662109375,-0.309539794921875,-16.78466796875,-34.5458984375,6.53076171875,-0.7454833984375,-0.0596923828125,0.6417236328125,343.0,40.0,-345.0,101325.0,0.0,0,0
79.779995,-0.84954833984375,0.122650146484375,-0.408233642578125,-0.310699462890625,-6.7138671875,-23.01025390625,15.44189453125,-0.780517578125,-0.011474609375,0.61328125,343.0,40.0,-345.0,101324.0,0.006000000052154064,0,0
79.786999,-0.849761962890625,0.1224365234375,-0.407379150390625,-0.311309814453125,-3.7841796875,-36.31591796875,19.10400390625,-0.7830810546875,-0.0555419921875,0.5201416015625,343.0,40.0,-345.0,101324.0,0.006000000052154064,0,0
79.793999,-0.850433349609375,0.121246337890625,-0.405181884765625,-0.31280517578125,2.50244140625,-49.98779296875,22.94921875,-0.753662109375,-0.011962890625,0.5367431640625,343.0,40.0,-345.0,101324.0,0.006000000052154064,0,0
79.800998,-0.851531982421875,0.11932373046875,-0.402008056640625,-0.314666748046875,0.91552734375,-65.185546875,18.9208984375,-0.7618408203125,0.13525390625,0.5855712890625,343.0,40.0,-345.0,101324.0,0.006000000052154064,0,0
79.807997,-0.852752685546875,0.1171875,-0.398406982421875,-0.31671142578125,-1.5869140625,-72.69287109375,24.96337890625,-0.8175048828125,-0.001708984375,0.6600341796875,343.0,40.0,-345.0,101324.0,0.006000000052154064,0,0
79.829001,-0.855010986328125,0.113128662109375,-0.390533447265625,-0.321868896484375,-14.22119140625,-55.11474609375,22.88818359375,-0.7288818359375,0.0382080078125,0.6549072265625,343.0,40.0,-345.0,101324.0,0.006000000052154064,0,0
79.835999,-0.85552978515625,0.112213134765625,-0.388885498046875,-0.32275390625,-1.03759765625,-52.001953125,20.99609375,-0.718994140625,0.07470703125,0.737060546875,343.0,40.0,-345.0,101324.0,0.006000000052154064,0,0
79.842996,-0.857269287109375,0.108795166015625,-0.384429931640625,-0.324676513671875,15.2587890625,-56.2744140625,17.15087890625,-0.72607421875,0.099853515625,0.6632080078125,343.0,40.0,-345.0,101324.0,0.006000000052154064,0,0
79.849027,-0.857269287109375,0.108795166015625,-0.384429931640625,-0.324676513671875,15.2587890625,-56.2744140625,17.15087890625,-0.72607421875,0.099853515625,0.6632080078125,343.0,40.0,-345.0,101324.0,0.006000000052154064,0,0
79.856001,-0.85845947265625,0.10626220703125,-0.380950927734375,-0.326507568359375,10.009765625,-63.78173828125,24.10888671875,-0.6947021484375,0.078369140625,0.706787109375,343.0,40.0,-345.0,101324.0,0.006000000052154064,0,0
79.862996,-0.859466552734375,0.10394287109375,-0.377655029296875,-0.328399658203125,5.2490234375,-54.13818359375,28.38134765625,-0.6954345703125,0.08984375,0.7098388671875,352.0,42.0,-329.0,101324.0,0.006000000052154064,0,0
79.869995,-0.888031005859375,0.06549072265625,-0.38232421875,-0.246795654296875,0.8544921875,-68.78662109375,33.02001953125,-0.732666015625,-0.052490234375,0.6025390625,352.0,42.0,-329.0,101324.0,0.006000000052154064,0,0
79.876995,-0.888671875,0.06427001953125,-0.38018798828125,-0.24810791015625,-0.42724609375,-70.1904296875,33.8134765625,-0.6766357421875,0.1392822265625,0.708740234375,352.0,42.0,-329.0,101324.0,0.0010000000474974513,0,0
79.883998,-0.890411376953125,0.061370849609375,-0.374114990234375,-0.2518310546875,-1.8310546875,-56.884765625,31.6162109375,-0.6761474609375,0.101806640625,0.8519287109375,352.0,42.0,-329.0,101324.0,0.0010000000474974513,0,0
79.890998,-0.89080810546875,0.060821533203125,-0.3721923828125,-0.25335693359375,-17.27294921875,-61.70654296875,36.9873046875,-0.6602783203125,0.10498046875,0.66162109375,352.0,42.0,-329.0,101324.0,0.0010000000474974513,0,0
79.911996,-0.893035888671875,0.059173583984375,-0.361053466796875,-0.26190185546875,-30.517578125,-77.0263671875,43.3349609375,-0.59423828125,0.0828857421875,0.667724609375,352.0,42.0,-329.0,101324.0,0.0010000000474974513,0,0
79.918996,-0.8948974609375,0.055145263671875,-0.35345458984375,-0.2667236328125,9.70458984375,-84.53369140625,53.03955078125,-0.6337890625,-0.02392578125,0.7213134765625,352.0,42.0,-329.0,101324.0,0.0010000000474974513,0,0
79.925995,-0.8955078125,0.053558349609375,-0.35076904296875,-0.268524169921875,5.43212890625,-87.82958984375,55.35888671875,-0.6431884765625,0.05712890625,0.781005859375,352.0,42.0,-329.0,101324.0,0.0010000000474974513,0,0
79.932995,-0.896087646484375,0.05194091796875,-0.348052978515625,-0.27044677734375,0.67138671875,-88.5009765625,55.2978515625,-0.59228515625,0.110107421875,0.7279052734375,352.0,42.0,-329.0,101324.0,0.0010000000474974513,0,0
79.939027,-0.896087646484375,0.05194091796875,-0.348052978515625,-0.27044677734375,0.67138671875,-88.5009765625,55.2978515625,-0.59228515625,0.110107421875,0.7279052734375,352.0,42.0,-329.0,101324.0,0.0010000000474974513,0,0
79.945997,-0.897918701171875,0.047821044921875,-0.337310791015625,-0.278656005859375,-17.15087890625,-93.93310546875,57.18994140625,-0.6229248046875,0.0921630859375,0.7291259765625,352.0,42.0,-329.0,101324.0,0.0010000000474974513,0,0
79.952995,-0.8988037109375,0.046112060546875,-0.331390380859375,-0.28314208984375,-24.23095703125,-92.6513671875,56.640625,-0.614013671875,0.1195068359375,0.723876953125,352.0,42.0,-329.0,101324.0,0.0010000000474974513,0,0
79.959995,-0.9000244140625,0.043853759765625,-0.32476806640625,-0.2872314453125,-14.70947265625,-104.91943359375,54.87060546875,-0.6019287109375,0.0347900390625,0.7510986328125,352.0,42.0,-329.0,101324.0,0.0010000000474974513,0,0
79.966995,-0.90057373046875,0.04241943359375,-0.321685791015625,-0.28924560546875,-6.4697265625,-96.923828125,56.57958984375,-0.6302490234375,0.1165771484375,0.8525390625,356.0,41.0,-322.0,101324.0,0.0010000000474974513,0,0
79.973998,-0.89111328125,0.050628662109375,-0.314544677734375,-0.323028564453125,-5.615234375,-87.21923828125,57.9833984375,-0.6427001953125,0.0941162109375,0.8514404296875,356.0,41.0,-322.0,101324.0,0.0010000000474974513,0,0
79.980998,-0.8917236328125,0.048126220703125,-0.308502197265625,-0.327545166015625,-13.97705078125,-97.412109375,64.51416015625,-0.513916015625,0.0928955078125,0.7581787109375,356.0,41.0,-322.0,101324.0,0.007000000216066837,0,0
79.987996,-0.89208984375,0.0465087890625,-0.305328369140625,-0.329742431640625,-7.568359375,-100.9521484375,61.5234375,-0.4886474609375,0.168701171875,0.77978515625,356.0,41.0,-322.0,101324.0,0.007000000216066837,0,0
