Time stamp(sec),quaternion_0,quaternion_1,quaternion_2,quaternion_3,roll_angular_rate,pitch_angular_rate,yaw_angular_rate,acc_X,acc_Y,acc_Z,mag_X,mag_Y,mag_Z,pressure,altitude
1.463032,0.038299560546875,-0.706634521484375,0.705169677734375,0.043670654296875,0.0,-0.1220703125,0.0,-0.113037109375,0.00634765625,-0.97509765625,-141.0,3.0,76.0,101224.0,0.8360000252723694,0,0
1.469996,0.038299560546875,-0.706634521484375,0.705169677734375,0.043670654296875,-0.30517578125,-0.06103515625,0.1220703125,-0.11328125,0.0059814453125,-0.97412109375,-141.0,3.0,76.0,101224.0,0.8360000252723694,0,0
1.476995,0.038299560546875,-0.706634521484375,0.705169677734375,0.043670654296875,-0.1220703125,-0.1220703125,0.18310546875,-0.1142578125,0.0064697265625,-0.9742431640625,-141.0,3.0,76.0,101224.0,0.8360000252723694,0,0
1.483996,0.038299560546875,-0.706634521484375,0.705169677734375,0.043670654296875,-0.1220703125,-0.1220703125,0.1220703125,-0.11279296875,0.005859375,-0.9732666015625,-141.0,3.0,76.0,101224.0,0.8360000252723694,0,0
1.490995,0.038299560546875,-0.706634521484375,0.705169677734375,0.043670654296875,0.06103515625,-0.06103515625,-0.06103515625,-0.114501953125,0.0062255859375,-0.9730224609375,-141.0,3.0,76.0,101224.0,0.8360000252723694,0,0
1.497994,0.038299560546875,-0.706634521484375,0.705169677734375,0.043670654296875,-0.06103515625,-0.244140625,0.0,-0.1126708984375,0.007080078125,-0.973388671875,-141.0,3.0,76.0,101224.0,0.8360000252723694,0,0
1.504998,0.038299560546875,-0.706634521484375,0.705169677734375,0.043670654296875,0.18310546875,-0.18310546875,0.1220703125,-0.1142578125,0.0079345703125,-0.9730224609375,-141.0,3.0,76.0,101224.0,0.8350000381469727,0,0
1.511998,0.038299560546875,-0.70672607421875,0.705047607421875,0.043670654296875,0.0,-0.244140625,0.0,-0.1134033203125,0.00732421875,-0.9732666015625,-142.0,2.0,75.0,101224.0,0.8350000381469727,0,0
1.518997,0.03826904296875,-0.70672607421875,0.705047607421875,0.043670654296875,0.06103515625,-0.244140625,0.0,-0.11328125,0.007568359375,-0.97314453125,-142.0,2.0,75.0,101224.0,0.8350000381469727,0,0
1.525996,0.03826904296875,-0.70672607421875,0.705047607421875,0.043670654296875,-0.06103515625,0.06103515625,0.06103515625,-0.11376953125,0.00830078125,-0.9718017578125,-142.0,2.0,75.0,101224.0,0.8350000381469727,0,0
1.546996,0.038299560546875,-0.70672607421875,0.705047607421875,0.043701171875,-0.1220703125,-0.06103515625,0.1220703125,-0.1146240234375,0.0068359375,-0.972900390625,-142.0,2.0,75.0,101224.0,0.8350000381469727,0,0
1.553995,0.03826904296875,-0.70672607421875,0.705047607421875,0.043701171875,0.06103515625,-0.06103515625,-0.1220703125,-0.1123046875,0.00732421875,-0.9727783203125,-142.0,2.0,75.0,101224.0,0.8350000381469727,0,0
1.560022,0.03826904296875,-0.70672607421875,0.705047607421875,0.043701171875,0.06103515625,-0.06103515625,-0.1220703125,-0.1123046875,0.00732421875,-0.9727783203125,-142.0,2.0,75.0,101224.0,0.8350000381469727,0,0
1.566995,0.03826904296875,-0.70672607421875,0.705047607421875,0.043701171875,0.1220703125,-0.06103515625,0.1220703125,-0.1123046875,0.007568359375,-0.974365234375,-142.0,2.0,75.0,101224.0,0.8350000381469727,0,0
1.573996,0.03826904296875,-0.70672607421875,0.705047607421875,0.043701171875,-0.06103515625,-0.1220703125,0.06103515625,-0.110595703125,0.006103515625,-0.971435546875,-142.0,2.0,75.0,101224.0,0.8350000381469727,0,0
1.580995,0.03826904296875,-0.70672607421875,0.705047607421875,0.043670654296875,-0.18310546875,-0.1220703125,-0.18310546875,-0.112060546875,0.0074462890625,-0.972900390625,-142.0,2.0,75.0,101224.0,0.8350000381469727,0,0
1.587994,0.03826904296875,-0.70672607421875,0.705047607421875,0.043701171875,-0.18310546875,-0.1220703125,-0.1220703125,-0.1156005859375,0.0074462890625,-0.9720458984375,-142.0,2.0,75.0,101224.0,0.8350000381469727,0,0
1.594998,0.03826904296875,-0.70672607421875,0.705047607421875,0.043670654296875,0.06103515625,-0.06103515625,-0.06103515625,-0.113037109375,0.007568359375,-0.9732666015625,-142.0,2.0,75.0,101224.0,0.8350000381469727,0,0
1.601998,0.03826904296875,-0.70672607421875,0.705047607421875,0.043670654296875,-0.18310546875,-0.06103515625,0.1220703125,-0.1141357421875,0.0074462890625,-0.9732666015625,-142.0,2.0,75.0,101224.0,0.8350000381469727,0,0
1.608997,0.03826904296875,-0.70672607421875,0.705047607421875,0.043701171875,0.18310546875,-0.06103515625,-0.1220703125,-0.11474609375,0.00732421875,-0.9718017578125,-144.0,2.0,75.0,101224.0,0.8350000381469727,0,0
1.615996,0.03826904296875,-0.70684814453125,0.704925537109375,0.043701171875,-0.06103515625,-0.1220703125,-0.1220703125,-0.114013671875,0.0078125,-0.9725341796875,-144.0,2.0,75.0,101224.0,0.8350000381469727,0,0
1.636996,0.03826904296875,-0.70684814453125,0.704925537109375,0.043731689453125,-0.1220703125,0.0,0.0,-0.1142578125,0.0084228515625,-0.97314453125,-144.0,2.0,75.0,101224.0,0.8350000381469727,0,0
1.643995,0.03826904296875,-0.70684814453125,0.704925537109375,0.043701171875,-0.30517578125,-0.30517578125,0.0,-0.1119384765625,0.0047607421875,-0.972900390625,-144.0,2.0,75.0,101224.0,0.8350000381469727,0,0
1.650022,0.03826904296875,-0.70684814453125,0.704925537109375,0.043701171875,-0.30517578125,-0.30517578125,0.0,-0.1119384765625,0.0047607421875,-0.972900390625,-144.0,2.0,75.0,101224.0,0.8350000381469727,0,0
1.656995,0.038238525390625,-0.70684814453125,0.704925537109375,0.043701171875,0.06103515625,-0.06103515625,-0.18310546875,-0.111572265625,0.0068359375,-0.972412109375,-144.0,2.0,75.0,101224.0,0.8350000381469727,0,0
1.663996,0.038238525390625,-0.70684814453125,0.704925537109375,0.043701171875,0.1220703125,0.06103515625,-0.06103515625,-0.1109619140625,0.0079345703125,-0.97314453125,-144.0,2.0,75.0,101224.0,0.8350000381469727,0,0
1.670999,0.038238525390625,-0.70684814453125,0.704925537109375,0.043701171875,-0.1220703125,-0.1220703125,0.06103515625,-0.112548828125,0.0067138671875,-0.9716796875,-144.0,2.0,75.0,101224.0,0.8350000381469727,0,0
1.677999,0.038238525390625,-0.70684814453125,0.704925537109375,0.043701171875,-0.1220703125,-0.244140625,-0.06103515625,-0.11328125,0.007080078125,-0.9735107421875,-144.0,2.0,75.0,101224.0,0.8350000381469727,0,0
1.684998,0.038238525390625,-0.70684814453125,0.704925537109375,0.043701171875,-0.1220703125,-0.06103515625,-0.18310546875,-0.1142578125,0.0068359375,-0.9727783203125,-144.0,2.0,75.0,101224.0,0.8350000381469727,0,0
1.691998,0.038238525390625,-0.70684814453125,0.704925537109375,0.043701171875,-0.30517578125,-0.06103515625,0.244140625,-0.1160888671875,0.0084228515625,-0.972412109375,-144.0,2.0,75.0,101224.0,0.8350000381469727,0,0
1.698997,0.038238525390625,-0.70684814453125,0.704925537109375,0.043701171875,-0.06103515625,-0.1220703125,-0.1220703125,-0.111328125,0.0078125,-0.97314453125,-144.0,2.0,75.0,101224.0,0.8350000381469727,0,0
1.719996,0.038238525390625,-0.70721435546875,0.70458984375,0.043731689453125,-0.1220703125,-0.06103515625,0.18310546875,-0.1175537109375,0.00830078125,-0.9737548828125,-143.0,1.0,76.0,101224.0,0.8350000381469727,0,0
1.727,0.038238525390625,-0.70721435546875,0.70458984375,0.043731689453125,-0.06103515625,-0.30517578125,-0.1220703125,-0.1148681640625,0.00732421875,-0.973876953125,-143.0,1.0,76.0,101224.0,0.8350000381469727,0,0
1.733999,0.038238525390625,-0.70721435546875,0.70458984375,0.043731689453125,-0.1220703125,-0.1220703125,0.0,-0.1126708984375,0.0062255859375,-0.97314453125,-143.0,1.0,76.0,101224.0,0.8350000381469727,0,0
1.740032,0.038238525390625,-0.70721435546875,0.70458984375,0.043731689453125,-0.1220703125,-0.1220703125,0.0,-0.1126708984375,0.0062255859375,-0.97314453125,-143.0,1.0,76.0,101224.0,0.8350000381469727,0,0
1.746996,0.038238525390625,-0.70721435546875,0.70458984375,0.043731689453125,-0.244140625,0.06103515625,-0.18310546875,-0.1131591796875,0.0089111328125,-0.972412109375,-143.0,1.0,76.0,101224.0,0.8350000381469727,0,0
1.754,0.038238525390625,-0.70721435546875,0.70458984375,0.043731689453125,-0.06103515625,-0.18310546875,-0.1220703125,-0.1134033203125,0.007080078125,-0.972412109375,-143.0,1.0,76.0,101224.0,0.8350000381469727,0,0
1.760995,0.038238525390625,-0.70721435546875,0.70458984375,0.043731689453125,0.244140625,0.0,-0.06103515625,-0.1123046875,0.0059814453125,-0.9735107421875,-143.0,1.0,76.0,101224.0,0.8350000381469727,0,0
1.767994,0.038238525390625,-0.70721435546875,0.70458984375,0.043731689453125,-0.1220703125,0.0,-0.244140625,-0.1123046875,0.0059814453125,-0.9736328125,-143.0,1.0,76.0,101224.0,0.8350000381469727,0,0
1.774998,0.038238525390625,-0.70721435546875,0.70458984375,0.043731689453125,-0.06103515625,-0.244140625,0.1220703125,-0.11376953125,0.00732421875,-0.972900390625,-143.0,1.0,76.0,101224.0,0.8350000381469727,0,0
1.781998,0.038238525390625,-0.70721435546875,0.70458984375,0.043701171875,-0.1220703125,-0.18310546875,0.0,-0.1119384765625,0.00537109375,-0.973388671875,-143.0,1.0,76.0,101224.0,0.8350000381469727,0,0
1.788997,0.0382080078125,-0.70721435546875,0.70458984375,0.043701171875,-0.42724609375,-0.3662109375,-0.06103515625,-0.112548828125,0.006591796875,-0.972900390625,-143.0,1.0,76.0,101224.0,0.8350000381469727,0,0
1.809995,0.0382080078125,-0.70721435546875,0.70458984375,0.043701171875,0.1220703125,-0.18310546875,0.0,-0.114013671875,0.006103515625,-0.9730224609375,-142.0,2.0,76.0,101224.0,0.8360000252723694,0,0
1.816996,0.038238525390625,-0.70721435546875,0.70458984375,0.043701171875,0.244140625,-0.18310546875,-0.1220703125,-0.115234375,0.0072021484375,-0.9720458984375,-142.0,2.0,76.0,101224.0,0.8360000252723694,0,0
1.823995,0.038238525390625,-0.70721435546875,0.70458984375,0.043701171875,-0.06103515625,-0.30517578125,-0.18310546875,-0.114013671875,0.005859375,-0.9736328125,-142.0,2.0,76.0,101224.0,0.8360000252723694,0,0
1.830994,0.038238525390625,-0.70721435546875,0.70458984375,0.043731689453125,-0.244140625,-0.18310546875,0.1220703125,-0.116455078125,0.0091552734375,-0.97314453125,-142.0,2.0,76.0,101224.0,0.8360000252723694,0,0
1.837026,0.038238525390625,-0.70721435546875,0.70458984375,0.043731689453125,-0.244140625,-0.18310546875,0.1220703125,-0.116455078125,0.0091552734375,-0.97314453125,-142.0,2.0,76.0,101224.0,0.8360000252723694,0,0
1.843996,0.03826904296875,-0.70721435546875,0.70458984375,0.043731689453125,-0.244140625,0.0,0.244140625,-0.1148681640625,0.0064697265625,-0.9737548828125,-142.0,2.0,76.0,101224.0,0.8360000252723694,0,0
1.850995,0.03826904296875,-0.70721435546875,0.70458984375,0.043731689453125,-0.1220703125,-0.06103515625,0.06103515625,-0.11474609375,0.00634765625,-0.9727783203125,-142.0,2.0,76.0,101224.0,0.8360000252723694,0,0
1.857994,0.03826904296875,-0.70721435546875,0.70458984375,0.043731689453125,-0.18310546875,-0.18310546875,-0.1220703125,-0.1124267578125,0.0076904296875,-0.9736328125,-142.0,2.0,76.0,101224.0,0.8360000252723694,0,0
1.864998,0.03826904296875,-0.70721435546875,0.70458984375,0.043731689453125,0.1220703125,-0.244140625,-0.06103515625,-0.115478515625,0.00732421875,-0.971923828125,-142.0,2.0,76.0,101224.0,0.8360000252723694,0,0
1.871998,0.038238525390625,-0.70721435546875,0.70458984375,0.043731689453125,-0.42724609375,-0.18310546875,0.0,-0.1087646484375,0.0081787109375,-0.9700927734375,-142.0,2.0,76.0,101224.0,0.8360000252723694,0,0
1.892996,0.0382080078125,-0.70721435546875,0.70458984375,0.043731689453125,0.06103515625,-0.06103515625,-0.18310546875,-0.1092529296875,0.009521484375,-0.97265625,-142.0,2.0,76.0,101224.0,0.8360000252723694,0,0
1.899995,0.0382080078125,-0.70721435546875,0.70458984375,0.043701171875,-0.18310546875,-0.244140625,-0.18310546875,-0.1109619140625,0.003662109375,-0.9688720703125,-142.0,2.0,76.0,101224.0,0.8360000252723694,0,0
1.906996,0.0382080078125,-0.70721435546875,0.70458984375,0.043670654296875,0.244140625,-0.30517578125,0.06103515625,-0.1103515625,0.0048828125,-0.977783203125,-142.0,2.0,77.0,101224.0,0.8360000252723694,0,0
1.913995,0.0382080078125,-0.70721435546875,0.70458984375,0.043670654296875,0.0,-0.30517578125,-0.1220703125,-0.1072998046875,0.0074462890625,-0.9783935546875,-142.0,2.0,77.0,101224.0,0.8360000252723694,0,0
1.920994,0.0382080078125,-0.70721435546875,0.70458984375,0.04364013671875,0.1220703125,-0.6103515625,0.1220703125,-0.108642578125,0.0084228515625,-0.971923828125,-142.0,2.0,77.0,101224.0,0.8360000252723694,0,0
1.927026,0.0382080078125,-0.70721435546875,0.70458984375,0.04364013671875,0.1220703125,-0.6103515625,0.1220703125,-0.108642578125,0.0084228515625,-0.971923828125,-142.0,2.0,77.0,101224.0,0.8360000252723694,0,0
1.933996,0.038177490234375,-0.70721435546875,0.70458984375,0.043609619140625,0.06103515625,-0.18310546875,0.0,-0.10986328125,0.0064697265625,-0.9774169921875,-142.0,2.0,77.0,101224.0,0.8360000252723694,0,0
1.940995,0.03814697265625,-0.70721435546875,0.70458984375,0.043609619140625,-0.06103515625,-0.54931640625,-0.1220703125,-0.1083984375,0.0086669921875,-0.9747314453125,-142.0,2.0,77.0,101224.0,0.8360000252723694,0,0
1.947994,0.03814697265625,-0.70721435546875,0.70458984375,0.043609619140625,-0.06103515625,0.0,0.06103515625,-0.1112060546875,0.0062255859375,-0.974609375,-142.0,2.0,77.0,101224.0,0.8360000252723694,0,0
1.954998,0.03814697265625,-0.70721435546875,0.70458984375,0.043609619140625,0.06103515625,0.3662109375,-0.18310546875,-0.115478515625,0.0052490234375,-0.974853515625,-142.0,2.0,77.0,101224.0,0.8350000381469727,0,0
1.961998,0.03814697265625,-0.70721435546875,0.70458984375,0.043609619140625,0.1220703125,-0.48828125,0.06103515625,-0.11376953125,0.00927734375,-0.9752197265625,-142.0,2.0,77.0,101224.0,0.8350000381469727,0,0
1.982996,0.0382080078125,-0.70721435546875,0.70458984375,0.04364013671875,0.0,-0.1220703125,0.0,-0.120361328125,0.0093994140625,-0.973388671875,-142.0,2.0,77.0,101224.0,0.8350000381469727,0,0
1.989996,0.0382080078125,-0.70721435546875,0.70458984375,0.043670654296875,0.0,0.06103515625,0.1220703125,-0.1192626953125,0.0089111328125,-0.971923828125,-142.0,2.0,77.0,101224.0,0.8350000381469727,0,0
1.997,0.038238525390625,-0.70721435546875,0.70458984375,0.043731689453125,0.1220703125,-0.3662109375,0.06103515625,-0.1221923828125,0.010498046875,-0.969970703125,-142.0,2.0,77.0,101224.0,0.8350000381469727,0,0
2.003999,0.038238525390625,-0.70721435546875,0.70458984375,0.043731689453125,-0.18310546875,-0.1220703125,0.0,-0.1212158203125,0.008056640625,-0.971435546875,-142.0,2.0,77.0,101224.0,0.8350000381469727,0,0
2.010999,0.03826904296875,-0.707305908203125,0.7044677734375,0.043792724609375,0.18310546875,-0.244140625,0.1220703125,-0.1236572265625,0.0091552734375,-0.974365234375,-143.0,2.0,78.0,101224.0,0.8350000381469727,0,0
2.017998,0.038299560546875,-0.707305908203125,0.7044677734375,0.0438232421875,-0.3662109375,-0.06103515625,0.1220703125,-0.1207275390625,0.009033203125,-0.9755859375,-143.0,2.0,78.0,101224.0,0.8350000381469727,0,0
2.024027,0.038299560546875,-0.707305908203125,0.7044677734375,0.0438232421875,-0.3662109375,-0.06103515625,0.1220703125,-0.1207275390625,0.009033203125,-0.9755859375,-143.0,2.0,78.0,101224.0,0.8350000381469727,0,0
2.030999,0.038330078125,-0.707305908203125,0.7044677734375,0.043853759765625,0.06103515625,-0.18310546875,0.3662109375,-0.1162109375,0.0050048828125,-0.9659423828125,-143.0,2.0,78.0,101224.0,0.8350000381469727,0,0
2.037999,0.038330078125,-0.707305908203125,0.7044677734375,0.04388427734375,-0.18310546875,-0.1220703125,0.0,-0.1143798828125,0.00927734375,-0.9774169921875,-143.0,2.0,78.0,101224.0,0.8350000381469727,0,0
2.044998,0.038330078125,-0.707305908203125,0.7044677734375,0.043853759765625,-0.244140625,-0.42724609375,0.06103515625,-0.111572265625,0.0078125,-0.9747314453125,-143.0,2.0,78.0,101224.0,0.8350000381469727,0,0
2.051998,0.038299560546875,-0.707305908203125,0.7044677734375,0.043853759765625,-0.18310546875,-0.06103515625,0.244140625,-0.1065673828125,0.009521484375,-0.9730224609375,-143.0,2.0,78.0,101224.0,0.8350000381469727,0,0
2.072996,0.03826904296875,-0.707305908203125,0.7044677734375,0.04376220703125,0.0,-0.1220703125,0.1220703125,-0.107177734375,0.003173828125,-0.974609375,-143.0,2.0,78.0,101224.0,0.8360000252723694,0,0
2.079995,0.03826904296875,-0.70733642578125,0.7044677734375,0.043701171875,-0.244140625,0.0,0.0,-0.1064453125,0.00048828125,-0.9749755859375,-143.0,2.0,78.0,101224.0,0.8360000252723694,0,0
2.086996,0.038238525390625,-0.70733642578125,0.7044677734375,0.043670654296875,-0.1220703125,-0.06103515625,-0.06103515625,-0.10498046875,0.005126953125,-0.97216796875,-143.0,2.0,78.0,101224.0,0.8360000252723694,0,0
2.093995,0.038238525390625,-0.70733642578125,0.7044677734375,0.04364013671875,0.0,-0.06103515625,0.0,-0.10791015625,0.0047607421875,-0.9766845703125,-143.0,2.0,78.0,101224.0,0.8360000252723694,0,0
2.100994,0.0382080078125,-0.70733642578125,0.7044677734375,0.043609619140625,0.1220703125,0.06103515625,0.0,-0.10791015625,0.0057373046875,-0.9744873046875,-143.0,2.0,78.0,101224.0,0.8360000252723694,0,0
2.107998,0.038177490234375,-0.707672119140625,0.704132080078125,0.04364013671875,0.06103515625,0.0,0.0,-0.11181640625,0.0072021484375,-0.972412109375,-143.0,0.0,78.0,101224.0,0.8360000252723694,0,0
2.114026,0.038177490234375,-0.707672119140625,0.704132080078125,0.04364013671875,0.06103515625,0.0,0.0,-0.11181640625,0.0072021484375,-0.972412109375,-143.0,0.0,78.0,101224.0,0.8360000252723694,0,0
2.120995,0.0382080078125,-0.707672119140625,0.704132080078125,0.04364013671875,-0.06103515625,-0.3662109375,-0.18310546875,-0.1124267578125,0.006591796875,-0.970703125,-143.0,0.0,78.0,101224.0,0.8360000252723694,0,0
2.127994,0.0382080078125,-0.707672119140625,0.704132080078125,0.04364013671875,-0.18310546875,-0.06103515625,0.1220703125,-0.116943359375,0.006591796875,-0.9730224609375,-143.0,0.0,78.0,101224.0,0.8360000252723694,0,0
2.134998,0.0382080078125,-0.707672119140625,0.704132080078125,0.04364013671875,0.244140625,0.0,0.06103515625,-0.11669921875,0.00634765625,-0.9722900390625,-143.0,0.0,78.0,101224.0,0.8360000252723694,0,0
2.155996,0.03826904296875,-0.707672119140625,0.704132080078125,0.043731689453125,-0.06103515625,-0.18310546875,-0.06103515625,-0.1160888671875,0.007568359375,-0.972900390625,-143.0,0.0,78.0,101224.0,0.8350000381469727,0,0
2.162996,0.03826904296875,-0.707672119140625,0.704132080078125,0.043731689453125,-0.18310546875,-0.06103515625,-0.1220703125,-0.1173095703125,0.0076904296875,-0.97265625,-143.0,0.0,78.0,101224.0,0.8350000381469727,0,0
2.169995,0.03826904296875,-0.707672119140625,0.704132080078125,0.04376220703125,-0.06103515625,-0.30517578125,0.0,-0.1180419921875,0.009765625,-0.9739990234375,-143.0,0.0,78.0,101224.0,0.8350000381469727,0,0
2.176996,0.03826904296875,-0.707672119140625,0.704132080078125,0.04376220703125,-0.244140625,-0.244140625,-0.1220703125,-0.115478515625,0.0064697265625,-0.9742431640625,-143.0,0.0,78.0,101224.0,0.8350000381469727,0,0
2.183995,0.038299560546875,-0.707672119140625,0.704132080078125,0.04376220703125,-0.30517578125,-0.244140625,-0.244140625,-0.1143798828125,0.007080078125,-0.973876953125,-143.0,0.0,78.0,101224.0,0.8350000381469727,0,0
2.190994,0.03826904296875,-0.707672119140625,0.704132080078125,0.04376220703125,-0.06103515625,-0.06103515625,-0.1220703125,-0.1119384765625,0.0087890625,-0.9730224609375,-143.0,0.0,78.0,101224.0,0.8350000381469727,0,0
2.197998,0.03826904296875,-0.707672119140625,0.704132080078125,0.04376220703125,-0.06103515625,0.1220703125,-0.18310546875,-0.113525390625,0.008056640625,-0.9754638671875,-143.0,0.0,78.0,101224.0,0.8350000381469727,0,0
2.204998,0.03826904296875,-0.707672119140625,0.704132080078125,0.04376220703125,0.06103515625,0.18310546875,-0.1220703125,-0.112548828125,0.007080078125,-0.9735107421875,-143.0,0.0,78.0,101224.0,0.8350000381469727,0,0
2.21103,0.03826904296875,-0.707672119140625,0.704132080078125,0.04376220703125,0.06103515625,0.18310546875,-0.1220703125,-0.112548828125,0.007080078125,-0.9735107421875,-143.0,0.0,78.0,101224.0,0.8350000381469727,0,0
2.217994,0.038238525390625,-0.7078857421875,0.703887939453125,0.04376220703125,0.1220703125,-0.30517578125,-0.18310546875,-0.1114501953125,0.00634765625,-0.974365234375,-143.0,0.0,78.0,101224.0,0.8350000381469727,0,0
2.224998,0.038238525390625,-0.7078857421875,0.703887939453125,0.043731689453125,0.18310546875,0.0,0.0,-0.111572265625,0.006103515625,-0.974609375,-143.0,0.0,78.0,101224.0,0.8350000381469727,0,0
2.245996,0.038238525390625,-0.7078857421875,0.703887939453125,0.043731689453125,0.06103515625,-0.244140625,-0.06103515625,-0.111572265625,0.005615234375,-0.9752197265625,-143.0,0.0,78.0,101224.0,0.8350000381469727,0,0
2.252996,0.038238525390625,-0.7078857421875,0.703887939453125,0.043701171875,0.0,-0.06103515625,-0.1220703125,-0.11181640625,0.0054931640625,-0.97314453125,-143.0,0.0,78.0,101224.0,0.8350000381469727,0,0
2.259995,0.038238525390625,-0.7078857421875,0.703887939453125,0.043701171875,-0.18310546875,-0.244140625,0.06103515625,-0.114013671875,0.00634765625,-0.97509765625,-143.0,0.0,78.0,101224.0,0.8360000252723694,0,0
2.267,0.038238525390625,-0.707916259765625,0.703887939453125,0.043701171875,-0.06103515625,0.06103515625,-0.1220703125,-0.111572265625,0.0057373046875,-0.97412109375,-143.0,0.0,78.0,101224.0,0.8360000252723694,0,0
2.287998,0.038238525390625,-0.707916259765625,0.703887939453125,0.043701171875,0.0,-0.1220703125,-0.06103515625,-0.1121826171875,0.007080078125,-0.9727783203125,-143.0,0.0,78.0,101224.0,0.8360000252723694,0,0
2.294998,0.038238525390625,-0.707916259765625,0.703887939453125,0.043701171875,-0.3662109375,-0.30517578125,-0.1220703125,-0.111083984375,0.0079345703125,-0.97216796875,-143.0,0.0,78.0,101224.0,0.8360000252723694,0,0
2.30103,0.038238525390625,-0.707916259765625,0.703887939453125,0.043701171875,-0.3662109375,-0.30517578125,-0.1220703125,-0.111083984375,0.0079345703125,-0.97216796875,-143.0,0.0,78.0,101224.0,0.8360000252723694,0,0
2.307999,0.0382080078125,-0.7080078125,0.703765869140625,0.043701171875,-0.18310546875,-0.18310546875,-0.244140625,-0.1141357421875,0.0062255859375,-0.9730224609375,-142.0,1.0,77.0,101224.0,0.8360000252723694,0,0
2.314998,0.038238525390625,-0.7080078125,0.703765869140625,0.043701171875,0.06103515625,0.18310546875,-0.1220703125,-0.113525390625,0.00390625,-0.97216796875,-142.0,1.0,77.0,101224.0,0.8360000252723694,0,0
2.335996,0.03826904296875,-0.7080078125,0.703765869140625,0.043670654296875,-0.18310546875,-0.18310546875,-0.1220703125,-0.115966796875,0.0037841796875,-0.9732666015625,-142.0,1.0,77.0,101224.0,0.8360000252723694,0,0
2.342996,0.03826904296875,-0.7080078125,0.703765869140625,0.043701171875,0.0,-0.18310546875,0.06103515625,-0.1151123046875,0.0087890625,-0.97412109375,-142.0,1.0,77.0,101224.0,0.8360000252723694,0,0
2.349996,0.03826904296875,-0.7080078125,0.703765869140625,0.043701171875,-0.1220703125,-0.18310546875,-0.30517578125,-0.1146240234375,0.0084228515625,-0.974365234375,-142.0,1.0,77.0,101224.0,0.8360000252723694,0,0
2.357,0.03826904296875,-0.7080078125,0.703765869140625,0.043701171875,0.0,-0.1220703125,0.1220703125,-0.114501953125,0.010009765625,-0.9720458984375,-142.0,1.0,77.0,101224.0,0.8350000381469727,0,0
2.363995,0.03826904296875,-0.7080078125,0.703765869140625,0.043731689453125,-0.30517578125,-0.244140625,-0.30517578125,-0.115478515625,0.0086669921875,-0.973388671875,-142.0,1.0,77.0,101224.0,0.8350000381469727,0,0
2.370994,0.03826904296875,-0.7080078125,0.703765869140625,0.043731689453125,-0.1220703125,-0.18310546875,-0.1220703125,-0.1142578125,0.0089111328125,-0.9754638671875,-142.0,1.0,77.0,101224.0,0.8350000381469727,0,0
2.377998,0.03826904296875,-0.7080078125,0.703765869140625,0.043731689453125,-0.1220703125,-0.244140625,0.06103515625,-0.1126708984375,0.0074462890625,-0.9739990234375,-142.0,1.0,77.0,101224.0,0.8350000381469727,0,0
2.384998,0.03826904296875,-0.7080078125,0.703765869140625,0.04376220703125,0.18310546875,-0.244140625,0.06103515625,-0.1158447265625,0.0062255859375,-0.972900390625,-142.0,1.0,77.0,101224.0,0.8350000381469727,0,0
2.391997,0.03826904296875,-0.7080078125,0.703765869140625,0.04376220703125,-0.1220703125,-0.18310546875,-0.18310546875,-0.115234375,0.006591796875,-0.9716796875,-142.0,1.0,77.0,101224.0,0.8350000381469727,0,0
2.398024,0.03826904296875,-0.7080078125,0.703765869140625,0.04376220703125,-0.1220703125,-0.18310546875,-0.18310546875,-0.115234375,0.006591796875,-0.9716796875,-142.0,1.0,77.0,101224.0,0.8350000381469727,0,0
2.418997,0.03826904296875,-0.7081298828125,0.703643798828125,0.043731689453125,-0.06103515625,0.06103515625,-0.244140625,-0.1129150390625,0.005615234375,-0.9736328125,-143.0,2.0,77.0,101224.0,0.8350000381469727,0,0
2.425996,0.03826904296875,-0.7081298828125,0.703643798828125,0.043731689453125,-0.18310546875,-0.42724609375,0.0,-0.11279296875,0.004150390625,-0.9722900390625,-143.0,2.0,77.0,101224.0,0.8350000381469727,0,0
2.432996,0.03826904296875,-0.7081298828125,0.703643798828125,0.043731689453125,-0.06103515625,-0.18310546875,-0.1220703125,-0.1131591796875,0.00732421875,-0.9752197265625,-143.0,2.0,77.0,101224.0,0.8350000381469727,0,0
2.439995,0.03826904296875,-0.7081298828125,0.703643798828125,0.043701171875,0.06103515625,-0.18310546875,0.06103515625,-0.110595703125,0.006591796875,-0.9747314453125,-143.0,2.0,77.0,101224.0,0.8350000381469727,0,0
2.446996,0.03826904296875,-0.7081298828125,0.703643798828125,0.043701171875,-0.1220703125,0.06103515625,-0.06103515625,-0.1134033203125,0.0062255859375,-0.9730224609375,-143.0,2.0,77.0,101224.0,0.8350000381469727,0,0
2.453995,0.038238525390625,-0.7081298828125,0.703643798828125,0.043701171875,0.0,-0.06103515625,0.0,-0.1112060546875,0.00732421875,-0.9737548828125,-143.0,2.0,77.0,101224.0,0.8340000510215759,0,0
2.460994,0.038238525390625,-0.7081298828125,0.703643798828125,0.043670654296875,-0.1220703125,0.0,0.06103515625,-0.1104736328125,0.005859375,-0.9735107421875,-143.0,2.0,77.0,101224.0,0.8340000510215759,0,0
2.467998,0.038238525390625,-0.7081298828125,0.703643798828125,0.043670654296875,-0.06103515625,-0.1220703125,0.06103515625,-0.1151123046875,0.005859375,-0.975341796875,-143.0,2.0,77.0,101224.0,0.8340000510215759,0,0
2.474998,0.038238525390625,-0.7081298828125,0.703643798828125,0.043670654296875,-0.18310546875,-0.244140625,0.06103515625,-0.1123046875,0.0057373046875,-0.9730224609375,-143.0,2.0,77.0,101224.0,0.8340000510215759,0,0
2.481997,0.038238525390625,-0.7081298828125,0.703643798828125,0.043670654296875,-0.244140625,0.0,0.0,-0.1134033203125,0.00830078125,-0.973388671875,-143.0,2.0,77.0,101224.0,0.8340000510215759,0,0
2.501998,0.038238525390625,-0.7081298828125,0.703643798828125,0.043670654296875,-0.244140625,-0.1220703125,0.0,-0.113037109375,0.006591796875,-0.97119140625,-143.0,2.0,77.0,101224.0,0.8340000510215759,0,0
2.508997,0.038238525390625,-0.707916259765625,0.703887939453125,0.043670654296875,0.0,-0.1220703125,-0.1220703125,-0.11279296875,0.0078125,-0.974853515625,-141.0,3.0,78.0,101224.0,0.8340000510215759,0,0
2.515996,0.038238525390625,-0.707916259765625,0.703887939453125,0.043670654296875,-0.06103515625,-0.1220703125,0.0,-0.1134033203125,0.00732421875,-0.974365234375,-141.0,3.0,78.0,101224.0,0.8340000510215759,0,0
2.522996,0.038238525390625,-0.707916259765625,0.703887939453125,0.043701171875,0.1220703125,-0.06103515625,0.06103515625,-0.1142578125,0.009033203125,-0.97216796875,-141.0,3.0,78.0,101224.0,0.8340000510215759,0,0
2.529995,0.038238525390625,-0.707916259765625,0.703887939453125,0.043701171875,-0.1220703125,0.0,-0.06103515625,-0.1141357421875,0.008544921875,-0.9747314453125,-141.0,3.0,78.0,101224.0,0.8340000510215759,0,0
2.536996,0.038238525390625,-0.7078857421875,0.703887939453125,0.043701171875,0.06103515625,-0.06103515625,0.1220703125,-0.116455078125,0.0078125,-0.9735107421875,-141.0,3.0,78.0,101224.0,0.8340000510215759,0,0
2.543995,0.03826904296875,-0.7078857421875,0.703887939453125,0.043731689453125,-0.18310546875,-0.18310546875,0.1220703125,-0.1165771484375,0.0054931640625,-0.9725341796875,-141.0,3.0,78.0,101224.0,0.8340000510215759,0,0
2.550994,0.03826904296875,-0.7078857421875,0.703887939453125,0.043731689453125,0.0,0.0,0.0,-0.1156005859375,0.0068359375,-0.9703369140625,-141.0,3.0,78.0,101224.0,0.8340000510215759,0,0
2.557998,0.03826904296875,-0.7078857421875,0.703887939453125,0.043731689453125,-0.1220703125,-0.06103515625,0.0,-0.1134033203125,0.005615234375,-0.971435546875,-141.0,3.0,78.0,101224.0,0.8340000510215759,0,0
2.564998,0.03826904296875,-0.7078857421875,0.703887939453125,0.043731689453125,-0.42724609375,-0.06103515625,-0.1220703125,-0.1134033203125,0.0078125,-0.9742431640625,-141.0,3.0,78.0,101224.0,0.8340000510215759,0,0
2.571997,0.03826904296875,-0.7078857421875,0.703887939453125,0.043701171875,-0.30517578125,-0.1220703125,0.18310546875,-0.113037109375,0.00634765625,-0.9720458984375,-141.0,3.0,78.0,101224.0,0.8340000510215759,0,0
2.591998,0.038238525390625,-0.707916259765625,0.703887939453125,0.043701171875,-0.1220703125,-0.30517578125,-0.1220703125,-0.112060546875,0.0074462890625,-0.9739990234375,-141.0,3.0,78.0,101224.0,0.8340000510215759,0,0
2.598997,0.038238525390625,-0.707916259765625,0.703887939453125,0.043670654296875,0.0,-0.18310546875,-0.1220703125,-0.11279296875,0.0047607421875,-0.974365234375,-141.0,3.0,78.0,101224.0,0.8340000510215759,0,0
2.605996,0.038238525390625,-0.707916259765625,0.703887939453125,0.043670654296875,-0.06103515625,0.18310546875,0.0,-0.110595703125,0.00390625,-0.9720458984375,-139.0,4.0,77.0,101224.0,0.8340000510215759,0,0
2.612996,0.03826904296875,-0.707672119140625,0.704132080078125,0.04364013671875,-0.06103515625,-0.18310546875,-0.06103515625,-0.1102294921875,0.0069580078125,-0.974365234375,-139.0,4.0,77.0,101224.0,0.8340000510215759,0,0
2.619996,0.038238525390625,-0.707672119140625,0.704132080078125,0.04364013671875,-0.18310546875,-0.18310546875,0.06103515625,-0.11083984375,0.006591796875,-0.972900390625,-139.0,4.0,77.0,101224.0,0.8340000510215759,0,0
2.627,0.038238525390625,-0.707672119140625,0.704132080078125,0.043609619140625,0.0,-0.06103515625,-0.06103515625,-0.11181640625,0.0068359375,-0.97314453125,-139.0,4.0,77.0,101224.0,0.8340000510215759,0,0
2.633999,0.038238525390625,-0.707672119140625,0.704132080078125,0.043609619140625,-0.244140625,-0.1220703125,0.18310546875,-0.1151123046875,0.0081787109375,-0.9732666015625,-139.0,4.0,77.0,101224.0,0.8340000510215759,0,0
2.640999,0.038238525390625,-0.707672119140625,0.704132080078125,0.043609619140625,-0.1220703125,-0.244140625,0.1220703125,-0.1134033203125,0.006591796875,-0.974853515625,-139.0,4.0,77.0,101224.0,0.8340000510215759,0,0
2.647998,0.038238525390625,-0.707672119140625,0.704132080078125,0.04364013671875,0.06103515625,-0.244140625,-0.06103515625,-0.114013671875,0.0079345703125,-0.9720458984375,-139.0,4.0,77.0,101224.0,0.8340000510215759,0,0
2.654998,0.03826904296875,-0.707672119140625,0.704132080078125,0.04364013671875,0.06103515625,-0.18310546875,0.06103515625,-0.1160888671875,0.008056640625,-0.973388671875,-139.0,4.0,77.0,101224.0,0.8350000381469727,0,0
2.675029,0.03826904296875,-0.707672119140625,0.704132080078125,0.043670654296875,-0.18310546875,-0.1220703125,-0.1220703125,-0.1171875,0.0084228515625,-0.9732666015625,-139.0,4.0,77.0,101224.0,0.8350000381469727,0,0
2.681998,0.03826904296875,-0.707672119140625,0.704132080078125,0.043670654296875,0.0,0.06103515625,-0.1220703125,-0.1165771484375,0.0079345703125,-0.97265625,-139.0,4.0,77.0,101224.0,0.8350000381469727,0,0
2.688997,0.03826904296875,-0.707672119140625,0.704132080078125,0.043701171875,-0.30517578125,-0.18310546875,0.0,-0.11669921875,0.0076904296875,-0.97216796875,-139.0,4.0,77.0,101224.0,0.8350000381469727,0,0
2.695996,0.038299560546875,-0.707672119140625,0.704132080078125,0.043701171875,0.0,-0.30517578125,0.0,-0.1156005859375,0.00927734375,-0.9742431640625,-139.0,4.0,77.0,101224.0,0.8350000381469727,0,0
2.702996,0.038299560546875,-0.707672119140625,0.704132080078125,0.043701171875,-0.1220703125,-0.1220703125,0.1220703125,-0.1163330078125,0.0078125,-0.97412109375,-141.0,5.0,77.0,101224.0,0.8350000381469727,0,0
2.709995,0.038299560546875,-0.707305908203125,0.704498291015625,0.043701171875,-0.18310546875,-0.18310546875,-0.06103515625,-0.1142578125,0.00927734375,-0.9736328125,-141.0,5.0,77.0,101224.0,0.8350000381469727,0,0
2.716996,0.038299560546875,-0.707305908203125,0.704498291015625,0.043701171875,-0.06103515625,-0.244140625,-0.06103515625,-0.115234375,0.008056640625,-0.9730224609375,-141.0,5.0,77.0,101224.0,0.8350000381469727,0,0
2.723995,0.038299560546875,-0.707305908203125,0.704498291015625,0.043701171875,-0.1220703125,-0.1220703125,-0.18310546875,-0.1126708984375,0.00732421875,-0.9727783203125,-141.0,5.0,77.0,101224.0,0.8350000381469727,0,0
2.730994,0.038299560546875,-0.707305908203125,0.704498291015625,0.043701171875,-0.06103515625,-0.1220703125,0.30517578125,-0.1124267578125,0.0074462890625,-0.9720458984375,-141.0,5.0,77.0,101224.0,0.8350000381469727,0,0
2.737998,0.038299560546875,-0.707305908203125,0.704498291015625,0.043701171875,-0.18310546875,-0.1220703125,-0.244140625,-0.11083984375,0.0076904296875,-0.97412109375,-141.0,5.0,77.0,101224.0,0.8350000381469727,0,0
2.744998,0.038299560546875,-0.707305908203125,0.704498291015625,0.043701171875,0.18310546875,-0.06103515625,-0.244140625,-0.1134033203125,0.0064697265625,-0.9715576171875,-141.0,5.0,77.0,101224.0,0.8350000381469727,0,0
2.765996,0.038299560546875,-0.707305908203125,0.704498291015625,0.043670654296875,-0.18310546875,-0.30517578125,0.06103515625,-0.1148681640625,0.005859375,-0.973876953125,-141.0,5.0,77.0,101224.0,0.8340000510215759,0,0
2.772028,0.038299560546875,-0.707305908203125,0.704498291015625,0.043670654296875,-0.18310546875,-0.30517578125,0.06103515625,-0.1148681640625,0.005859375,-0.973876953125,-141.0,5.0,77.0,101224.0,0.8340000510215759,0,0
2.778997,0.038299560546875,-0.707305908203125,0.704498291015625,0.043670654296875,0.0,0.0,-0.18310546875,-0.1123046875,0.0067138671875,-0.9730224609375,-141.0,5.0,77.0,101224.0,0.8340000510215759,0,0
2.785996,0.038299560546875,-0.707305908203125,0.704498291015625,0.043670654296875,-0.244140625,-0.06103515625,-0.06103515625,-0.1142578125,0.0045166015625,-0.97216796875,-141.0,5.0,77.0,101224.0,0.8340000510215759,0,0
2.792996,0.038299560546875,-0.707305908203125,0.704498291015625,0.043670654296875,-0.06103515625,-0.244140625,0.06103515625,-0.1146240234375,0.0086669921875,-0.9739990234375,-141.0,5.0,77.0,101224.0,0.8340000510215759,0,0
2.799995,0.038299560546875,-0.707305908203125,0.704498291015625,0.043670654296875,-0.18310546875,-0.244140625,-0.06103515625,-0.113525390625,0.007568359375,-0.9718017578125,-141.0,5.0,77.0,101224.0,0.8340000510215759,0,0
2.806996,0.038330078125,-0.706939697265625,0.704833984375,0.043670654296875,-0.18310546875,-0.244140625,-0.1220703125,-0.1143798828125,0.0064697265625,-0.97216796875,-141.0,5.0,77.0,101224.0,0.8340000510215759,0,0
2.813995,0.038330078125,-0.706939697265625,0.704833984375,0.043670654296875,0.30517578125,0.0,0.0,-0.11376953125,0.0076904296875,-0.973388671875,-141.0,5.0,77.0,101224.0,0.8340000510215759,0,0
2.820994,0.038330078125,-0.706939697265625,0.704833984375,0.043670654296875,0.0,-0.06103515625,0.0,-0.113525390625,0.0093994140625,-0.974365234375,-141.0,5.0,77.0,101224.0,0.8340000510215759,0,0
2.827998,0.038299560546875,-0.706939697265625,0.704833984375,0.043670654296875,0.1220703125,-0.18310546875,0.244140625,-0.113037109375,0.0081787109375,-0.9725341796875,-141.0,5.0,77.0,101224.0,0.8340000510215759,0,0
2.848996,0.038330078125,-0.706939697265625,0.704833984375,0.043670654296875,0.244140625,0.0,-0.1220703125,-0.113525390625,0.007568359375,-0.9732666015625,-141.0,5.0,77.0,101224.0,0.8340000510215759,0,0
2.855996,0.038330078125,-0.706939697265625,0.704833984375,0.043670654296875,-0.18310546875,-0.1220703125,0.0,-0.1131591796875,0.0067138671875,-0.97265625,-141.0,5.0,77.0,101224.0,0.8350000381469727,0,0
2.862028,0.038330078125,-0.706939697265625,0.704833984375,0.043670654296875,-0.18310546875,-0.1220703125,0.0,-0.1131591796875,0.0067138671875,-0.97265625,-141.0,5.0,77.0,101224.0,0.8350000381469727,0,0
2.868997,0.038330078125,-0.706939697265625,0.704833984375,0.043670654296875,0.0,-0.18310546875,0.06103515625,-0.1175537109375,0.007080078125,-0.972412109375,-141.0,5.0,77.0,101224.0,0.8350000381469727,0,0
2.875996,0.038330078125,-0.706939697265625,0.704833984375,0.043670654296875,-0.06103515625,-0.06103515625,-0.244140625,-0.114501953125,0.0079345703125,-0.9730224609375,-141.0,5.0,77.0,101224.0,0.8350000381469727,0,0
2.882996,0.038330078125,-0.706939697265625,0.704833984375,0.043670654296875,-0.3662109375,-0.1220703125,0.30517578125,-0.11474609375,0.0076904296875,-0.972412109375,-141.0,5.0,77.0,101224.0,0.8350000381469727,0,0
2.889996,0.038330078125,-0.706939697265625,0.704833984375,0.043670654296875,-0.3662109375,0.06103515625,-0.244140625,-0.115234375,0.0091552734375,-0.9713134765625,-141.0,5.0,77.0,101224.0,0.8350000381469727,0,0
2.897,0.038330078125,-0.706939697265625,0.704833984375,0.043701171875,0.06103515625,-0.18310546875,-0.244140625,-0.11328125,0.010498046875,-0.972412109375,-141.0,5.0,77.0,101224.0,0.8350000381469727,0,0
2.903999,0.038330078125,-0.706939697265625,0.704833984375,0.043701171875,0.18310546875,0.06103515625,0.1220703125,-0.113525390625,0.0084228515625,-0.972900390625,-142.0,5.0,77.0,101224.0,0.8350000381469727,0,0
2.910999,0.038360595703125,-0.70660400390625,0.7052001953125,0.043670654296875,-0.18310546875,-0.1220703125,-0.3662109375,-0.115234375,0.0087890625,-0.9749755859375,-142.0,5.0,77.0,101224.0,0.8350000381469727,0,0
2.917998,0.038360595703125,-0.70660400390625,0.7052001953125,0.043670654296875,-0.06103515625,0.18310546875,-0.06103515625,-0.1131591796875,0.0084228515625,-0.9735107421875,-142.0,5.0,77.0,101224.0,0.8350000381469727,0,0
2.938996,0.038360595703125,-0.70660400390625,0.7052001953125,0.04364013671875,-0.18310546875,-0.18310546875,-0.06103515625,-0.1142578125,0.007080078125,-0.9736328125,-142.0,5.0,77.0,101224.0,0.8350000381469727,0,0
2.945996,0.038360595703125,-0.70660400390625,0.7052001953125,0.04364013671875,0.0,-0.1220703125,0.06103515625,-0.1114501953125,0.0069580078125,-0.973388671875,-142.0,5.0,77.0,101224.0,0.8350000381469727,0,0
2.952996,0.038360595703125,-0.70660400390625,0.7052001953125,0.04364013671875,-0.1220703125,-0.1220703125,0.06103515625,-0.11279296875,0.0079345703125,-0.9725341796875,-142.0,5.0,77.0,101224.0,0.8350000381469727,0,0
2.959028,0.038360595703125,-0.70660400390625,0.7052001953125,0.04364013671875,-0.1220703125,-0.1220703125,0.06103515625,-0.11279296875,0.0079345703125,-0.9725341796875,-142.0,5.0,77.0,101224.0,0.8350000381469727,0,0
2.965996,0.038360595703125,-0.70660400390625,0.7052001953125,0.04364013671875,-0.18310546875,-0.1220703125,-0.06103515625,-0.113525390625,0.0067138671875,-0.971923828125,-142.0,5.0,77.0,101224.0,0.8350000381469727,0,0
2.972996,0.038360595703125,-0.70660400390625,0.7052001953125,0.04364013671875,-0.1220703125,-0.244140625,-0.06103515625,-0.1148681640625,0.0081787109375,-0.9718017578125,-142.0,5.0,77.0,101224.0,0.8350000381469727,0,0
2.979995,0.038330078125,-0.70660400390625,0.7052001953125,0.04364013671875,-0.30517578125,0.0,-0.18310546875,-0.1126708984375,0.00732421875,-0.973876953125,-142.0,5.0,77.0,101224.0,0.8350000381469727,0,0
2.986996,0.038330078125,-0.70660400390625,0.7052001953125,0.04364013671875,0.18310546875,-0.1220703125,0.1220703125,-0.1134033203125,0.0078125,-0.9736328125,-142.0,5.0,77.0,101224.0,0.8350000381469727,0,0
2.993995,0.038330078125,-0.70660400390625,0.7052001953125,0.04364013671875,0.1220703125,0.06103515625,-0.06103515625,-0.1129150390625,0.008056640625,-0.9735107421875,-142.0,5.0,77.0,101224.0,0.8350000381469727,0,0
3.000994,0.038330078125,-0.70660400390625,0.7052001953125,0.04364013671875,-0.18310546875,0.1220703125,-0.30517578125,-0.1143798828125,0.006591796875,-0.9739990234375,-142.0,5.0,77.0,101224.0,0.8350000381469727,0,0
3.007998,0.038330078125,-0.70660400390625,0.7052001953125,0.04364013671875,-0.18310546875,-0.3662109375,-0.06103515625,-0.1143798828125,0.0045166015625,-0.97314453125,-141.0,4.0,76.0,101224.0,0.8350000381469727,0,0
3.028996,0.038360595703125,-0.70660400390625,0.7052001953125,0.04364013671875,0.06103515625,-0.1220703125,0.0,-0.1143798828125,0.00830078125,-0.9732666015625,-141.0,4.0,76.0,101224.0,0.8350000381469727,0,0
3.035996,0.038360595703125,-0.70660400390625,0.7052001953125,0.04364013671875,0.0,-0.244140625,-0.06103515625,-0.1138916015625,0.00732421875,-0.9730224609375,-141.0,4.0,76.0,101224.0,0.8350000381469727,0,0
3.042995,0.038360595703125,-0.70660400390625,0.7052001953125,0.04364013671875,-0.1220703125,0.0,0.06103515625,-0.114013671875,0.0078125,-0.9727783203125,-141.0,4.0,76.0,101224.0,0.8350000381469727,0,0
3.049028,0.038360595703125,-0.70660400390625,0.7052001953125,0.04364013671875,-0.1220703125,0.0,0.06103515625,-0.114013671875,0.0078125,-0.9727783203125,-141.0,4.0,76.0,101224.0,0.8350000381469727,0,0
3.055996,0.038360595703125,-0.70660400390625,0.7052001953125,0.043670654296875,-0.06103515625,-0.18310546875,0.06103515625,-0.1142578125,0.0103759765625,-0.97314453125,-141.0,4.0,76.0,101224.0,0.8350000381469727,0,0
3.062996,0.038330078125,-0.70660400390625,0.7052001953125,0.043670654296875,-0.244140625,-0.244140625,-0.1220703125,-0.11279296875,0.0079345703125,-0.97314453125,-141.0,4.0,76.0,101224.0,0.8350000381469727,0,0
3.069995,0.038330078125,-0.70660400390625,0.7052001953125,0.043670654296875,0.06103515625,-0.244140625,-0.06103515625,-0.113525390625,0.00927734375,-0.9722900390625,-141.0,4.0,76.0,101224.0,0.8350000381469727,0,0
3.076996,0.038330078125,-0.70660400390625,0.7052001953125,0.043670654296875,0.1220703125,-0.3662109375,0.0,-0.114013671875,0.00439453125,-0.972412109375,-141.0,4.0,76.0,101224.0,0.8350000381469727,0,0
3.083995,0.038360595703125,-0.70660400390625,0.7052001953125,0.043670654296875,0.0,-0.06103515625,-0.06103515625,-0.11376953125,0.0078125,-0.9732666015625,-141.0,4.0,76.0,101224.0,0.8350000381469727,0,0
3.090994,0.038360595703125,-0.70660400390625,0.7052001953125,0.043670654296875,-0.244140625,0.0,0.1220703125,-0.112548828125,0.00732421875,-0.973876953125,-141.0,4.0,76.0,101224.0,0.8350000381469727,0,0
3.111997,0.038360595703125,-0.70635986328125,0.705413818359375,0.04364013671875,-0.18310546875,-0.244140625,0.0,-0.11181640625,0.0078125,-0.972412109375,-141.0,5.0,77.0,101224.0,0.8360000252723694,0,0
3.118996,0.038360595703125,-0.70635986328125,0.7054443359375,0.04364013671875,-0.1220703125,-0.244140625,0.1220703125,-0.1124267578125,0.0081787109375,-0.974609375,-141.0,5.0,77.0,101224.0,0.8360000252723694,0,0
3.125996,0.038360595703125,-0.70635986328125,0.7054443359375,0.04364013671875,0.0,0.0,-0.1220703125,-0.11083984375,0.004638671875,-0.975341796875,-141.0,5.0,77.0,101224.0,0.8360000252723694,0,0
3.132995,0.038360595703125,-0.70635986328125,0.705413818359375,0.04364013671875,0.0,-0.42724609375,0.1220703125,-0.113037109375,0.005859375,-0.9737548828125,-141.0,5.0,77.0,101224.0,0.8360000252723694,0,0
3.139996,0.038360595703125,-0.70635986328125,0.7054443359375,0.043609619140625,-0.06103515625,-0.1220703125,0.1220703125,-0.11181640625,0.0067138671875,-0.9718017578125,-141.0,5.0,77.0,101224.0,0.8360000252723694,0,0
3.146027,0.038360595703125,-0.70635986328125,0.7054443359375,0.043609619140625,-0.06103515625,-0.1220703125,0.1220703125,-0.11181640625,0.0067138671875,-0.9718017578125,-141.0,5.0,77.0,101224.0,0.8360000252723694,0,0
3.152996,0.038330078125,-0.70635986328125,0.7054443359375,0.043609619140625,-0.06103515625,-0.1220703125,-0.244140625,-0.113525390625,0.0059814453125,-0.9725341796875,-141.0,5.0,77.0,101224.0,0.8360000252723694,0,0
3.159995,0.038330078125,-0.70635986328125,0.7054443359375,0.043609619140625,0.0,0.0,-0.1220703125,-0.1126708984375,0.0087890625,-0.973876953125,-141.0,5.0,77.0,101224.0,0.8360000252723694,0,0
3.167,0.038330078125,-0.70635986328125,0.7054443359375,0.043609619140625,-0.1220703125,-0.1220703125,-0.18310546875,-0.1126708984375,0.0069580078125,-0.97265625,-141.0,5.0,77.0,101224.0,0.8360000252723694,0,0
3.173999,0.038330078125,-0.70635986328125,0.7054443359375,0.043609619140625,0.06103515625,-0.1220703125,-0.1220703125,-0.1131591796875,0.0074462890625,-0.972900390625,-141.0,5.0,77.0,101224.0,0.8360000252723694,0,0
3.180999,0.038330078125,-0.70635986328125,0.7054443359375,0.043609619140625,-0.1220703125,-0.06103515625,-0.1220703125,-0.1141357421875,0.0064697265625,-0.9722900390625,-141.0,5.0,77.0,101224.0,0.8360000252723694,0,0
3.201997,0.038330078125,-0.70635986328125,0.7054443359375,0.043609619140625,0.0,-0.18310546875,-0.06103515625,-0.1143798828125,0.007080078125,-0.97314453125,-141.0,5.0,77.0,101224.0,0.8360000252723694,0,0
3.208996,0.038360595703125,-0.706024169921875,0.705780029296875,0.043609619140625,-0.06103515625,0.06103515625,-0.30517578125,-0.11376953125,0.007568359375,-0.971435546875,-140.0,6.0,78.0,101224.0,0.8360000252723694,0,0
3.215996,0.038360595703125,-0.706024169921875,0.705780029296875,0.043609619140625,0.244140625,0.06103515625,0.1220703125,-0.1141357421875,0.006103515625,-0.97265625,-140.0,6.0,78.0,101224.0,0.8360000252723694,0,0
3.222996,0.038360595703125,-0.70599365234375,0.705780029296875,0.043609619140625,-0.06103515625,-0.06103515625,-0.06103515625,-0.116943359375,0.0074462890625,-0.9737548828125,-140.0,6.0,78.0,101224.0,0.8360000252723694,0,0
3.23,0.038360595703125,-0.70599365234375,0.705780029296875,0.043609619140625,0.0,-0.1220703125,-0.06103515625,-0.115234375,0.009765625,-0.97265625,-140.0,6.0,78.0,101224.0,0.8360000252723694,0,0
3.236032,0.038360595703125,-0.70599365234375,0.705780029296875,0.043609619140625,0.0,-0.1220703125,-0.06103515625,-0.115234375,0.009765625,-0.97265625,-140.0,6.0,78.0,101224.0,0.8360000252723694,0,0
3.242996,0.038360595703125,-0.70599365234375,0.705780029296875,0.04364013671875,-0.1220703125,-0.1220703125,0.1220703125,-0.1134033203125,0.0086669921875,-0.973876953125,-140.0,6.0,78.0,101224.0,0.8360000252723694,0,0
3.249996,0.038360595703125,-0.70599365234375,0.705780029296875,0.04364013671875,-0.06103515625,-0.244140625,-0.1220703125,-0.113037109375,0.0074462890625,-0.9718017578125,-140.0,6.0,78.0,101224.0,0.8360000252723694,0,0
3.257,0.038360595703125,-0.70599365234375,0.705780029296875,0.04364013671875,0.1220703125,-0.1220703125,0.0,-0.114013671875,0.0081787109375,-0.9716796875,-140.0,6.0,78.0,101224.0,0.8360000252723694,0,0
3.263995,0.038360595703125,-0.70599365234375,0.705780029296875,0.04364013671875,-0.06103515625,0.06103515625,0.0,-0.1143798828125,0.0067138671875,-0.9739990234375,-140.0,6.0,78.0,101224.0,0.8360000252723694,0,0
3.284998,0.038360595703125,-0.70599365234375,0.705780029296875,0.04364013671875,0.06103515625,-0.1220703125,0.06103515625,-0.1123046875,0.0050048828125,-0.9736328125,-140.0,6.0,78.0,101224.0,0.8360000252723694,0,0
3.291997,0.038360595703125,-0.70599365234375,0.705780029296875,0.04364013671875,0.06103515625,0.1220703125,0.0,-0.11181640625,0.008056640625,-0.9730224609375,-140.0,6.0,78.0,101224.0,0.8360000252723694,0,0
3.298996,0.038360595703125,-0.70599365234375,0.705780029296875,0.04364013671875,0.06103515625,0.1220703125,0.0,-0.11181640625,0.008056640625,-0.9730224609375,-140.0,6.0,78.0,101224.0,0.8360000252723694,0,0
3.305996,0.038330078125,-0.70599365234375,0.705780029296875,0.043609619140625,-0.244140625,-0.06103515625,0.06103515625,-0.1109619140625,0.0093994140625,-0.9735107421875,-140.0,7.0,79.0,101224.0,0.8360000252723694,0,0
3.312995,0.038360595703125,-0.705657958984375,0.706146240234375,0.043609619140625,-0.06103515625,-0.1220703125,0.1220703125,-0.1121826171875,0.0068359375,-0.9722900390625,-140.0,7.0,79.0,101224.0,0.8360000252723694,0,0
3.319996,0.038360595703125,-0.705657958984375,0.706146240234375,0.043609619140625,0.18310546875,0.0,0.06103515625,-0.1124267578125,0.007080078125,-0.97314453125,-140.0,7.0,79.0,101224.0,0.8360000252723694,0,0
3.326995,0.038330078125,-0.705657958984375,0.706146240234375,0.0435791015625,-0.06103515625,0.06103515625,0.0,-0.114501953125,0.0064697265625,-0.97412109375,-140.0,7.0,79.0,101224.0,0.8360000252723694,0,0
3.333022,0.038330078125,-0.705657958984375,0.706146240234375,0.0435791015625,-0.06103515625,0.06103515625,0.0,-0.114501953125,0.0064697265625,-0.97412109375,-140.0,7.0,79.0,101224.0,0.8360000252723694,0,0
3.339995,0.038330078125,-0.705657958984375,0.706146240234375,0.0435791015625,-0.18310546875,-0.244140625,0.06103515625,-0.1134033203125,0.00830078125,-0.9725341796875,-140.0,7.0,79.0,101224.0,0.8360000252723694,0,0
3.346996,0.038330078125,-0.705657958984375,0.706146240234375,0.0435791015625,-0.1220703125,-0.18310546875,-0.244140625,-0.113525390625,0.0068359375,-0.9730224609375,-140.0,7.0,79.0,101224.0,0.8360000252723694,0,0
3.353995,0.038360595703125,-0.705657958984375,0.706146240234375,0.0435791015625,-0.06103515625,-0.1220703125,-0.1220703125,-0.1141357421875,0.004638671875,-0.9708251953125,-140.0,7.0,79.0,101224.0,0.8360000252723694,0,0
3.374998,0.038360595703125,-0.705657958984375,0.706146240234375,0.043609619140625,0.0,-0.1220703125,0.0,-0.113037109375,0.0069580078125,-0.97216796875,-140.0,7.0,79.0,101224.0,0.8360000252723694,0,0
3.381997,0.038360595703125,-0.705657958984375,0.706146240234375,0.043609619140625,-0.06103515625,0.06103515625,0.06103515625,-0.1129150390625,0.0068359375,-0.9732666015625,-140.0,7.0,79.0,101224.0,0.8360000252723694,0,0
3.388996,0.038360595703125,-0.705657958984375,0.706146240234375,0.043609619140625,-0.1220703125,-0.06103515625,-0.244140625,-0.114013671875,0.0091552734375,-0.9752197265625,-140.0,7.0,79.0,101224.0,0.8360000252723694,0,0
3.395996,0.038360595703125,-0.705657958984375,0.706146240234375,0.043609619140625,0.06103515625,-0.244140625,-0.06103515625,-0.11376953125,0.0076904296875,-0.969970703125,-140.0,7.0,79.0,101224.0,0.8360000252723694,0,0
3.402995,0.038360595703125,-0.705657958984375,0.706146240234375,0.043609619140625,-0.244140625,-0.18310546875,-0.1220703125,-0.1138916015625,0.007568359375,-0.973876953125,-139.0,6.0,80.0,101224.0,0.8360000252723694,0,0
3.409996,0.03839111328125,-0.705291748046875,0.706512451171875,0.0435791015625,0.0,-0.1220703125,-0.1220703125,-0.11328125,0.0103759765625,-0.9708251953125,-139.0,6.0,80.0,101224.0,0.8360000252723694,0,0
3.416995,0.03839111328125,-0.705291748046875,0.706512451171875,0.0435791015625,0.0,-0.244140625,0.0,-0.1123046875,0.0059814453125,-0.9742431640625,-139.0,6.0,80.0,101224.0,0.8360000252723694,0,0
3.423022,0.03839111328125,-0.705291748046875,0.706512451171875,0.0435791015625,0.0,-0.244140625,0.0,-0.1123046875,0.0059814453125,-0.9742431640625,-139.0,6.0,80.0,101224.0,0.8360000252723694,0,0
3.429995,0.03839111328125,-0.705291748046875,0.706512451171875,0.0435791015625,-0.18310546875,-0.06103515625,-0.06103515625,-0.1136474609375,0.005615234375,-0.97314453125,-139.0,6.0,80.0,101224.0,0.8360000252723694,0,0
3.436996,0.038421630859375,-0.705291748046875,0.706512451171875,0.0435791015625,0.06103515625,0.0,-0.1220703125,-0.11474609375,0.008056640625,-0.974365234375,-139.0,6.0,80.0,101224.0,0.8360000252723694,0,0
3.443995,0.038421630859375,-0.705291748046875,0.706512451171875,0.0435791015625,0.06103515625,0.0,0.1220703125,-0.1142578125,0.006103515625,-0.9725341796875,-139.0,6.0,80.0,101224.0,0.8360000252723694,0,0
3.464998,0.03839111328125,-0.705291748046875,0.706512451171875,0.0435791015625,-0.244140625,-0.06103515625,0.06103515625,-0.1124267578125,0.0072021484375,-0.9752197265625,-139.0,6.0,80.0,101224.0,0.8360000252723694,0,0
3.471997,0.03839111328125,-0.705291748046875,0.706512451171875,0.0435791015625,-0.1220703125,0.0,0.0,-0.11328125,0.0091552734375,-0.971923828125,-139.0,6.0,80.0,101224.0,0.8360000252723694,0,0
3.478996,0.03839111328125,-0.705291748046875,0.706512451171875,0.0435791015625,0.0,-0.3662109375,-0.18310546875,-0.1124267578125,0.0072021484375,-0.9737548828125,-139.0,6.0,80.0,101224.0,0.8360000252723694,0,0
3.485996,0.03839111328125,-0.705291748046875,0.706512451171875,0.0435791015625,-0.06103515625,-0.244140625,0.1220703125,-0.11376953125,0.0037841796875,-0.9744873046875,-139.0,6.0,80.0,101224.0,0.8360000252723694,0,0
3.492996,0.03839111328125,-0.705291748046875,0.706512451171875,0.0435791015625,0.06103515625,-0.3662109375,0.18310546875,-0.1124267578125,0.0079345703125,-0.9725341796875,-139.0,6.0,80.0,101224.0,0.8360000252723694,0,0
3.5,0.03839111328125,-0.705291748046875,0.706512451171875,0.043609619140625,-0.30517578125,0.0,-0.1220703125,-0.1168212890625,0.0089111328125,-0.9727783203125,-139.0,6.0,80.0,101224.0,0.8360000252723694,0,0
3.506999,0.03839111328125,-0.705291748046875,0.706512451171875,0.043609619140625,-0.06103515625,-0.06103515625,-0.18310546875,-0.115966796875,0.0067138671875,-0.973876953125,-139.0,6.0,80.0,101224.0,0.8360000252723694,0,0
3.513032,0.03839111328125,-0.705291748046875,0.706512451171875,0.043609619140625,-0.06103515625,-0.06103515625,-0.18310546875,-0.115966796875,0.0067138671875,-0.973876953125,-139.0,6.0,80.0,101224.0,0.8360000252723694,0,0
3.519996,0.038421630859375,-0.704925537109375,0.70684814453125,0.0435791015625,-0.30517578125,-0.06103515625,-0.06103515625,-0.1146240234375,0.0068359375,-0.9732666015625,-139.0,6.0,80.0,101224.0,0.8360000252723694,0,0
3.527,0.038421630859375,-0.704925537109375,0.70684814453125,0.0435791015625,0.06103515625,0.0,0.1220703125,-0.1138916015625,0.007568359375,-0.97314453125,-139.0,6.0,80.0,101224.0,0.8360000252723694,0,0
3.547998,0.038421630859375,-0.704925537109375,0.70684814453125,0.043609619140625,-0.244140625,-0.18310546875,-0.1220703125,-0.1134033203125,0.0078125,-0.9749755859375,-139.0,6.0,80.0,101224.0,0.8360000252723694,0,0
3.554998,0.038421630859375,-0.704925537109375,0.70684814453125,0.043609619140625,-0.1220703125,-0.1220703125,-0.06103515625,-0.1148681640625,0.0084228515625,-0.973388671875,-139.0,6.0,80.0,101224.0,0.8360000252723694,0,0
3.561997,0.038421630859375,-0.704925537109375,0.70684814453125,0.043609619140625,-0.06103515625,-0.244140625,-0.18310546875,-0.1143798828125,0.0078125,-0.9744873046875,-139.0,6.0,80.0,101224.0,0.8360000252723694,0,0
3.568996,0.038421630859375,-0.704925537109375,0.70684814453125,0.043609619140625,-0.18310546875,-0.1220703125,0.18310546875,-0.1141357421875,0.0059814453125,-0.9727783203125,-139.0,6.0,80.0,101224.0,0.8360000252723694,0,0
3.575996,0.038421630859375,-0.704925537109375,0.70684814453125,0.043609619140625,-0.244140625,-0.1220703125,-0.18310546875,-0.115234375,0.006103515625,-0.9737548828125,-139.0,6.0,80.0,101224.0,0.8360000252723694,0,0
3.582995,0.038421630859375,-0.704925537109375,0.70684814453125,0.043609619140625,-0.18310546875,-0.244140625,-0.1220703125,-0.1138916015625,0.008056640625,-0.9730224609375,-139.0,6.0,80.0,101224.0,0.8360000252723694,0,0
3.589996,0.038421630859375,-0.704925537109375,0.70684814453125,0.043609619140625,-0.18310546875,0.0,0.0,-0.1151123046875,0.0076904296875,-0.97412109375,-139.0,6.0,80.0,101224.0,0.8360000252723694,0,0
3.596995,0.0384521484375,-0.704925537109375,0.70684814453125,0.043609619140625,-0.06103515625,-0.18310546875,0.06103515625,-0.11376953125,0.005859375,-0.9730224609375,-139.0,6.0,80.0,101224.0,0.8360000252723694,0,0
3.603994,0.0384521484375,-0.704925537109375,0.70684814453125,0.043609619140625,0.06103515625,-0.06103515625,-0.06103515625,-0.1142578125,0.006103515625,-0.9730224609375,-140.0,5.0,79.0,101224.0,0.8350000381469727,0,0
3.610026,0.0384521484375,-0.704925537109375,0.70684814453125,0.043609619140625,0.06103515625,-0.06103515625,-0.06103515625,-0.1142578125,0.006103515625,-0.9730224609375,-140.0,5.0,79.0,101224.0,0.8350000381469727,0,0
3.616996,0.0384521484375,-0.7047119140625,0.70709228515625,0.0435791015625,-0.18310546875,0.06103515625,0.0,-0.1123046875,0.0079345703125,-0.9737548828125,-140.0,5.0,79.0,101224.0,0.8350000381469727,0,0
3.637998,0.0384521484375,-0.7047119140625,0.70709228515625,0.0435791015625,-0.1220703125,-0.1220703125,0.06103515625,-0.1114501953125,0.0050048828125,-0.9735107421875,-140.0,5.0,79.0,101224.0,0.8350000381469727,0,0
3.644998,0.038421630859375,-0.7047119140625,0.70709228515625,0.0435791015625,0.0,-0.18310546875,0.06103515625,-0.1114501953125,0.008056640625,-0.973388671875,-140.0,5.0,79.0,101224.0,0.8350000381469727,0,0
3.651997,0.0384521484375,-0.7047119140625,0.70709228515625,0.0435791015625,0.06103515625,-0.18310546875,-0.244140625,-0.1153564453125,0.00537109375,-0.9727783203125,-140.0,5.0,79.0,101224.0,0.8350000381469727,0,0
3.658996,0.0384521484375,-0.7047119140625,0.70709228515625,0.0435791015625,-0.1220703125,0.0,-0.18310546875,-0.1131591796875,0.00439453125,-0.9737548828125,-140.0,5.0,79.0,101224.0,0.8350000381469727,0,0
3.665996,0.0384521484375,-0.7047119140625,0.70709228515625,0.0435791015625,-0.06103515625,-0.06103515625,-0.06103515625,-0.1116943359375,0.0078125,-0.9742431640625,-140.0,5.0,79.0,101224.0,0.8350000381469727,0,0
3.672995,0.0384521484375,-0.7047119140625,0.70709228515625,0.0435791015625,0.0,-0.3662109375,-0.06103515625,-0.1126708984375,0.0067138671875,-0.9739990234375,-140.0,5.0,79.0,101224.0,0.8350000381469727,0,0
3.679996,0.0384521484375,-0.7047119140625,0.70709228515625,0.043548583984375,-0.06103515625,-0.1220703125,-0.1220703125,-0.11083984375,0.005859375,-0.9732666015625,-140.0,5.0,79.0,101224.0,0.8350000381469727,0,0
3.686995,0.038421630859375,-0.7047119140625,0.70709228515625,0.043548583984375,-0.1220703125,0.06103515625,0.18310546875,-0.113525390625,0.00830078125,-0.9730224609375,-140.0,5.0,79.0,101224.0,0.8350000381469727,0,0
3.693994,0.038421630859375,-0.7047119140625,0.70709228515625,0.0435791015625,-0.30517578125,-0.42724609375,-0.06103515625,-0.1138916015625,0.0091552734375,-0.9727783203125,-140.0,5.0,79.0,101224.0,0.8350000381469727,0,0
3.700026,0.038421630859375,-0.7047119140625,0.70709228515625,0.0435791015625,-0.30517578125,-0.42724609375,-0.06103515625,-0.1138916015625,0.0091552734375,-0.9727783203125,-140.0,5.0,79.0,101224.0,0.8350000381469727,0,0
3.720994,0.038421630859375,-0.7044677734375,0.70733642578125,0.043548583984375,0.0,-0.244140625,0.06103515625,-0.1142578125,0.0069580078125,-0.97265625,-139.0,5.0,78.0,101224.0,0.8360000252723694,0,0
3.727998,0.0384521484375,-0.7044677734375,0.70733642578125,0.043548583984375,-0.06103515625,-0.06103515625,0.06103515625,-0.114013671875,0.00732421875,-0.974365234375,-139.0,5.0,78.0,101224.0,0.8360000252723694,0,0
3.734998,0.0384521484375,-0.7044677734375,0.70733642578125,0.043548583984375,-0.06103515625,-0.18310546875,0.1220703125,-0.11279296875,0.0067138671875,-0.9720458984375,-139.0,5.0,78.0,101224.0,0.8360000252723694,0,0
3.741997,0.0384521484375,-0.7044677734375,0.70733642578125,0.043548583984375,0.0,-0.1220703125,0.0,-0.113525390625,0.0069580078125,-0.9739990234375,-139.0,5.0,78.0,101224.0,0.8360000252723694,0,0
3.748996,0.0384521484375,-0.7044677734375,0.70733642578125,0.043548583984375,-0.67138671875,-0.1220703125,0.0,-0.1146240234375,0.0072021484375,-0.974365234375,-139.0,5.0,78.0,101224.0,0.8360000252723694,0,0
3.755996,0.0384521484375,-0.7044677734375,0.70733642578125,0.043548583984375,-0.18310546875,-0.1220703125,0.0,-0.11328125,0.0067138671875,-0.9752197265625,-139.0,5.0,78.0,101224.0,0.8360000252723694,0,0
3.762996,0.0384521484375,-0.7044677734375,0.70733642578125,0.043548583984375,-0.06103515625,-0.244140625,0.0,-0.1129150390625,0.0067138671875,-0.9737548828125,-139.0,5.0,78.0,101224.0,0.8360000252723694,0,0
3.77,0.0384521484375,-0.7044677734375,0.70733642578125,0.043548583984375,-0.18310546875,0.06103515625,-0.18310546875,-0.11328125,0.005859375,-0.9737548828125,-139.0,5.0,78.0,101224.0,0.8360000252723694,0,0
3.776999,0.0384521484375,-0.7044677734375,0.70733642578125,0.043548583984375,0.0,-0.18310546875,0.1220703125,-0.1134033203125,0.0072021484375,-0.9725341796875,-139.0,5.0,78.0,101224.0,0.8360000252723694,0,0
3.783999,0.0384521484375,-0.7044677734375,0.70733642578125,0.043548583984375,-0.18310546875,0.0,-0.244140625,-0.112060546875,0.006103515625,-0.9749755859375,-139.0,5.0,78.0,101224.0,0.8360000252723694,0,0
3.790998,0.0384521484375,-0.7044677734375,0.70733642578125,0.043548583984375,0.0,-0.06103515625,-0.1220703125,-0.1129150390625,0.0078125,-0.9732666015625,-139.0,5.0,78.0,101224.0,0.8360000252723694,0,0
3.810999,0.038482666015625,-0.704345703125,0.70745849609375,0.04351806640625,-0.1220703125,0.0,-0.06103515625,-0.1134033203125,0.0064697265625,-0.97412109375,-139.0,5.0,77.0,101224.0,0.8360000252723694,0,0
3.817998,0.038482666015625,-0.704345703125,0.70745849609375,0.04351806640625,-0.30517578125,0.0,0.0,-0.11279296875,0.0069580078125,-0.9754638671875,-139.0,5.0,77.0,101224.0,0.8360000252723694,0,0
3.824998,0.038482666015625,-0.704345703125,0.70745849609375,0.04351806640625,0.0,0.0,-0.244140625,-0.1143798828125,0.0076904296875,-0.9716796875,-139.0,5.0,77.0,101224.0,0.8360000252723694,0,0
3.831997,0.0384521484375,-0.704345703125,0.70745849609375,0.04351806640625,-0.06103515625,-0.18310546875,0.1220703125,-0.1126708984375,0.0069580078125,-0.973876953125,-139.0,5.0,77.0,101224.0,0.8360000252723694,0,0
3.838996,0.0384521484375,-0.704345703125,0.70745849609375,0.04351806640625,0.0,-0.06103515625,0.0,-0.111572265625,0.00634765625,-0.9718017578125,-139.0,5.0,77.0,101224.0,0.8360000252723694,0,0
3.845996,0.0384521484375,-0.704345703125,0.70745849609375,0.04351806640625,0.0,0.06103515625,0.1220703125,-0.11279296875,0.0084228515625,-0.9727783203125,-139.0,5.0,77.0,101224.0,0.8360000252723694,0,0
3.852996,0.0384521484375,-0.704345703125,0.70745849609375,0.04351806640625,-0.30517578125,0.06103515625,0.0,-0.11328125,0.007568359375,-0.974609375,-139.0,5.0,77.0,101224.0,0.8360000252723694,0,0
3.859996,0.0384521484375,-0.704345703125,0.70745849609375,0.04351806640625,-0.06103515625,-0.244140625,0.0,-0.1136474609375,0.0074462890625,-0.9716796875,-139.0,5.0,77.0,101224.0,0.8360000252723694,0,0
3.866995,0.0384521484375,-0.704345703125,0.70745849609375,0.04351806640625,0.0,-0.06103515625,-0.06103515625,-0.11328125,0.0086669921875,-0.9713134765625,-139.0,5.0,77.0,101224.0,0.8360000252723694,0,0
3.873994,0.0384521484375,-0.704345703125,0.70745849609375,0.04351806640625,-0.18310546875,0.0,-0.06103515625,-0.1146240234375,0.0067138671875,-0.97216796875,-139.0,5.0,77.0,101224.0,0.8360000252723694,0,0
3.880998,0.0384521484375,-0.704345703125,0.70745849609375,0.04351806640625,-0.1220703125,-0.18310546875,0.0,-0.112548828125,0.00634765625,-0.9716796875,-139.0,5.0,77.0,101224.0,0.8360000252723694,0,0
3.900994,0.0384521484375,-0.704345703125,0.70745849609375,0.043487548828125,0.06103515625,-0.18310546875,0.0,-0.11474609375,0.0081787109375,-0.97509765625,-139.0,5.0,77.0,101224.0,0.8350000381469727,0,0
3.907998,0.0384521484375,-0.704345703125,0.70745849609375,0.043487548828125,0.0,-0.18310546875,-0.06103515625,-0.11376953125,0.0048828125,-0.9742431640625,-140.0,6.0,78.0,101224.0,0.8350000381469727,0,0
3.914998,0.038482666015625,-0.7039794921875,0.707794189453125,0.04345703125,-0.06103515625,0.1220703125,-0.06103515625,-0.11181640625,0.005859375,-0.972900390625,-140.0,6.0,78.0,101224.0,0.8350000381469727,0,0
3.921997,0.038482666015625,-0.7039794921875,0.707794189453125,0.04345703125,0.1220703125,-0.06103515625,-0.1220703125,-0.1138916015625,0.0087890625,-0.9742431640625,-140.0,6.0,78.0,101224.0,0.8350000381469727,0,0
3.928996,0.038482666015625,-0.7039794921875,0.707794189453125,0.043487548828125,0.0,0.0,-0.1220703125,-0.113037109375,0.0076904296875,-0.9730224609375,-140.0,6.0,78.0,101224.0,0.8350000381469727,0,0
3.935996,0.038482666015625,-0.7039794921875,0.707794189453125,0.043487548828125,-0.06103515625,-0.30517578125,-0.06103515625,-0.11376953125,0.00732421875,-0.9727783203125,-140.0,6.0,78.0,101224.0,0.8350000381469727,0,0
3.942995,0.038482666015625,-0.7039794921875,0.707794189453125,0.043487548828125,0.18310546875,-0.06103515625,0.06103515625,-0.1138916015625,0.0078125,-0.973388671875,-140.0,6.0,78.0,101224.0,0.8350000381469727,0,0
3.949996,0.038482666015625,-0.7039794921875,0.707794189453125,0.043487548828125,-0.06103515625,0.0,0.18310546875,-0.115234375,0.0067138671875,-0.9708251953125,-140.0,6.0,78.0,101224.0,0.8350000381469727,0,0
3.956995,0.038482666015625,-0.7039794921875,0.707794189453125,0.043487548828125,0.0,0.0,0.0,-0.115966796875,0.00830078125,-0.9732666015625,-140.0,6.0,78.0,101224.0,0.8350000381469727,0,0
3.963994,0.03851318359375,-0.7039794921875,0.707794189453125,0.043487548828125,0.18310546875,-0.18310546875,0.06103515625,-0.1136474609375,0.00830078125,-0.9744873046875,-140.0,6.0,78.0,101224.0,0.8350000381469727,0,0
3.98403,0.03851318359375,-0.7039794921875,0.707794189453125,0.043487548828125,-0.1220703125,-0.18310546875,0.1220703125,-0.11328125,0.0057373046875,-0.974365234375,-140.0,6.0,78.0,101224.0,0.8350000381469727,0,0
3.990994,0.03851318359375,-0.7039794921875,0.707794189453125,0.043487548828125,-0.06103515625,-0.06103515625,-0.18310546875,-0.115478515625,0.008056640625,-0.97265625,-140.0,6.0,78.0,101224.0,0.8350000381469727,0,0
3.997998,0.03851318359375,-0.7039794921875,0.707794189453125,0.043487548828125,-0.1220703125,0.0,0.0,-0.11376953125,0.0087890625,-0.9710693359375,-140.0,6.0,78.0,101224.0,0.8350000381469727,0,0
4.004998,0.03851318359375,-0.7039794921875,0.707794189453125,0.043487548828125,-0.1220703125,0.0,0.0,-0.11376953125,0.0087890625,-0.9710693359375,-140.0,6.0,79.0,101224.0,0.8350000381469727,0,0
4.011997,0.038543701171875,-0.703643798828125,0.708160400390625,0.043487548828125,0.0,-0.06103515625,-0.1220703125,-0.1143798828125,0.008056640625,-0.9727783203125,-140.0,6.0,79.0,101224.0,0.8350000381469727,0,0
4.018996,0.03851318359375,-0.703643798828125,0.708160400390625,0.043487548828125,-0.06103515625,-0.18310546875,-0.18310546875,-0.1119384765625,0.008544921875,-0.97412109375,-140.0,6.0,79.0,101224.0,0.8350000381469727,0,0
4.025996,0.03851318359375,-0.703643798828125,0.708160400390625,0.043487548828125,0.30517578125,-0.06103515625,-0.06103515625,-0.1141357421875,0.0074462890625,-0.9742431640625,-140.0,6.0,79.0,101224.0,0.8350000381469727,0,0
4.032995,0.03851318359375,-0.703643798828125,0.708160400390625,0.043487548828125,-0.30517578125,-0.1220703125,0.0,-0.112060546875,0.0062255859375,-0.9752197265625,-140.0,6.0,79.0,101224.0,0.8350000381469727,0,0
4.039996,0.03851318359375,-0.703643798828125,0.708160400390625,0.043487548828125,-0.06103515625,0.0,-0.18310546875,-0.1124267578125,0.007080078125,-0.970947265625,-140.0,6.0,79.0,101224.0,0.8350000381469727,0,0
4.046995,0.038543701171875,-0.703643798828125,0.708160400390625,0.043487548828125,-0.18310546875,-0.30517578125,-0.18310546875,-0.1151123046875,0.0069580078125,-0.9736328125,-140.0,6.0,79.0,101224.0,0.8350000381469727,0,0
4.053994,0.038543701171875,-0.703643798828125,0.708160400390625,0.043487548828125,0.06103515625,-0.18310546875,0.1220703125,-0.1138916015625,0.00537109375,-0.97216796875,-140.0,6.0,79.0,101224.0,0.8350000381469727,0,0
4.07403,0.038543701171875,-0.703643798828125,0.708160400390625,0.043487548828125,-0.06103515625,0.1220703125,-0.1220703125,-0.113525390625,0.0076904296875,-0.973876953125,-140.0,6.0,79.0,101224.0,0.8350000381469727,0,0
4.080999,0.038543701171875,-0.703643798828125,0.708160400390625,0.04345703125,0.1220703125,-0.1220703125,-0.18310546875,-0.1131591796875,0.0069580078125,-0.971923828125,-140.0,6.0,79.0,101224.0,0.8350000381469727,0,0
4.087998,0.03851318359375,-0.703643798828125,0.708160400390625,0.04345703125,0.0,-0.30517578125,0.06103515625,-0.11181640625,0.005615234375,-0.972900390625,-140.0,6.0,79.0,101224.0,0.8350000381469727,0,0
4.094998,0.038543701171875,-0.703643798828125,0.708160400390625,0.04345703125,0.06103515625,-0.06103515625,0.18310546875,-0.114013671875,0.005615234375,-0.97119140625,-140.0,6.0,79.0,101224.0,0.8350000381469727,0,0
4.101997,0.038543701171875,-0.703643798828125,0.708160400390625,0.04345703125,0.18310546875,-0.06103515625,-0.06103515625,-0.1146240234375,0.0084228515625,-0.9735107421875,-141.0,6.0,78.0,101224.0,0.8350000381469727,0,0
4.108996,0.038543701171875,-0.703399658203125,0.7083740234375,0.04345703125,-0.244140625,-0.18310546875,0.1220703125,-0.1153564453125,0.0054931640625,-0.9739990234375,-141.0,6.0,78.0,101224.0,0.8350000381469727,0,0
4.115996,0.038543701171875,-0.703399658203125,0.7083740234375,0.04345703125,-0.06103515625,-0.1220703125,-0.06103515625,-0.1138916015625,0.0067138671875,-0.9722900390625,-141.0,6.0,78.0,101224.0,0.8350000381469727,0,0
4.122996,0.038543701171875,-0.703399658203125,0.7083740234375,0.04345703125,0.1220703125,0.06103515625,0.0,-0.1134033203125,0.0081787109375,-0.970947265625,-141.0,6.0,78.0,101224.0,0.8350000381469727,0,0
4.13,0.038543701171875,-0.703399658203125,0.7083740234375,0.04345703125,-0.18310546875,-0.244140625,-0.06103515625,-0.1131591796875,0.0086669921875,-0.972412109375,-141.0,6.0,78.0,101224.0,0.8350000381469727,0,0
4.136999,0.038543701171875,-0.703399658203125,0.7083740234375,0.04345703125,0.1220703125,0.06103515625,-0.1220703125,-0.1138916015625,0.0074462890625,-0.97412109375,-141.0,6.0,78.0,101224.0,0.8350000381469727,0,0
4.143999,0.038543701171875,-0.703399658203125,0.7083740234375,0.04345703125,0.0,0.0,-0.06103515625,-0.1114501953125,0.0052490234375,-0.9725341796875,-141.0,6.0,78.0,101224.0,0.8350000381469727,0,0
4.164997,0.038543701171875,-0.703399658203125,0.708404541015625,0.04345703125,-0.06103515625,-0.1220703125,-0.06103515625,-0.11279296875,0.0081787109375,-0.9735107421875,-141.0,6.0,78.0,101224.0,0.8370000123977661,0,0
4.171024,0.038543701171875,-0.703399658203125,0.708404541015625,0.04345703125,-0.06103515625,-0.1220703125,-0.06103515625,-0.11279296875,0.0081787109375,-0.9735107421875,-141.0,6.0,78.0,101224.0,0.8370000123977661,0,0
4.177998,0.038543701171875,-0.703399658203125,0.708404541015625,0.04345703125,-0.06103515625,0.1220703125,-0.1220703125,-0.114990234375,0.00634765625,-0.9736328125,-141.0,6.0,78.0,101224.0,0.8370000123977661,0,0
4.184998,0.038543701171875,-0.703399658203125,0.708404541015625,0.04345703125,-0.06103515625,0.0,0.06103515625,-0.1142578125,0.0074462890625,-0.972900390625,-141.0,6.0,78.0,101224.0,0.8370000123977661,0,0
4.191997,0.038543701171875,-0.703399658203125,0.708404541015625,0.043426513671875,0.06103515625,0.06103515625,-0.06103515625,-0.1136474609375,0.0054931640625,-0.9722900390625,-141.0,6.0,78.0,101224.0,0.8370000123977661,0,0
4.198996,0.038543701171875,-0.703399658203125,0.7083740234375,0.043426513671875,0.0,0.0,-0.244140625,-0.113525390625,0.00537109375,-0.973388671875,-141.0,6.0,78.0,101224.0,0.8370000123977661,0,0
4.205996,0.038543701171875,-0.703399658203125,0.7083740234375,0.043426513671875,0.0,-0.06103515625,0.06103515625,-0.1156005859375,0.0069580078125,-0.9736328125,-140.0,5.0,78.0,101224.0,0.8370000123977661,0,0
4.212995,0.038543701171875,-0.703277587890625,0.70849609375,0.043426513671875,0.1220703125,-0.30517578125,-0.06103515625,-0.1138916015625,0.0074462890625,-0.974365234375,-140.0,5.0,78.0,101224.0,0.8370000123977661,0,0
4.219996,0.038543701171875,-0.703277587890625,0.70849609375,0.043426513671875,-0.06103515625,-0.18310546875,0.1220703125,-0.1134033203125,0.007080078125,-0.971435546875,-140.0,5.0,78.0,101224.0,0.8370000123977661,0,0
4.226995,0.038543701171875,-0.703277587890625,0.70849609375,0.043426513671875,-0.30517578125,-0.06103515625,0.1220703125,-0.11328125,0.0086669921875,-0.972412109375,-140.0,5.0,78.0,101224.0,0.8370000123977661,0,0
4.233994,0.038543701171875,-0.703277587890625,0.70849609375,0.043426513671875,-0.06103515625,-0.06103515625,0.0,-0.115478515625,0.0076904296875,-0.973876953125,-140.0,5.0,78.0,101224.0,0.8370000123977661,0,0
4.240998,0.038543701171875,-0.703277587890625,0.70849609375,0.04345703125,-0.06103515625,-0.06103515625,0.0,-0.112548828125,0.0084228515625,-0.97314453125,-140.0,5.0,78.0,101224.0,0.8370000123977661,0,0
4.247998,0.03857421875,-0.703277587890625,0.70849609375,0.04345703125,-0.1220703125,-0.1220703125,0.0,-0.115478515625,0.0072021484375,-0.973388671875,-140.0,5.0,78.0,101224.0,0.8370000123977661,0,0
4.254997,0.03857421875,-0.703277587890625,0.70849609375,0.04345703125,-0.18310546875,0.06103515625,-0.18310546875,-0.112060546875,0.0078125,-0.974365234375,-140.0,5.0,78.0,101224.0,0.8360000252723694,0,0
4.261024,0.03857421875,-0.703277587890625,0.70849609375,0.04345703125,-0.18310546875,0.06103515625,-0.18310546875,-0.112060546875,0.0078125,-0.974365234375,-140.0,5.0,78.0,101224.0,0.8360000252723694,0,0
4.267998,0.038543701171875,-0.703277587890625,0.70849609375,0.04345703125,-0.06103515625,-0.06103515625,0.1220703125,-0.11328125,0.0093994140625,-0.9730224609375,-140.0,5.0,78.0,101224.0,0.8360000252723694,0,0
4.274998,0.038543701171875,-0.703277587890625,0.70849609375,0.04345703125,0.06103515625,0.06103515625,-0.18310546875,-0.1151123046875,0.007080078125,-0.974365234375,-140.0,5.0,78.0,101224.0,0.8360000252723694,0,0
4.281997,0.038543701171875,-0.703277587890625,0.70849609375,0.04345703125,-0.1220703125,-0.1220703125,0.1220703125,-0.11328125,0.0087890625,-0.97265625,-140.0,5.0,78.0,101224.0,0.8360000252723694,0,0
4.288996,0.038543701171875,-0.703277587890625,0.70849609375,0.04345703125,-0.18310546875,-0.30517578125,-0.244140625,-0.11328125,0.0074462890625,-0.973876953125,-140.0,5.0,78.0,101224.0,0.8360000252723694,0,0
4.295996,0.038543701171875,-0.703277587890625,0.70849609375,0.04345703125,-0.1220703125,0.0,0.0,-0.11279296875,0.0076904296875,-0.971923828125,-140.0,5.0,78.0,101224.0,0.8360000252723694,0,0
4.302995,0.038543701171875,-0.703277587890625,0.70849609375,0.04345703125,0.06103515625,0.0,0.0,-0.114990234375,0.0086669921875,-0.9732666015625,-141.0,4.0,77.0,101224.0,0.8360000252723694,0,0
4.309996,0.038543701171875,-0.703399658203125,0.708404541015625,0.043487548828125,-0.244140625,0.0,0.18310546875,-0.114501953125,0.008056640625,-0.9749755859375,-141.0,4.0,77.0,101224.0,0.8360000252723694,0,0
4.316995,0.038543701171875,-0.703399658203125,0.708404541015625,0.043487548828125,-0.30517578125,-0.18310546875,-0.1220703125,-0.114501953125,0.0059814453125,-0.9718017578125,-141.0,4.0,77.0,101224.0,0.8360000252723694,0,0
4.337998,0.03857421875,-0.703399658203125,0.7083740234375,0.043487548828125,0.0,-0.30517578125,0.06103515625,-0.114990234375,0.006591796875,-0.9727783203125,-141.0,4.0,77.0,101224.0,0.8360000252723694,0,0
4.344997,0.03857421875,-0.703399658203125,0.7083740234375,0.043487548828125,0.1220703125,-0.18310546875,0.0,-0.1134033203125,0.006103515625,-0.973876953125,-141.0,4.0,77.0,101224.0,0.8360000252723694,0,0
4.351996,0.03857421875,-0.703399658203125,0.7083740234375,0.043487548828125,-0.18310546875,-0.1220703125,0.1220703125,-0.1143798828125,0.0084228515625,-0.97119140625,-141.0,4.0,77.0,101224.0,0.8350000381469727,0,0
4.358029,0.03857421875,-0.703399658203125,0.7083740234375,0.043487548828125,-0.18310546875,-0.1220703125,0.1220703125,-0.1143798828125,0.0084228515625,-0.97119140625,-141.0,4.0,77.0,101224.0,0.8350000381469727,0,0
4.364998,0.03857421875,-0.703399658203125,0.7083740234375,0.043487548828125,-0.1220703125,-0.06103515625,-0.1220703125,-0.1131591796875,0.0068359375,-0.971923828125,-141.0,4.0,77.0,101224.0,0.8350000381469727,0,0
4.371997,0.038543701171875,-0.703399658203125,0.7083740234375,0.043487548828125,0.0,-0.18310546875,-0.1220703125,-0.113037109375,0.0084228515625,-0.97314453125,-141.0,4.0,77.0,101224.0,0.8350000381469727,0,0
4.378996,0.03857421875,-0.703399658203125,0.7083740234375,0.043487548828125,0.06103515625,-0.18310546875,0.18310546875,-0.1138916015625,0.0064697265625,-0.9725341796875,-141.0,4.0,77.0,101224.0,0.8350000381469727,0,0
4.385996,0.03857421875,-0.703399658203125,0.7083740234375,0.043487548828125,0.18310546875,-0.18310546875,-0.06103515625,-0.1151123046875,0.0079345703125,-0.97412109375,-141.0,4.0,77.0,101224.0,0.8350000381469727,0,0
4.392996,0.03857421875,-0.703399658203125,0.7083740234375,0.043487548828125,-0.18310546875,0.0,0.18310546875,-0.11376953125,0.0084228515625,-0.9708251953125,-141.0,4.0,77.0,101224.0,0.8350000381469727,0,0
4.4,0.038543701171875,-0.703399658203125,0.7083740234375,0.04351806640625,-0.06103515625,-0.18310546875,0.06103515625,-0.1126708984375,0.0084228515625,-0.9730224609375,-141.0,4.0,77.0,101224.0,0.8350000381469727,0,0
4.420998,0.038543701171875,-0.703521728515625,0.708282470703125,0.043487548828125,-0.18310546875,-0.30517578125,-0.06103515625,-0.11181640625,0.008056640625,-0.971923828125,-141.0,4.0,76.0,101224.0,0.8350000381469727,0,0
4.427998,0.038543701171875,-0.703521728515625,0.708282470703125,0.043487548828125,0.0,0.1220703125,-0.1220703125,-0.11328125,0.0059814453125,-0.9742431640625,-141.0,4.0,76.0,101224.0,0.8350000381469727,0,0
4.434997,0.038543701171875,-0.703521728515625,0.708282470703125,0.043487548828125,-0.18310546875,0.06103515625,-0.06103515625,-0.114501953125,0.00537109375,-0.974853515625,-141.0,4.0,76.0,101224.0,0.8350000381469727,0,0
4.441996,0.038543701171875,-0.703521728515625,0.708282470703125,0.043487548828125,-0.1220703125,-0.06103515625,0.1220703125,-0.1123046875,0.006591796875,-0.9732666015625,-141.0,4.0,76.0,101224.0,0.8350000381469727,0,0
4.448029,0.038543701171875,-0.703521728515625,0.708282470703125,0.043487548828125,-0.1220703125,-0.06103515625,0.1220703125,-0.1123046875,0.006591796875,-0.9732666015625,-141.0,4.0,76.0,101224.0,0.8350000381469727,0,0
4.454998,0.03857421875,-0.703521728515625,0.708282470703125,0.043487548828125,0.0,0.06103515625,-0.1220703125,-0.1134033203125,0.0079345703125,-0.9727783203125,-141.0,4.0,76.0,101224.0,0.8350000381469727,0,0
4.461997,0.038543701171875,-0.703521728515625,0.708282470703125,0.043487548828125,0.06103515625,-0.06103515625,0.06103515625,-0.11279296875,0.0059814453125,-0.972412109375,-141.0,4.0,76.0,101224.0,0.8350000381469727,0,0
4.468996,0.03857421875,-0.703521728515625,0.708282470703125,0.043487548828125,0.06103515625,-0.06103515625,-0.1220703125,-0.1146240234375,0.00732421875,-0.97216796875,-141.0,4.0,76.0,101224.0,0.8350000381469727,0,0
4.475996,0.03857421875,-0.703521728515625,0.708282470703125,0.043487548828125,0.1220703125,-0.1220703125,-0.1220703125,-0.1126708984375,0.0079345703125,-0.9730224609375,-141.0,4.0,76.0,101224.0,0.8350000381469727,0,0
4.482995,0.03857421875,-0.703521728515625,0.708282470703125,0.043487548828125,-0.1220703125,-0.244140625,-0.06103515625,-0.11279296875,0.0067138671875,-0.9735107421875,-141.0,4.0,76.0,101224.0,0.8350000381469727,0,0
4.489996,0.03857421875,-0.703521728515625,0.708282470703125,0.043487548828125,0.18310546875,0.06103515625,0.0,-0.1129150390625,0.0086669921875,-0.972412109375,-141.0,4.0,76.0,101224.0,0.8350000381469727,0,0
4.496995,0.038543701171875,-0.703521728515625,0.708282470703125,0.043487548828125,0.0,0.06103515625,0.06103515625,-0.11083984375,0.0067138671875,-0.973876953125,-141.0,4.0,76.0,101224.0,0.8350000381469727,0,0
4.503994,0.038543701171875,-0.703521728515625,0.708282470703125,0.04345703125,0.18310546875,-0.18310546875,-0.1220703125,-0.1131591796875,0.0069580078125,-0.9691162109375,-142.0,4.0,75.0,101224.0,0.8350000381469727,0,0
4.510998,0.038543701171875,-0.703643798828125,0.708160400390625,0.04345703125,-0.244140625,-0.18310546875,-0.06103515625,-0.113037109375,0.0081787109375,-0.970458984375,-142.0,4.0,75.0,101224.0,0.8350000381469727,0,0
4.517998,0.038543701171875,-0.703643798828125,0.708160400390625,0.043487548828125,-0.18310546875,-0.18310546875,0.06103515625,-0.1156005859375,0.0081787109375,-0.9735107421875,-142.0,4.0,75.0,101224.0,0.8350000381469727,0,0
4.524997,0.03851318359375,-0.703643798828125,0.708160400390625,0.043487548828125,-0.244140625,-0.1220703125,-0.18310546875,-0.111083984375,0.0078125,-0.9708251953125,-142.0,4.0,75.0,101224.0,0.8350000381469727,0,0
4.531996,0.03851318359375,-0.703643798828125,0.708160400390625,0.043487548828125,-0.06103515625,-0.1220703125,-0.06103515625,-0.1143798828125,0.0096435546875,-0.9725341796875,-142.0,4.0,75.0,101224.0,0.8350000381469727,0,0
4.538996,0.03851318359375,-0.703643798828125,0.708160400390625,0.043487548828125,-0.06103515625,0.0,-0.30517578125,-0.11328125,0.00732421875,-0.9755859375,-142.0,4.0,75.0,101224.0,0.8350000381469727,0,0
4.545028,0.03851318359375,-0.703643798828125,0.708160400390625,0.043487548828125,-0.06103515625,0.0,-0.30517578125,-0.11328125,0.00732421875,-0.9755859375,-142.0,4.0,75.0,101224.0,0.8350000381469727,0,0
4.551997,0.03851318359375,-0.703643798828125,0.708160400390625,0.043487548828125,-0.244140625,-0.1220703125,0.06103515625,-0.113525390625,0.007568359375,-0.97412109375,-142.0,4.0,75.0,101224.0,0.8360000252723694,0,0
4.558996,0.03851318359375,-0.703643798828125,0.708160400390625,0.043487548828125,-0.18310546875,-0.06103515625,0.06103515625,-0.11376953125,0.008056640625,-0.972412109375,-142.0,4.0,75.0,101224.0,0.8360000252723694,0,0
4.565996,0.038543701171875,-0.703643798828125,0.708160400390625,0.043487548828125,0.0,0.06103515625,-0.244140625,-0.11376953125,0.005615234375,-0.9715576171875,-142.0,4.0,75.0,101224.0,0.8360000252723694,0,0
4.572995,0.03851318359375,-0.703643798828125,0.708160400390625,0.043487548828125,0.1220703125,0.0,0.0,-0.11376953125,0.0089111328125,-0.973876953125,-142.0,4.0,75.0,101224.0,0.8360000252723694,0,0
4.593994,0.038543701171875,-0.703643798828125,0.708160400390625,0.043487548828125,-0.30517578125,-0.1220703125,-0.1220703125,-0.1146240234375,0.003662109375,-0.972900390625,-142.0,4.0,75.0,101224.0,0.8360000252723694,0,0
4.600998,0.038543701171875,-0.703643798828125,0.708160400390625,0.043487548828125,0.1220703125,-0.06103515625,-0.1220703125,-0.1134033203125,0.007568359375,-0.97314453125,-142.0,4.0,75.0,101224.0,0.8360000252723694,0,0
4.607998,0.038543701171875,-0.703643798828125,0.708160400390625,0.043487548828125,-0.06103515625,-0.1220703125,0.06103515625,-0.11376953125,0.0087890625,-0.9718017578125,-142.0,4.0,76.0,101224.0,0.8360000252723694,0,0
4.614997,0.038543701171875,-0.7037353515625,0.708038330078125,0.043487548828125,-0.244140625,0.0,-0.244140625,-0.1136474609375,0.0057373046875,-0.9727783203125,-142.0,4.0,76.0,101224.0,0.8360000252723694,0,0
4.621996,0.038543701171875,-0.7037353515625,0.708038330078125,0.043487548828125,-0.18310546875,-0.18310546875,0.06103515625,-0.115234375,0.0074462890625,-0.973876953125,-142.0,4.0,76.0,101224.0,0.8360000252723694,0,0
4.628996,0.03851318359375,-0.7037353515625,0.708038330078125,0.043487548828125,-0.1220703125,0.0,0.1220703125,-0.1138916015625,0.0089111328125,-0.9737548828125,-142.0,4.0,76.0,101224.0,0.8360000252723694,0,0
4.635028,0.03851318359375,-0.7037353515625,0.708038330078125,0.043487548828125,-0.1220703125,0.0,0.1220703125,-0.1138916015625,0.0089111328125,-0.9737548828125,-142.0,4.0,76.0,101224.0,0.8360000252723694,0,0
4.641997,0.03851318359375,-0.7037353515625,0.708038330078125,0.043487548828125,0.0,-0.1220703125,-0.06103515625,-0.1136474609375,0.005859375,-0.9744873046875,-142.0,4.0,76.0,101224.0,0.8360000252723694,0,0
4.648996,0.03851318359375,-0.7037353515625,0.708038330078125,0.043487548828125,-0.06103515625,-0.42724609375,-0.30517578125,-0.11279296875,0.008056640625,-0.97119140625,-142.0,4.0,76.0,101224.0,0.8360000252723694,0,0
4.655996,0.03851318359375,-0.7037353515625,0.708038330078125,0.043487548828125,0.06103515625,-0.06103515625,0.0,-0.1121826171875,0.0067138671875,-0.97412109375,-142.0,4.0,76.0,101224.0,0.8360000252723694,0,0
4.662996,0.03851318359375,-0.7037353515625,0.708038330078125,0.043487548828125,-0.244140625,-0.1220703125,0.06103515625,-0.114501953125,0.0062255859375,-0.9710693359375,-142.0,4.0,76.0,101224.0,0.8360000252723694,0,0
4.683999,0.03851318359375,-0.7037353515625,0.708038330078125,0.043487548828125,-0.06103515625,-0.1220703125,0.1220703125,-0.1146240234375,0.0074462890625,-0.97265625,-142.0,4.0,76.0,101224.0,0.8360000252723694,0,0
4.690998,0.03851318359375,-0.7037353515625,0.708038330078125,0.043487548828125,-0.244140625,0.18310546875,-0.06103515625,-0.11328125,0.007568359375,-0.973876953125,-142.0,4.0,76.0,101224.0,0.8360000252723694,0,0
4.697998,0.038543701171875,-0.7037353515625,0.708038330078125,0.043487548828125,0.1220703125,-0.06103515625,0.06103515625,-0.11328125,0.0057373046875,-0.97265625,-142.0,4.0,76.0,101224.0,0.8360000252723694,0,0
4.704997,0.03851318359375,-0.7037353515625,0.708038330078125,0.04351806640625,0.06103515625,-0.244140625,0.06103515625,-0.1156005859375,0.0084228515625,-0.9735107421875,-142.0,6.0,77.0,101224.0,0.8360000252723694,0,0
4.711996,0.038543701171875,-0.703521728515625,0.708282470703125,0.043487548828125,-0.244140625,-0.1220703125,-0.1220703125,-0.11572265625,0.00634765625,-0.974609375,-142.0,6.0,77.0,101224.0,0.8360000252723694,0,0
4.718996,0.038543701171875,-0.703521728515625,0.708282470703125,0.043487548828125,-0.1220703125,0.06103515625,0.18310546875,-0.1129150390625,0.0057373046875,-0.9742431640625,-142.0,6.0,77.0,101224.0,0.8360000252723694,0,0
4.725996,0.038543701171875,-0.703521728515625,0.708282470703125,0.043487548828125,-0.18310546875,-0.18310546875,-0.06103515625,-0.1136474609375,0.005859375,-0.97314453125,-142.0,6.0,77.0,101224.0,0.8360000252723694,0,0
4.732028,0.038543701171875,-0.703521728515625,0.708282470703125,0.043487548828125,-0.18310546875,-0.18310546875,-0.06103515625,-0.1136474609375,0.005859375,-0.97314453125,-142.0,6.0,77.0,101224.0,0.8360000252723694,0,0
4.738996,0.038543701171875,-0.703521728515625,0.708282470703125,0.043487548828125,0.18310546875,0.06103515625,-0.18310546875,-0.111083984375,0.0079345703125,-0.9705810546875,-142.0,6.0,77.0,101224.0,0.8360000252723694,0,0
4.745996,0.038543701171875,-0.703521728515625,0.708282470703125,0.043487548828125,0.0,-0.1220703125,-0.06103515625,-0.1126708984375,0.007080078125,-0.9732666015625,-142.0,6.0,77.0,101224.0,0.8360000252723694,0,0
4.752995,0.038543701171875,-0.703521728515625,0.708282470703125,0.043487548828125,0.0,-0.244140625,0.244140625,-0.1134033203125,0.0064697265625,-0.9744873046875,-142.0,6.0,77.0,101224.0,0.8360000252723694,0,0
4.759996,0.038543701171875,-0.703521728515625,0.708282470703125,0.043487548828125,0.1220703125,-0.06103515625,-0.06103515625,-0.1153564453125,0.0074462890625,-0.9718017578125,-142.0,6.0,77.0,101224.0,0.8360000252723694,0,0
4.766995,0.038543701171875,-0.703521728515625,0.708282470703125,0.043487548828125,0.0,-0.1220703125,-0.1220703125,-0.11328125,0.0054931640625,-0.9718017578125,-142.0,6.0,77.0,101224.0,0.8360000252723694,0,0
4.773994,0.038543701171875,-0.703521728515625,0.708282470703125,0.043487548828125,-0.1220703125,-0.1220703125,-0.18310546875,-0.1124267578125,0.0089111328125,-0.9720458984375,-142.0,6.0,77.0,101224.0,0.8360000252723694,0,0
4.780998,0.038543701171875,-0.703521728515625,0.708282470703125,0.043487548828125,-0.30517578125,-0.18310546875,-0.18310546875,-0.1136474609375,0.0079345703125,-0.972412109375,-142.0,6.0,77.0,101224.0,0.8360000252723694,0,0
4.787998,0.038543701171875,-0.703521728515625,0.708282470703125,0.043487548828125,0.0,-0.3662109375,0.244140625,-0.113037109375,0.0064697265625,-0.9718017578125,-142.0,6.0,77.0,101224.0,0.8360000252723694,0,0
4.794997,0.038543701171875,-0.703521728515625,0.708282470703125,0.043487548828125,-0.18310546875,-0.244140625,0.1220703125,-0.11474609375,0.0069580078125,-0.97265625,-142.0,6.0,77.0,101224.0,0.8360000252723694,0,0
4.801996,0.038543701171875,-0.703521728515625,0.708282470703125,0.043487548828125,-0.244140625,-0.06103515625,0.06103515625,-0.1153564453125,0.007080078125,-0.972900390625,-142.0,6.0,77.0,101224.0,0.8360000252723694,0,0
4.808996,0.038543701171875,-0.703521728515625,0.708282470703125,0.043487548828125,0.0,0.0,0.0,-0.1146240234375,0.0084228515625,-0.9735107421875,-143.0,6.0,79.0,101224.0,0.8360000252723694,0,0
4.815995,0.038543701171875,-0.703277587890625,0.70849609375,0.043487548828125,-0.1220703125,0.1220703125,0.06103515625,-0.1119384765625,0.0078125,-0.9708251953125,-143.0,6.0,79.0,101224.0,0.8360000252723694,0,0
4.822028,0.038543701171875,-0.703277587890625,0.70849609375,0.043487548828125,-0.1220703125,0.1220703125,0.06103515625,-0.1119384765625,0.0078125,-0.9708251953125,-143.0,6.0,79.0,101224.0,0.8360000252723694,0,0
4.828996,0.038543701171875,-0.703277587890625,0.70849609375,0.043487548828125,-0.244140625,-0.1220703125,-0.1220703125,-0.11328125,0.0067138671875,-0.97216796875,-143.0,6.0,79.0,101224.0,0.8360000252723694,0,0
4.835996,0.038543701171875,-0.703277587890625,0.70849609375,0.043487548828125,0.0,0.1220703125,-0.18310546875,-0.11328125,0.0078125,-0.973388671875,-143.0,6.0,79.0,101224.0,0.8360000252723694,0,0
4.856995,0.038543701171875,-0.703277587890625,0.70849609375,0.043487548828125,0.0,-0.06103515625,0.06103515625,-0.1141357421875,0.0054931640625,-0.972412109375,-143.0,6.0,79.0,101224.0,0.8360000252723694,0,0
4.863994,0.038543701171875,-0.703277587890625,0.70849609375,0.043487548828125,-0.18310546875,-0.1220703125,-0.18310546875,-0.11279296875,0.0084228515625,-0.97314453125,-143.0,6.0,79.0,101224.0,0.8360000252723694,0,0
4.870998,0.038543701171875,-0.703277587890625,0.70849609375,0.043487548828125,0.0,0.1220703125,0.18310546875,-0.1131591796875,0.0079345703125,-0.9730224609375,-143.0,6.0,79.0,101224.0,0.8360000252723694,0,0
4.877998,0.038543701171875,-0.703277587890625,0.70849609375,0.043487548828125,-0.18310546875,0.1220703125,-0.30517578125,-0.115478515625,0.0086669921875,-0.9727783203125,-143.0,6.0,79.0,101224.0,0.8360000252723694,0,0
4.884997,0.038543701171875,-0.703277587890625,0.70849609375,0.043487548828125,0.0,0.06103515625,-0.1220703125,-0.113037109375,0.0076904296875,-0.973388671875,-143.0,6.0,79.0,101224.0,0.8360000252723694,0,0
4.891996,0.038543701171875,-0.703277587890625,0.70849609375,0.043487548828125,0.1220703125,-0.244140625,0.1220703125,-0.1156005859375,0.0068359375,-0.97216796875,-143.0,6.0,79.0,101224.0,0.8360000252723694,0,0
4.898996,0.038543701171875,-0.703277587890625,0.70849609375,0.04351806640625,-0.3662109375,-0.30517578125,-0.18310546875,-0.1151123046875,0.0101318359375,-0.97265625,-143.0,6.0,79.0,101224.0,0.8360000252723694,0,0
4.905995,0.038543701171875,-0.703277587890625,0.70849609375,0.04351806640625,-0.1220703125,-0.244140625,-0.06103515625,-0.114013671875,0.0093994140625,-0.9735107421875,-144.0,5.0,79.0,101224.0,0.8360000252723694,0,0
4.912996,0.038543701171875,-0.703155517578125,0.7086181640625,0.04351806640625,0.0,0.06103515625,0.244140625,-0.11474609375,0.0089111328125,-0.97314453125,-144.0,5.0,79.0,101224.0,0.8360000252723694,0,0
4.919027,0.038543701171875,-0.703155517578125,0.7086181640625,0.04351806640625,0.0,0.06103515625,0.244140625,-0.11474609375,0.0089111328125,-0.97314453125,-144.0,5.0,79.0,101224.0,0.8360000252723694,0,0
4.925996,0.038543701171875,-0.703155517578125,0.7086181640625,0.04351806640625,0.0,-0.244140625,0.1220703125,-0.1126708984375,0.0072021484375,-0.970458984375,-144.0,5.0,79.0,101224.0,0.8360000252723694,0,0
4.946995,0.038543701171875,-0.703155517578125,0.7086181640625,0.04351806640625,0.06103515625,0.0,-0.06103515625,-0.11279296875,0.0076904296875,-0.97265625,-144.0,5.0,79.0,101224.0,0.8360000252723694,0,0
4.953994,0.038543701171875,-0.703155517578125,0.7086181640625,0.04351806640625,-0.18310546875,-0.1220703125,-0.06103515625,-0.1131591796875,0.006591796875,-0.9718017578125,-144.0,5.0,79.0,101224.0,0.8350000381469727,0,0
4.960998,0.038543701171875,-0.703155517578125,0.7086181640625,0.04351806640625,-0.18310546875,-0.18310546875,0.0,-0.114013671875,0.0059814453125,-0.972900390625,-144.0,5.0,79.0,101224.0,0.8350000381469727,0,0
4.967998,0.038543701171875,-0.703155517578125,0.7086181640625,0.04351806640625,-0.244140625,-0.06103515625,0.244140625,-0.115234375,0.0081787109375,-0.9715576171875,-144.0,5.0,79.0,101224.0,0.8350000381469727,0,0
4.974997,0.038543701171875,-0.703155517578125,0.7086181640625,0.04351806640625,0.06103515625,-0.244140625,0.0,-0.1131591796875,0.007568359375,-0.9727783203125,-144.0,5.0,79.0,101224.0,0.8350000381469727,0,0
4.981996,0.038543701171875,-0.703155517578125,0.7086181640625,0.04351806640625,0.0,-0.18310546875,-0.1220703125,-0.1124267578125,0.0081787109375,-0.9720458984375,-144.0,5.0,79.0,101224.0,0.8350000381469727,0,0
4.988996,0.03857421875,-0.703155517578125,0.7086181640625,0.04351806640625,0.0,0.244140625,0.0,-0.11376953125,0.00537109375,-0.9710693359375,-144.0,5.0,79.0,101224.0,0.8350000381469727,0,0
4.995996,0.03857421875,-0.703155517578125,0.7086181640625,0.04351806640625,-0.1220703125,0.06103515625,0.0,-0.11376953125,0.00732421875,-0.9715576171875,-144.0,5.0,79.0,101224.0,0.8350000381469727,0,0
5.003,0.03857421875,-0.703155517578125,0.7086181640625,0.04351806640625,0.18310546875,0.0,-0.1220703125,-0.11328125,0.0074462890625,-0.9730224609375,-144.0,5.0,79.0,101224.0,0.8350000381469727,0,0
5.009032,0.03857421875,-0.703155517578125,0.7086181640625,0.04351806640625,0.18310546875,0.0,-0.1220703125,-0.11328125,0.0074462890625,-0.9730224609375,-144.0,5.0,79.0,101224.0,0.8350000381469727,0,0
5.015996,0.03857421875,-0.703033447265625,0.708740234375,0.043487548828125,0.06103515625,-0.18310546875,-0.18310546875,-0.11279296875,0.009521484375,-0.9710693359375,-144.0,5.0,78.0,101224.0,0.8350000381469727,0,0
5.022996,0.03857421875,-0.703033447265625,0.708740234375,0.043487548828125,-0.30517578125,-0.06103515625,-0.244140625,-0.11376953125,0.0059814453125,-0.9716796875,-144.0,5.0,78.0,101224.0,0.8350000381469727,0,0
5.03,0.038543701171875,-0.703033447265625,0.708740234375,0.043487548828125,0.1220703125,-0.06103515625,0.1220703125,-0.112548828125,0.0086669921875,-0.9736328125,-144.0,5.0,78.0,101224.0,0.8350000381469727,0,0
5.036999,0.038543701171875,-0.703033447265625,0.708740234375,0.043487548828125,-0.1220703125,-0.1220703125,-0.244140625,-0.113037109375,0.00732421875,-0.9725341796875,-144.0,5.0,78.0,101224.0,0.8350000381469727,0,0
5.043999,0.03857421875,-0.703033447265625,0.708740234375,0.043487548828125,-0.30517578125,-0.18310546875,-0.06103515625,-0.1148681640625,0.0068359375,-0.97216796875,-144.0,5.0,78.0,101224.0,0.8350000381469727,0,0
5.050998,0.038543701171875,-0.703033447265625,0.708740234375,0.043487548828125,0.0,-0.244140625,0.1220703125,-0.1116943359375,0.0086669921875,-0.9715576171875,-144.0,5.0,78.0,101224.0,0.8350000381469727,0,0
5.057998,0.038543701171875,-0.703033447265625,0.708740234375,0.043487548828125,-0.42724609375,0.244140625,0.1220703125,-0.1143798828125,0.006591796875,-0.972412109375,-144.0,5.0,78.0,101224.0,0.8340000510215759,0,0
5.064997,0.038543701171875,-0.703033447265625,0.708740234375,0.043487548828125,0.06103515625,0.18310546875,-0.06103515625,-0.1129150390625,0.0081787109375,-0.97314453125,-144.0,5.0,78.0,101224.0,0.8340000510215759,0,0
5.071996,0.038543701171875,-0.703033447265625,0.708740234375,0.04351806640625,0.1220703125,-0.06103515625,0.0,-0.1148681640625,0.007568359375,-0.971435546875,-144.0,5.0,78.0,101224.0,0.8340000510215759,0,0
5.078996,0.038543701171875,-0.703033447265625,0.708740234375,0.04351806640625,0.06103515625,-0.244140625,0.06103515625,-0.1136474609375,0.0068359375,-0.9713134765625,-144.0,5.0,78.0,101224.0,0.8340000510215759,0,0
5.085995,0.038543701171875,-0.703033447265625,0.708740234375,0.04351806640625,-0.1220703125,-0.244140625,-0.1220703125,-0.11572265625,0.0078125,-0.9716796875,-144.0,5.0,78.0,101224.0,0.8340000510215759,0,0
5.092996,0.038543701171875,-0.703033447265625,0.708740234375,0.04351806640625,0.0,0.0,0.1220703125,-0.11279296875,0.00439453125,-0.9730224609375,-144.0,5.0,78.0,101224.0,0.8340000510215759,0,0
5.099995,0.038543701171875,-0.703033447265625,0.708740234375,0.04351806640625,-0.244140625,0.0,0.0,-0.1109619140625,0.0072021484375,-0.9732666015625,-144.0,5.0,78.0,101224.0,0.8340000510215759,0,0
5.119996,0.038543701171875,-0.70281982421875,0.708953857421875,0.043487548828125,-0.1220703125,-0.1220703125,-0.244140625,-0.11279296875,0.0079345703125,-0.97412109375,-143.0,6.0,79.0,101224.0,0.8340000510215759,0,0
5.126995,0.038543701171875,-0.70281982421875,0.708953857421875,0.043487548828125,-0.30517578125,-0.1220703125,0.06103515625,-0.11083984375,0.0068359375,-0.972900390625,-143.0,6.0,79.0,101224.0,0.8340000510215759,0,0
5.133994,0.038543701171875,-0.70281982421875,0.708953857421875,0.043487548828125,-0.18310546875,0.0,-0.06103515625,-0.1124267578125,0.0078125,-0.972412109375,-143.0,6.0,79.0,101224.0,0.8340000510215759,0,0
5.140998,0.038543701171875,-0.70281982421875,0.708953857421875,0.043487548828125,0.1220703125,-0.06103515625,-0.1220703125,-0.113525390625,0.005615234375,-0.97216796875,-143.0,6.0,79.0,101224.0,0.8340000510215759,0,0
5.147998,0.038543701171875,-0.70281982421875,0.708953857421875,0.043487548828125,0.0,0.06103515625,-0.06103515625,-0.11181640625,0.00830078125,-0.9722900390625,-143.0,6.0,79.0,101224.0,0.8340000510215759,0,0
5.154997,0.038543701171875,-0.70281982421875,0.708953857421875,0.043487548828125,-0.30517578125,-0.18310546875,0.18310546875,-0.112060546875,0.0072021484375,-0.972412109375,-143.0,6.0,79.0,101224.0,0.8340000510215759,0,0
5.161996,0.038543701171875,-0.70281982421875,0.708953857421875,0.043487548828125,-0.06103515625,-0.244140625,0.0,-0.114990234375,0.00732421875,-0.9718017578125,-143.0,6.0,79.0,101224.0,0.8340000510215759,0,0
5.168996,0.03857421875,-0.70281982421875,0.708953857421875,0.043487548828125,0.0,-0.18310546875,-0.1220703125,-0.11328125,0.0068359375,-0.970458984375,-143.0,6.0,79.0,101224.0,0.8340000510215759,0,0
5.175995,0.03857421875,-0.70281982421875,0.708953857421875,0.043487548828125,0.0,-0.1220703125,0.0,-0.11474609375,0.00927734375,-0.972900390625,-143.0,6.0,79.0,101224.0,0.8340000510215759,0,0
5.182996,0.03857421875,-0.70281982421875,0.708953857421875,0.04351806640625,-0.18310546875,-0.18310546875,0.06103515625,-0.1124267578125,0.0062255859375,-0.972900390625,-143.0,6.0,79.0,101224.0,0.8340000510215759,0,0
5.189995,0.03857421875,-0.70281982421875,0.708953857421875,0.04351806640625,0.0,0.0,-0.1220703125,-0.1142578125,0.00927734375,-0.970458984375,-143.0,6.0,79.0,101224.0,0.8340000510215759,0,0
5.209996,0.03857421875,-0.70281982421875,0.708953857421875,0.04351806640625,-0.18310546875,-0.18310546875,-0.18310546875,-0.113525390625,0.008544921875,-0.9700927734375,-144.0,7.0,82.0,101224.0,0.8340000510215759,0,0
5.216995,0.03857421875,-0.70257568359375,0.709197998046875,0.04351806640625,0.1220703125,-0.244140625,-0.06103515625,-0.113037109375,0.00634765625,-0.974365234375,-144.0,7.0,82.0,101224.0,0.8340000510215759,0,0
5.223994,0.03857421875,-0.70257568359375,0.709197998046875,0.04351806640625,0.0,-0.06103515625,-0.1220703125,-0.1148681640625,0.008056640625,-0.9735107421875,-144.0,7.0,82.0,101224.0,0.8340000510215759,0,0
5.230998,0.03857421875,-0.70257568359375,0.709197998046875,0.043487548828125,-0.30517578125,-0.1220703125,-0.18310546875,-0.113525390625,0.0054931640625,-0.9725341796875,-144.0,7.0,82.0,101224.0,0.8340000510215759,0,0
5.237998,0.03857421875,-0.70257568359375,0.709197998046875,0.043487548828125,-0.1220703125,-0.06103515625,0.0,-0.1112060546875,0.00732421875,-0.9736328125,-144.0,7.0,82.0,101224.0,0.8340000510215759,0,0
5.244997,0.03857421875,-0.70257568359375,0.709197998046875,0.043487548828125,-0.18310546875,0.0,0.0,-0.1129150390625,0.0068359375,-0.9720458984375,-144.0,7.0,82.0,101224.0,0.8340000510215759,0,0
5.251996,0.03857421875,-0.70257568359375,0.709197998046875,0.043487548828125,-0.06103515625,-0.06103515625,0.1220703125,-0.112060546875,0.0062255859375,-0.973388671875,-144.0,7.0,82.0,101224.0,0.8340000510215759,0,0
5.258996,0.03857421875,-0.70257568359375,0.709197998046875,0.043487548828125,-0.18310546875,-0.18310546875,-0.1220703125,-0.1126708984375,0.0079345703125,-0.9739990234375,-144.0,7.0,82.0,101224.0,0.8340000510215759,0,0
5.265996,0.03857421875,-0.70257568359375,0.709197998046875,0.043487548828125,0.0,-0.06103515625,0.06103515625,-0.113037109375,0.00732421875,-0.9713134765625,-144.0,7.0,82.0,101224.0,0.8340000510215759,0,0
5.273,0.03857421875,-0.70257568359375,0.709197998046875,0.043487548828125,-0.244140625,0.1220703125,0.18310546875,-0.1126708984375,0.0079345703125,-0.969970703125,-144.0,7.0,82.0,101224.0,0.8340000510215759,0,0
5.279999,0.03857421875,-0.70257568359375,0.709197998046875,0.043487548828125,0.0,-0.1220703125,0.1220703125,-0.113525390625,0.006591796875,-0.971923828125,-144.0,7.0,82.0,101224.0,0.8340000510215759,0,0
5.286032,0.03857421875,-0.70257568359375,0.709197998046875,0.043487548828125,0.0,-0.1220703125,0.1220703125,-0.113525390625,0.006591796875,-0.971923828125,-144.0,7.0,82.0,101224.0,0.8340000510215759,0,0
5.292996,0.03857421875,-0.70257568359375,0.709197998046875,0.043487548828125,-0.18310546875,-0.06103515625,-0.1220703125,-0.11474609375,0.0078125,-0.9725341796875,-144.0,7.0,82.0,101224.0,0.8340000510215759,0,0
5.3,0.03857421875,-0.70257568359375,0.709197998046875,0.043487548828125,0.0,-0.06103515625,0.0,-0.113037109375,0.0074462890625,-0.9730224609375,-144.0,7.0,82.0,101224.0,0.8340000510215759,0,0
5.306999,0.03857421875,-0.70245361328125,0.709320068359375,0.043487548828125,-0.06103515625,-0.244140625,-0.06103515625,-0.114013671875,0.0074462890625,-0.971435546875,-144.0,7.0,82.0,101224.0,0.8340000510215759,0,0
5.313999,0.03857421875,-0.70245361328125,0.709320068359375,0.043487548828125,-0.244140625,0.06103515625,0.0,-0.1136474609375,0.007568359375,-0.9720458984375,-144.0,7.0,82.0,101224.0,0.8340000510215759,0,0
5.320998,0.03857421875,-0.70245361328125,0.709320068359375,0.043487548828125,-0.1220703125,-0.06103515625,0.0,-0.1129150390625,0.006103515625,-0.9742431640625,-144.0,7.0,82.0,101224.0,0.8340000510215759,0,0
5.327998,0.03857421875,-0.70245361328125,0.709320068359375,0.043487548828125,0.1220703125,-0.18310546875,-0.18310546875,-0.1142578125,0.00830078125,-0.974609375,-144.0,7.0,82.0,101224.0,0.8340000510215759,0,0
5.334997,0.03857421875,-0.70245361328125,0.709320068359375,0.043487548828125,-0.06103515625,-0.06103515625,0.0,-0.1129150390625,0.0076904296875,-0.970703125,-144.0,7.0,82.0,101224.0,0.8340000510215759,0,0
5.341996,0.03857421875,-0.70245361328125,0.709320068359375,0.043487548828125,-0.42724609375,0.0,0.06103515625,-0.1142578125,0.0078125,-0.9727783203125,-144.0,7.0,82.0,101224.0,0.8340000510215759,0,0
5.348996,0.03857421875,-0.70245361328125,0.709320068359375,0.043487548828125,-0.06103515625,-0.18310546875,-0.1220703125,-0.113037109375,0.0068359375,-0.974853515625,-144.0,7.0,82.0,101224.0,0.8340000510215759,0,0
5.355995,0.03857421875,-0.70245361328125,0.709320068359375,0.043487548828125,-0.1220703125,-0.18310546875,-0.1220703125,-0.1114501953125,0.0087890625,-0.97216796875,-144.0,7.0,82.0,101224.0,0.8340000510215759,0,0
5.362996,0.03857421875,-0.70245361328125,0.709320068359375,0.043487548828125,-0.1220703125,0.18310546875,0.1220703125,-0.11474609375,0.0086669921875,-0.97021484375,-144.0,7.0,82.0,101224.0,0.8340000510215759,0,0
5.383026,0.03857421875,-0.70245361328125,0.709320068359375,0.04351806640625,-0.06103515625,-0.18310546875,0.0,-0.115966796875,0.0096435546875,-0.9727783203125,-144.0,7.0,82.0,101224.0,0.8340000510215759,0,0
5.389996,0.03857421875,-0.70245361328125,0.709320068359375,0.04351806640625,0.0,-0.06103515625,0.0,-0.1142578125,0.005615234375,-0.9725341796875,-144.0,7.0,82.0,101224.0,0.8340000510215759,0,0
5.396995,0.038604736328125,-0.70245361328125,0.709320068359375,0.04351806640625,-0.244140625,-0.18310546875,0.1220703125,-0.1138916015625,0.0050048828125,-0.9713134765625,-144.0,7.0,82.0,101224.0,0.8340000510215759,0,0
5.403994,0.03857421875,-0.70245361328125,0.709320068359375,0.043487548828125,-0.30517578125,-0.06103515625,-0.06103515625,-0.113037109375,0.0072021484375,-0.97412109375,-144.0,7.0,82.0,101224.0,0.8350000381469727,0,0
5.410998,0.038604736328125,-0.70233154296875,0.70941162109375,0.043487548828125,-0.30517578125,-0.244140625,0.244140625,-0.1126708984375,0.0086669921875,-0.9715576171875,-144.0,7.0,82.0,101224.0,0.8350000381469727,0,0
5.417998,0.038604736328125,-0.70233154296875,0.70941162109375,0.04351806640625,-0.244140625,-0.18310546875,-0.244140625,-0.113525390625,0.0078125,-0.970947265625,-144.0,7.0,82.0,101224.0,0.8350000381469727,0,0
5.424997,0.038604736328125,-0.70233154296875,0.70941162109375,0.043487548828125,-0.06103515625,-0.244140625,0.06103515625,-0.1138916015625,0.0067138671875,-0.974365234375,-144.0,7.0,82.0,101224.0,0.8350000381469727,0,0
5.431996,0.038604736328125,-0.70233154296875,0.70941162109375,0.043487548828125,0.06103515625,-0.18310546875,0.1220703125,-0.111572265625,0.00537109375,-0.97216796875,-144.0,7.0,82.0,101224.0,0.8350000381469727,0,0
5.438996,0.038604736328125,-0.70233154296875,0.70941162109375,0.043487548828125,-0.244140625,-0.3662109375,0.18310546875,-0.1124267578125,0.00732421875,-0.972412109375,-144.0,7.0,82.0,101224.0,0.8350000381469727,0,0
5.445995,0.038604736328125,-0.702362060546875,0.70941162109375,0.043487548828125,-0.244140625,-0.30517578125,0.06103515625,-0.114013671875,0.00634765625,-0.9716796875,-144.0,7.0,82.0,101224.0,0.8350000381469727,0,0
5.452996,0.038604736328125,-0.702362060546875,0.70941162109375,0.043487548828125,0.0,-0.244140625,-0.18310546875,-0.1123046875,0.0078125,-0.970703125,-144.0,7.0,82.0,101224.0,0.8350000381469727,0,0
5.473026,0.038604736328125,-0.70233154296875,0.70941162109375,0.043487548828125,-0.244140625,-0.06103515625,-0.06103515625,-0.115966796875,0.0064697265625,-0.9742431640625,-144.0,7.0,82.0,101224.0,0.8350000381469727,0,0
5.479996,0.038604736328125,-0.702362060546875,0.70941162109375,0.043487548828125,0.0,-0.06103515625,0.0,-0.1138916015625,0.006591796875,-0.971923828125,-144.0,7.0,82.0,101224.0,0.8350000381469727,0,0
5.486995,0.03863525390625,-0.70233154296875,0.70941162109375,0.043487548828125,-0.06103515625,-0.1220703125,0.18310546875,-0.1171875,0.0079345703125,-0.97265625,-144.0,7.0,82.0,101224.0,0.8350000381469727,0,0
5.493994,0.038604736328125,-0.70233154296875,0.70941162109375,0.043487548828125,-0.06103515625,0.0,0.06103515625,-0.1138916015625,0.009033203125,-0.9722900390625,-144.0,7.0,82.0,101224.0,0.8350000381469727,0,0
5.500998,0.03863525390625,-0.70233154296875,0.70941162109375,0.043487548828125,0.1220703125,-0.3662109375,0.06103515625,-0.114013671875,0.006103515625,-0.973876953125,-144.0,7.0,82.0,101224.0,0.8370000123977661,0,0
5.507998,0.03863525390625,-0.702239990234375,0.70953369140625,0.043487548828125,-0.18310546875,-0.1220703125,0.06103515625,-0.1148681640625,0.00537109375,-0.9725341796875,-144.0,6.0,82.0,101224.0,0.8370000123977661,0,0
5.514997,0.03863525390625,-0.702239990234375,0.70953369140625,0.043487548828125,0.0,-0.06103515625,-0.1220703125,-0.1129150390625,0.00830078125,-0.9759521484375,-144.0,6.0,82.0,101224.0,0.8370000123977661,0,0
5.521996,0.03863525390625,-0.702239990234375,0.70953369140625,0.04351806640625,-0.06103515625,-0.48828125,0.1220703125,-0.1141357421875,0.006591796875,-0.9732666015625,-144.0,6.0,82.0,101224.0,0.8370000123977661,0,0
5.528996,0.03863525390625,-0.702239990234375,0.70953369140625,0.043487548828125,-0.244140625,-0.1220703125,0.06103515625,-0.114013671875,0.005859375,-0.974365234375,-144.0,6.0,82.0,101224.0,0.8370000123977661,0,0
5.535995,0.038665771484375,-0.702239990234375,0.70953369140625,0.043487548828125,0.18310546875,0.0,0.06103515625,-0.112548828125,0.00341796875,-0.9696044921875,-144.0,6.0,82.0,101224.0,0.8370000123977661,0,0
