Time stamp(sec),quaternion_0,quaternion_1,quaternion_2,quaternion_3,roll_angular_rate,pitch_angular_rate,yaw_angular_rate,acc_X,acc_Y,acc_Z,mag_X,mag_Y,mag_Z,pressure,altitude
412.587994,-0.0040283203125,0.595245361328125,0.803375244140625,-0.0147705078125,0.06103515625,-0.244140625,0.06103515625,-0.0096435546875,-0.030029296875,-0.984619140625,148.0,47.0,89.0,101618.0,-2.440000057220459,0,0
412.592995,-0.0040283203125,0.595245361328125,0.803375244140625,-0.0147705078125,0.18310546875,-0.18310546875,-0.30517578125,-0.009765625,-0.02880859375,-0.9832763671875,148.0,47.0,89.0,101618.0,-2.440000057220459,0,0
412.597997,-0.0040283203125,0.595245361328125,0.803375244140625,-0.0147705078125,0.244140625,-0.42724609375,-0.18310546875,-0.0098876953125,-0.02685546875,-0.98388671875,148.0,47.0,89.0,101618.0,-2.440000057220459,0,0
412.602996,-0.004058837890625,0.595245361328125,0.803375244140625,-0.0147705078125,0.244140625,-0.42724609375,-0.18310546875,-0.0098876953125,-0.02685546875,-0.98388671875,148.0,47.0,89.0,101618.0,-2.440000057220459,0,0
412.607994,-0.004058837890625,0.595245361328125,0.803375244140625,-0.014739990234375,0.3662109375,-0.244140625,-0.1220703125,-0.0091552734375,-0.0281982421875,-0.983154296875,148.0,47.0,89.0,101618.0,-2.440000057220459,0,0
412.612994,-0.004058837890625,0.595245361328125,0.803375244140625,-0.0147705078125,-0.244140625,-0.30517578125,-0.3662109375,-0.0091552734375,-0.0283203125,-0.9818115234375,148.0,47.0,89.0,101618.0,-2.440000057220459,0,0
412.617994,-0.004058837890625,0.595245361328125,0.803375244140625,-0.0147705078125,0.244140625,-0.18310546875,-0.30517578125,-0.0108642578125,-0.0274658203125,-0.984375,148.0,47.0,89.0,101618.0,-2.440000057220459,0,0
412.622996,-0.0040283203125,0.595245361328125,0.803375244140625,-0.0147705078125,0.244140625,-0.18310546875,-0.30517578125,-0.0145263671875,-0.028076171875,-0.9847412109375,148.0,47.0,89.0,101618.0,-2.440000057220459,0,0
412.627994,-0.0040283203125,0.595245361328125,0.803375244140625,-0.0147705078125,0.1220703125,-0.244140625,-0.244140625,-0.010498046875,-0.0272216796875,-0.984130859375,148.0,47.0,89.0,101618.0,-2.440000057220459,0,0
412.632994,-0.0040283203125,0.595245361328125,0.803375244140625,-0.0147705078125,0.30517578125,-0.244140625,0.0,-0.0111083984375,-0.02734375,-0.983642578125,148.0,47.0,89.0,101618.0,-2.440000057220459,0,0
412.637994,-0.0040283203125,0.595245361328125,0.803375244140625,-0.0147705078125,0.0,-0.42724609375,0.06103515625,-0.0145263671875,-0.0281982421875,-0.9827880859375,148.0,47.0,89.0,101618.0,-2.440000057220459,0,0
412.642995,-0.0040283203125,0.595245361328125,0.803375244140625,-0.0147705078125,0.18310546875,-0.244140625,-0.30517578125,-0.012451171875,-0.029541015625,-0.981201171875,148.0,47.0,89.0,101618.0,-2.440000057220459,0,0
412.656996,-0.0040283203125,0.595245361328125,0.803375244140625,-0.0147705078125,-0.1220703125,-0.3662109375,0.0,-0.0115966796875,-0.0277099609375,-0.9833984375,148.0,46.0,89.0,101618.0,-2.44100022315979,0,0
412.661993,-0.0040283203125,0.595245361328125,0.803375244140625,-0.0147705078125,0.42724609375,-0.18310546875,-0.06103515625,-0.012939453125,-0.0284423828125,-0.9842529296875,148.0,46.0,89.0,101618.0,-2.44100022315979,0,0
412.666993,-0.0040283203125,0.595245361328125,0.803375244140625,-0.014801025390625,0.30517578125,-0.18310546875,-0.06103515625,-0.01318359375,-0.0306396484375,-0.9835205078125,148.0,46.0,89.0,101618.0,-2.44100022315979,0,0
412.671994,-0.0040283203125,0.595245361328125,0.803375244140625,-0.014801025390625,0.30517578125,-0.30517578125,0.0,-0.0093994140625,-0.0286865234375,-0.9827880859375,148.0,46.0,89.0,101618.0,-2.44100022315979,0,0
412.676995,-0.0040283203125,0.595245361328125,0.803375244140625,-0.0147705078125,0.244140625,-0.18310546875,-0.06103515625,-0.00830078125,-0.02685546875,-0.984375,148.0,46.0,89.0,101618.0,-2.44100022315979,0,0
412.681993,-0.0040283203125,0.595245361328125,0.803375244140625,-0.014801025390625,0.18310546875,-0.3662109375,-0.1220703125,-0.0091552734375,-0.0306396484375,-0.983154296875,148.0,46.0,89.0,101618.0,-2.44100022315979,0,0
412.686993,-0.0040283203125,0.595245361328125,0.803375244140625,-0.014801025390625,-0.06103515625,-0.244140625,-0.1220703125,-0.010009765625,-0.029052734375,-0.9854736328125,148.0,46.0,89.0,101618.0,-2.44100022315979,0,0
412.691994,-0.0040283203125,0.595245361328125,0.803375244140625,-0.0147705078125,1.0986328125,-0.06103515625,-0.30517578125,-0.0101318359375,-0.0269775390625,-0.98583984375,148.0,46.0,89.0,101618.0,-2.44100022315979,0,0
412.696995,-0.0040283203125,0.595245361328125,0.803375244140625,-0.0147705078125,-0.1220703125,0.06103515625,0.18310546875,-0.01025390625,-0.026123046875,-0.983642578125,148.0,46.0,89.0,101618.0,-2.44100022315979,0,0
412.701993,-0.004058837890625,0.595245361328125,0.803375244140625,-0.0147705078125,0.42724609375,0.0,-0.06103515625,-0.0087890625,-0.029052734375,-0.9837646484375,148.0,46.0,89.0,101618.0,-2.44100022315979,0,0
412.706993,-0.004058837890625,0.595245361328125,0.803375244140625,-0.014801025390625,0.244140625,-0.54931640625,0.0,-0.0120849609375,-0.03076171875,-0.984130859375,148.0,46.0,89.0,101618.0,-2.44100022315979,0,0
412.720993,-0.004058837890625,0.595245361328125,0.803375244140625,-0.0147705078125,-0.1220703125,-0.42724609375,-0.1220703125,-0.0111083984375,-0.031005859375,-0.982421875,148.0,46.0,89.0,101618.0,-2.44100022315979,0,0
412.725994,-0.004058837890625,0.595245361328125,0.803375244140625,-0.014801025390625,0.244140625,-0.244140625,-0.06103515625,-0.01171875,-0.028564453125,-0.9844970703125,148.0,46.0,89.0,101618.0,-2.44100022315979,0,0
412.730995,-0.004058837890625,0.595245361328125,0.803375244140625,-0.014801025390625,0.0,-0.244140625,-0.1220703125,-0.010986328125,-0.02734375,-0.9833984375,148.0,46.0,89.0,101618.0,-2.44100022315979,0,0
412.735993,-0.004058837890625,0.595245361328125,0.803375244140625,-0.014801025390625,0.244140625,-0.30517578125,-0.06103515625,-0.0118408203125,-0.0284423828125,-0.98486328125,148.0,46.0,89.0,101618.0,-2.44100022315979,0,0
412.740993,-0.004058837890625,0.595245361328125,0.803375244140625,-0.014801025390625,0.18310546875,-0.244140625,-0.244140625,-0.013427734375,-0.028076171875,-0.984130859375,148.0,46.0,89.0,101618.0,-2.44100022315979,0,0
412.745994,-0.004058837890625,0.595245361328125,0.803375244140625,-0.014801025390625,0.1220703125,-0.244140625,0.0,-0.0106201171875,-0.0279541015625,-0.985107421875,148.0,46.0,89.0,101618.0,-2.44100022315979,0,0
412.750995,-0.004058837890625,0.595245361328125,0.803375244140625,-0.014801025390625,0.54931640625,-0.1220703125,-0.06103515625,-0.010498046875,-0.02685546875,-0.983642578125,148.0,46.0,89.0,101618.0,-2.44100022315979,0,0
412.755993,-0.004058837890625,0.595245361328125,0.803375244140625,-0.0147705078125,0.54931640625,-0.1220703125,-0.06103515625,-0.010498046875,-0.02685546875,-0.983642578125,148.0,46.0,91.0,101618.0,-2.439000129699707,0,0
412.760993,-0.004058837890625,0.595245361328125,0.803375244140625,-0.014801025390625,0.244140625,-0.30517578125,-0.06103515625,-0.0111083984375,-0.0294189453125,-0.9825439453125,148.0,46.0,91.0,101618.0,-2.439000129699707,0,0
412.765993,-0.004058837890625,0.595245361328125,0.803375244140625,-0.014801025390625,0.42724609375,-0.18310546875,-0.06103515625,-0.0106201171875,-0.0283203125,-0.9840087890625,148.0,46.0,91.0,101618.0,-2.439000129699707,0,0
412.770994,-0.004058837890625,0.595245361328125,0.803375244140625,-0.014801025390625,0.244140625,-0.06103515625,-0.1220703125,-0.0113525390625,-0.0272216796875,-0.983154296875,148.0,46.0,91.0,101618.0,-2.439000129699707,0,0
412.775995,-0.004058837890625,0.595245361328125,0.803375244140625,-0.014801025390625,0.244140625,-0.30517578125,-0.18310546875,-0.013916015625,-0.028564453125,-0.984375,148.0,46.0,91.0,101618.0,-2.439000129699707,0,0
412.780026,-0.004058837890625,0.595245361328125,0.803375244140625,-0.014801025390625,0.244140625,-0.30517578125,-0.18310546875,-0.013916015625,-0.028564453125,-0.984375,148.0,46.0,91.0,101618.0,-2.439000129699707,0,0
412.784997,-0.004058837890625,0.595245361328125,0.803375244140625,-0.014801025390625,-0.244140625,-0.3662109375,0.0,-0.01318359375,-0.027099609375,-0.985107421875,148.0,46.0,91.0,101618.0,-2.439000129699707,0,0
412.789994,-0.004058837890625,0.595245361328125,0.803375244140625,-0.014801025390625,0.18310546875,-0.30517578125,-0.18310546875,-0.0118408203125,-0.0289306640625,-0.9852294921875,148.0,46.0,91.0,101618.0,-2.439000129699707,0,0
412.794994,-0.004058837890625,0.595245361328125,0.803375244140625,-0.014801025390625,-0.1220703125,-0.1220703125,-0.1220703125,-0.012451171875,-0.0299072265625,-0.983154296875,148.0,46.0,91.0,101618.0,-2.439000129699707,0,0
412.799995,-0.004058837890625,0.595245361328125,0.803375244140625,-0.014801025390625,0.0,-0.48828125,-0.06103515625,-0.01123046875,-0.0301513671875,-0.9825439453125,148.0,46.0,91.0,101618.0,-2.439000129699707,0,0
412.804997,-0.004058837890625,0.595245361328125,0.803375244140625,-0.01483154296875,0.0,-0.48828125,-0.06103515625,-0.01123046875,-0.0301513671875,-0.9825439453125,148.0,46.0,91.0,101618.0,-2.439000129699707,0,0
412.809996,-0.0040283203125,0.595245361328125,0.803375244140625,-0.014801025390625,0.06103515625,-0.30517578125,-0.18310546875,-0.0125732421875,-0.026611328125,-0.984619140625,148.0,46.0,91.0,101618.0,-2.439000129699707,0,0
412.814994,-0.004058837890625,0.595245361328125,0.803375244140625,-0.01483154296875,-0.48828125,-0.67138671875,-0.1220703125,-0.0111083984375,-0.0301513671875,-0.9830322265625,148.0,46.0,91.0,101618.0,-2.439000129699707,0,0
412.819994,-0.0040283203125,0.595245361328125,0.803375244140625,-0.01483154296875,0.1220703125,-0.30517578125,0.0,-0.013427734375,-0.02734375,-0.9837646484375,148.0,46.0,91.0,101618.0,-2.439000129699707,0,0
412.824994,-0.0040283203125,0.595245361328125,0.803375244140625,-0.01483154296875,0.244140625,-0.30517578125,-0.244140625,-0.0107421875,-0.029296875,-0.98291015625,148.0,46.0,91.0,101618.0,-2.439000129699707,0,0
412.829996,-0.004058837890625,0.595245361328125,0.803375244140625,-0.01483154296875,0.0,-0.1220703125,0.18310546875,-0.0103759765625,-0.0281982421875,-0.98291015625,148.0,46.0,91.0,101618.0,-2.439000129699707,0,0
412.844024,-0.0040283203125,0.595245361328125,0.803375244140625,-0.01483154296875,0.3662109375,-0.1220703125,-0.244140625,-0.0103759765625,-0.026611328125,-0.9835205078125,148.0,46.0,91.0,101618.0,-2.439000129699707,0,0
412.848994,-0.0040283203125,0.595245361328125,0.803375244140625,-0.014801025390625,-0.06103515625,-0.30517578125,-0.06103515625,-0.011474609375,-0.029052734375,-0.981689453125,148.0,46.0,91.0,101618.0,-2.439000129699707,0,0
412.853994,-0.0040283203125,0.595245361328125,0.803375244140625,-0.014801025390625,0.30517578125,-0.30517578125,-0.1220703125,-0.012451171875,-0.0263671875,-0.981689453125,148.0,44.0,90.0,101618.0,-2.440000057220459,0,0
412.858995,-0.0040283203125,0.595245361328125,0.803375244140625,-0.014801025390625,0.42724609375,-0.18310546875,0.1220703125,-0.0106201171875,-0.026611328125,-0.9842529296875,148.0,44.0,90.0,101618.0,-2.440000057220459,0,0
412.863993,-0.004058837890625,0.59552001953125,0.80316162109375,-0.014801025390625,-0.1220703125,-0.30517578125,-0.18310546875,-0.00927734375,-0.0308837890625,-0.9822998046875,148.0,44.0,90.0,101618.0,-2.440000057220459,0,0
412.868993,-0.004058837890625,0.59552001953125,0.80316162109375,-0.014801025390625,0.18310546875,-0.244140625,-0.18310546875,-0.0086669921875,-0.0301513671875,-0.986083984375,148.0,44.0,90.0,101618.0,-2.440000057220459,0,0
412.873993,-0.004058837890625,0.59552001953125,0.80316162109375,-0.014801025390625,0.244140625,-0.18310546875,-0.1220703125,-0.0093994140625,-0.028076171875,-0.9835205078125,148.0,44.0,90.0,101618.0,-2.440000057220459,0,0
412.878994,-0.004058837890625,0.59552001953125,0.80316162109375,-0.014801025390625,-0.3662109375,-0.6103515625,-0.244140625,-0.010009765625,-0.0294189453125,-0.9833984375,148.0,44.0,90.0,101618.0,-2.440000057220459,0,0
412.883995,-0.004058837890625,0.59552001953125,0.80316162109375,-0.014801025390625,0.42724609375,-0.1220703125,0.06103515625,-0.0089111328125,-0.0272216796875,-0.98486328125,148.0,44.0,90.0,101618.0,-2.440000057220459,0,0
412.888993,-0.004058837890625,0.59552001953125,0.80316162109375,-0.014801025390625,0.0,-0.30517578125,-0.18310546875,-0.0103759765625,-0.0296630859375,-0.9818115234375,148.0,44.0,90.0,101618.0,-2.440000057220459,0,0
412.893993,-0.004058837890625,0.59552001953125,0.80316162109375,-0.014801025390625,0.06103515625,-0.244140625,-0.1220703125,-0.011962890625,-0.026611328125,-0.983642578125,148.0,44.0,90.0,101618.0,-2.440000057220459,0,0
412.908996,-0.004058837890625,0.59552001953125,0.80316162109375,-0.014801025390625,0.0,-0.3662109375,-0.1220703125,-0.0101318359375,-0.027099609375,-0.9835205078125,148.0,44.0,90.0,101618.0,-2.440000057220459,0,0
412.913021,-0.004058837890625,0.59552001953125,0.80316162109375,-0.014801025390625,0.0,-0.3662109375,-0.1220703125,-0.0101318359375,-0.027099609375,-0.9835205078125,148.0,44.0,90.0,101618.0,-2.440000057220459,0,0
412.917993,-0.004058837890625,0.59552001953125,0.80316162109375,-0.014801025390625,0.3662109375,-0.1220703125,-0.244140625,-0.0113525390625,-0.026611328125,-0.9832763671875,148.0,44.0,90.0,101618.0,-2.440000057220459,0,0
412.922993,-0.00408935546875,0.59552001953125,0.80316162109375,-0.014801025390625,0.244140625,-0.1220703125,-0.30517578125,-0.009765625,-0.0286865234375,-0.9835205078125,148.0,44.0,90.0,101618.0,-2.440000057220459,0,0
412.927993,-0.00408935546875,0.59552001953125,0.80316162109375,-0.014801025390625,0.48828125,-0.30517578125,0.1220703125,-0.0096435546875,-0.02880859375,-0.98291015625,148.0,44.0,90.0,101618.0,-2.440000057220459,0,0
412.932994,-0.00408935546875,0.59552001953125,0.80316162109375,-0.014801025390625,0.3662109375,-0.06103515625,-0.1220703125,-0.0081787109375,-0.02880859375,-0.984375,148.0,44.0,90.0,101618.0,-2.440000057220459,0,0
412.937995,-0.00408935546875,0.59552001953125,0.80316162109375,-0.014801025390625,0.06103515625,0.0,-0.244140625,-0.0113525390625,-0.0262451171875,-0.984375,148.0,44.0,90.0,101618.0,-2.440000057220459,0,0
412.942993,-0.00408935546875,0.59552001953125,0.80316162109375,-0.0147705078125,0.244140625,-0.06103515625,0.06103515625,-0.0123291015625,-0.029052734375,-0.9837646484375,148.0,44.0,90.0,101618.0,-2.440000057220459,0,0
412.947993,-0.00408935546875,0.59552001953125,0.80316162109375,-0.0147705078125,-0.30517578125,-0.06103515625,-0.06103515625,-0.0076904296875,-0.02685546875,-0.982666015625,148.0,44.0,90.0,101618.0,-2.440000057220459,0,0
412.952994,-0.00408935546875,0.59552001953125,0.80316162109375,-0.0147705078125,-0.06103515625,-0.42724609375,-0.18310546875,-0.012939453125,-0.0281982421875,-0.9849853515625,148.0,44.0,90.0,101618.0,-2.439000129699707,0,0
412.957995,-0.00408935546875,0.59552001953125,0.80316162109375,-0.0147705078125,0.18310546875,0.0,0.06103515625,-0.0091552734375,-0.0281982421875,-0.9844970703125,148.0,45.0,90.0,101618.0,-2.439000129699707,0,0
412.962996,-0.00408935546875,0.59552001953125,0.80316162109375,-0.0147705078125,-0.06103515625,-0.18310546875,-0.30517578125,-0.0126953125,-0.028076171875,-0.984619140625,148.0,45.0,90.0,101618.0,-2.439000129699707,0,0
412.967993,-0.00408935546875,0.59552001953125,0.80316162109375,-0.0147705078125,0.244140625,-0.18310546875,0.0,-0.012939453125,-0.0274658203125,-0.9842529296875,148.0,45.0,90.0,101618.0,-2.439000129699707,0,0
412.972993,-0.004058837890625,0.59552001953125,0.80316162109375,-0.014801025390625,0.48828125,-0.244140625,-0.1220703125,-0.0125732421875,-0.0284423828125,-0.9835205078125,148.0,45.0,90.0,101618.0,-2.439000129699707,0,0
412.977022,-0.004058837890625,0.59552001953125,0.80316162109375,-0.014801025390625,0.48828125,-0.244140625,-0.1220703125,-0.0125732421875,-0.0284423828125,-0.9835205078125,148.0,45.0,90.0,101618.0,-2.439000129699707,0,0
412.981993,-0.004058837890625,0.59552001953125,0.80316162109375,-0.014801025390625,0.1220703125,-0.1220703125,-0.1220703125,-0.0111083984375,-0.0279541015625,-0.982177734375,148.0,45.0,90.0,101618.0,-2.439000129699707,0,0
412.986994,-0.004058837890625,0.59552001953125,0.80316162109375,-0.014801025390625,0.0,-0.244140625,0.0,-0.0103759765625,-0.0281982421875,-0.984375,148.0,45.0,90.0,101618.0,-2.439000129699707,0,0
412.991995,-0.004058837890625,0.59552001953125,0.80316162109375,-0.0147705078125,0.06103515625,-0.244140625,-0.06103515625,-0.0108642578125,-0.0263671875,-0.983154296875,148.0,45.0,90.0,101618.0,-2.439000129699707,0,0
412.996994,-0.004058837890625,0.59552001953125,0.80316162109375,-0.0147705078125,0.48828125,0.0,-0.06103515625,-0.009765625,-0.029296875,-0.9837646484375,148.0,45.0,90.0,101618.0,-2.439000129699707,0,0
413.001994,-0.00408935546875,0.59552001953125,0.80316162109375,-0.0147705078125,0.1220703125,-0.1220703125,0.0,-0.009033203125,-0.0284423828125,-0.983154296875,148.0,45.0,90.0,101618.0,-2.439000129699707,0,0
413.006995,-0.00408935546875,0.59552001953125,0.80316162109375,-0.014801025390625,0.06103515625,-0.6103515625,-0.244140625,-0.0101318359375,-0.0301513671875,-0.9835205078125,148.0,45.0,90.0,101618.0,-2.439000129699707,0,0
413.011997,-0.00408935546875,0.59552001953125,0.80316162109375,-0.0147705078125,0.30517578125,-0.1220703125,-0.06103515625,-0.0086669921875,-0.02734375,-0.983642578125,148.0,45.0,90.0,101618.0,-2.439000129699707,0,0
413.016996,-0.00408935546875,0.59552001953125,0.80316162109375,-0.0147705078125,-0.06103515625,-0.30517578125,0.06103515625,-0.0108642578125,-0.028076171875,-0.9830322265625,148.0,45.0,90.0,101618.0,-2.439000129699707,0,0
413.031994,-0.00408935546875,0.59552001953125,0.80316162109375,-0.0147705078125,0.244140625,-0.244140625,-0.1220703125,-0.011474609375,-0.0284423828125,-0.983154296875,148.0,45.0,90.0,101618.0,-2.439000129699707,0,0
413.036996,-0.00408935546875,0.59552001953125,0.80316162109375,-0.0147705078125,0.48828125,-0.06103515625,-0.1220703125,-0.0115966796875,-0.027099609375,-0.9857177734375,148.0,45.0,90.0,101618.0,-2.439000129699707,0,0
413.041994,-0.00408935546875,0.59552001953125,0.80316162109375,-0.0147705078125,-0.1220703125,-0.42724609375,-0.1220703125,-0.0111083984375,-0.026611328125,-0.985595703125,148.0,45.0,90.0,101618.0,-2.439000129699707,0,0
413.046024,-0.00408935546875,0.59552001953125,0.80316162109375,-0.0147705078125,-0.1220703125,-0.42724609375,-0.1220703125,-0.0111083984375,-0.026611328125,-0.985595703125,148.0,45.0,90.0,101618.0,-2.439000129699707,0,0
413.050995,-0.004058837890625,0.59552001953125,0.80316162109375,-0.0147705078125,0.18310546875,-0.30517578125,-0.06103515625,-0.013671875,-0.0267333984375,-0.9833984375,148.0,45.0,90.0,101618.0,-2.439000129699707,0,0
413.055994,-0.004058837890625,0.59564208984375,0.803070068359375,-0.014801025390625,0.18310546875,-0.30517578125,-0.06103515625,-0.013671875,-0.0267333984375,-0.9833984375,146.0,44.0,91.0,101618.0,-2.440000057220459,0,0
413.060995,-0.004058837890625,0.59564208984375,0.803070068359375,-0.014801025390625,0.06103515625,-0.18310546875,-0.1220703125,-0.0118408203125,-0.0303955078125,-0.9822998046875,146.0,44.0,91.0,101618.0,-2.440000057220459,0,0
413.065995,-0.004058837890625,0.59564208984375,0.803070068359375,-0.014801025390625,0.06103515625,-0.1220703125,-0.244140625,-0.0130615234375,-0.0302734375,-0.985595703125,146.0,44.0,91.0,101618.0,-2.440000057220459,0,0
413.070996,-0.004058837890625,0.59564208984375,0.803070068359375,-0.014801025390625,0.18310546875,-0.1220703125,-0.18310546875,-0.010498046875,-0.0279541015625,-0.98388671875,146.0,44.0,91.0,101618.0,-2.440000057220459,0,0
413.075993,-0.004058837890625,0.59564208984375,0.803070068359375,-0.014801025390625,0.30517578125,-0.54931640625,-0.18310546875,-0.010498046875,-0.0274658203125,-0.984375,146.0,44.0,91.0,101618.0,-2.440000057220459,0,0
413.090995,-0.004058837890625,0.59564208984375,0.803070068359375,-0.014801025390625,0.06103515625,-0.3662109375,0.0,-0.010986328125,-0.026123046875,-0.982666015625,146.0,44.0,91.0,101618.0,-2.440000057220459,0,0
413.095993,-0.004058837890625,0.59564208984375,0.803070068359375,-0.014801025390625,-0.06103515625,-0.3662109375,0.0,-0.011962890625,-0.02978515625,-0.983154296875,146.0,44.0,91.0,101618.0,-2.440000057220459,0,0
413.100993,-0.004058837890625,0.59564208984375,0.803070068359375,-0.014801025390625,0.30517578125,-0.3662109375,-0.06103515625,-0.01220703125,-0.0299072265625,-0.984130859375,146.0,44.0,91.0,101618.0,-2.440000057220459,0,0
413.105994,-0.004058837890625,0.59564208984375,0.803070068359375,-0.014801025390625,0.30517578125,-0.3662109375,-0.06103515625,-0.01220703125,-0.0299072265625,-0.984130859375,146.0,44.0,91.0,101618.0,-2.440000057220459,0,0
413.110021,-0.004058837890625,0.59564208984375,0.803070068359375,-0.014801025390625,0.30517578125,-0.3662109375,-0.06103515625,-0.01220703125,-0.0299072265625,-0.984130859375,146.0,44.0,91.0,101618.0,-2.440000057220459,0,0
413.114994,-0.004058837890625,0.59564208984375,0.803070068359375,-0.014801025390625,0.244140625,-0.1220703125,0.0,-0.0118408203125,-0.02783203125,-0.9844970703125,146.0,44.0,91.0,101618.0,-2.440000057220459,0,0
413.119995,-0.004058837890625,0.59564208984375,0.803070068359375,-0.014801025390625,0.30517578125,-0.18310546875,0.0,-0.010009765625,-0.030517578125,-0.983154296875,146.0,44.0,91.0,101618.0,-2.440000057220459,0,0
413.124993,-0.004058837890625,0.59564208984375,0.803070068359375,-0.014801025390625,-0.06103515625,-0.244140625,0.0,-0.01123046875,-0.0277099609375,-0.983642578125,146.0,44.0,91.0,101618.0,-2.440000057220459,0,0
413.129993,-0.0040283203125,0.59564208984375,0.803070068359375,-0.014801025390625,0.48828125,-0.1220703125,-0.30517578125,-0.0120849609375,-0.029541015625,-0.98388671875,146.0,44.0,91.0,101618.0,-2.440000057220459,0,0
413.134993,-0.0040283203125,0.59564208984375,0.803070068359375,-0.014801025390625,0.0,-0.42724609375,0.06103515625,-0.0125732421875,-0.025634765625,-0.9842529296875,146.0,44.0,91.0,101618.0,-2.440000057220459,0,0
413.139994,-0.0040283203125,0.59564208984375,0.803070068359375,-0.014801025390625,0.18310546875,-0.1220703125,-0.18310546875,-0.0133056640625,-0.02734375,-0.983642578125,146.0,44.0,91.0,101618.0,-2.440000057220459,0,0
413.144995,-0.0040283203125,0.59564208984375,0.803070068359375,-0.014801025390625,0.06103515625,-0.18310546875,-0.18310546875,-0.0113525390625,-0.028564453125,-0.982666015625,146.0,44.0,91.0,101618.0,-2.440000057220459,0,0
413.149993,-0.0040283203125,0.59564208984375,0.803070068359375,-0.014801025390625,-0.244140625,-0.244140625,0.06103515625,-0.0091552734375,-0.029052734375,-0.9849853515625,146.0,44.0,91.0,101618.0,-2.44100022315979,0,0
413.154993,-0.0040283203125,0.59564208984375,0.803070068359375,-0.014801025390625,0.30517578125,-0.42724609375,-0.1220703125,-0.0107421875,-0.028076171875,-0.982421875,147.0,45.0,92.0,101618.0,-2.44100022315979,0,0
413.159994,-0.004058837890625,0.59564208984375,0.803070068359375,-0.014801025390625,-0.06103515625,-0.3662109375,0.0,-0.0098876953125,-0.02783203125,-0.9825439453125,147.0,45.0,92.0,101618.0,-2.44100022315979,0,0
413.164995,-0.0040283203125,0.59564208984375,0.803070068359375,-0.014801025390625,0.3662109375,-0.1220703125,0.0,-0.012939453125,-0.0269775390625,-0.9837646484375,147.0,45.0,92.0,101618.0,-2.44100022315979,0,0
413.169993,-0.004058837890625,0.59564208984375,0.803070068359375,-0.014801025390625,0.0,-0.18310546875,-0.1220703125,-0.010498046875,-0.0306396484375,-0.98388671875,147.0,45.0,92.0,101618.0,-2.44100022315979,0,0
413.174993,-0.004058837890625,0.59564208984375,0.803070068359375,-0.014801025390625,0.0,-0.18310546875,-0.244140625,-0.0103759765625,-0.0267333984375,-0.9825439453125,147.0,45.0,92.0,101618.0,-2.44100022315979,0,0
413.179022,-0.004058837890625,0.59564208984375,0.803070068359375,-0.014801025390625,0.0,-0.18310546875,-0.244140625,-0.0103759765625,-0.0267333984375,-0.9825439453125,147.0,45.0,92.0,101618.0,-2.44100022315979,0,0
413.183993,-0.004058837890625,0.59564208984375,0.803070068359375,-0.014801025390625,0.0,-0.3662109375,-0.06103515625,-0.010009765625,-0.029052734375,-0.983642578125,147.0,45.0,92.0,101618.0,-2.44100022315979,0,0
413.188993,-0.004058837890625,0.59564208984375,0.803070068359375,-0.014801025390625,-0.67138671875,0.0,0.06103515625,-0.0115966796875,-0.02880859375,-0.98388671875,147.0,45.0,92.0,101618.0,-2.44100022315979,0,0
413.193994,-0.004058837890625,0.59564208984375,0.803070068359375,-0.014801025390625,0.18310546875,-0.42724609375,-0.06103515625,-0.01123046875,-0.0274658203125,-0.98291015625,147.0,45.0,92.0,101618.0,-2.44100022315979,0,0
413.198995,-0.004058837890625,0.59564208984375,0.803070068359375,-0.014801025390625,0.0,-0.3662109375,0.0,-0.0103759765625,-0.028076171875,-0.98388671875,147.0,45.0,92.0,101618.0,-2.44100022315979,0,0
413.213995,-0.004058837890625,0.59564208984375,0.803070068359375,-0.014801025390625,0.244140625,-0.06103515625,-0.18310546875,-0.01025390625,-0.028076171875,-0.9832763671875,147.0,45.0,92.0,101618.0,-2.44100022315979,0,0
413.218997,-0.004058837890625,0.59564208984375,0.803070068359375,-0.014801025390625,0.1220703125,-0.1220703125,-0.18310546875,-0.0120849609375,-0.0277099609375,-0.98388671875,147.0,45.0,92.0,101618.0,-2.44100022315979,0,0
413.223996,-0.004058837890625,0.59564208984375,0.803070068359375,-0.01483154296875,-0.1220703125,-0.42724609375,0.0,-0.0126953125,-0.0301513671875,-0.9830322265625,147.0,45.0,92.0,101618.0,-2.44100022315979,0,0
413.228994,-0.004058837890625,0.59564208984375,0.803070068359375,-0.01483154296875,-0.48828125,-0.54931640625,-0.1220703125,-0.0120849609375,-0.028076171875,-0.9832763671875,147.0,45.0,92.0,101618.0,-2.44100022315979,0,0
413.233994,-0.004058837890625,0.59564208984375,0.803070068359375,-0.01483154296875,0.06103515625,-0.30517578125,-0.1220703125,-0.011474609375,-0.027099609375,-0.9840087890625,147.0,45.0,92.0,101618.0,-2.44100022315979,0,0
413.238994,-0.004058837890625,0.59564208984375,0.803070068359375,-0.01483154296875,0.18310546875,-0.18310546875,-0.30517578125,-0.01220703125,-0.030029296875,-0.9830322265625,147.0,45.0,92.0,101618.0,-2.44100022315979,0,0
413.243026,-0.004058837890625,0.59564208984375,0.803070068359375,-0.01483154296875,0.18310546875,-0.18310546875,-0.30517578125,-0.01220703125,-0.030029296875,-0.9830322265625,147.0,45.0,92.0,101618.0,-2.44100022315979,0,0
413.247994,-0.004058837890625,0.59564208984375,0.803070068359375,-0.01483154296875,0.06103515625,-0.42724609375,0.06103515625,-0.0113525390625,-0.02783203125,-0.9832763671875,147.0,45.0,92.0,101618.0,-2.44100022315979,0,0
413.252996,-0.0040283203125,0.59564208984375,0.803070068359375,-0.01483154296875,0.1220703125,-0.3662109375,-0.18310546875,-0.0113525390625,-0.02685546875,-0.9842529296875,147.0,45.0,92.0,101618.0,-2.443000078201294,0,0
413.257994,-0.0040283203125,0.59552001953125,0.80316162109375,-0.01483154296875,0.1220703125,-0.3662109375,-0.18310546875,-0.0113525390625,-0.02685546875,-0.9842529296875,146.0,46.0,91.0,101618.0,-2.443000078201294,0,0
413.262994,-0.0040283203125,0.59552001953125,0.80316162109375,-0.01483154296875,-0.06103515625,-0.54931640625,-0.06103515625,-0.01171875,-0.0272216796875,-0.983154296875,146.0,46.0,91.0,101618.0,-2.443000078201294,0,0
413.277993,-0.004058837890625,0.59552001953125,0.80316162109375,-0.01483154296875,0.06103515625,-0.18310546875,0.0,-0.01171875,-0.02880859375,-0.9833984375,146.0,46.0,91.0,101618.0,-2.443000078201294,0,0
413.282993,-0.004058837890625,0.59552001953125,0.80316162109375,-0.01483154296875,0.3662109375,-0.244140625,0.1220703125,-0.0118408203125,-0.030517578125,-0.9820556640625,146.0,46.0,91.0,101618.0,-2.443000078201294,0,0
413.287993,-0.004058837890625,0.59552001953125,0.80316162109375,-0.01483154296875,-0.06103515625,-0.42724609375,-0.1220703125,-0.0113525390625,-0.0277099609375,-0.9852294921875,146.0,46.0,91.0,101618.0,-2.443000078201294,0,0
413.292994,-0.0040283203125,0.59552001953125,0.80316162109375,-0.014801025390625,0.06103515625,-0.3662109375,-0.244140625,-0.01025390625,-0.0262451171875,-0.981689453125,146.0,46.0,91.0,101618.0,-2.443000078201294,0,0
413.297995,-0.0040283203125,0.59552001953125,0.80316162109375,-0.014801025390625,0.30517578125,-0.18310546875,0.1220703125,-0.0118408203125,-0.0262451171875,-0.983642578125,146.0,46.0,91.0,101618.0,-2.443000078201294,0,0
413.302993,-0.0040283203125,0.59552001953125,0.80316162109375,-0.014801025390625,0.18310546875,-0.30517578125,-0.1220703125,-0.0091552734375,-0.028076171875,-0.9833984375,146.0,46.0,91.0,101618.0,-2.443000078201294,0,0
413.307993,-0.0040283203125,0.59552001953125,0.80316162109375,-0.014801025390625,0.3662109375,-0.3662109375,-0.18310546875,-0.010009765625,-0.02734375,-0.9827880859375,146.0,46.0,91.0,101618.0,-2.443000078201294,0,0
413.312021,-0.0040283203125,0.59552001953125,0.80316162109375,-0.014801025390625,0.3662109375,-0.3662109375,-0.18310546875,-0.010009765625,-0.02734375,-0.9827880859375,146.0,46.0,91.0,101618.0,-2.443000078201294,0,0
413.316993,-0.004058837890625,0.59552001953125,0.80316162109375,-0.014801025390625,-0.1220703125,-0.244140625,-0.06103515625,-0.0115966796875,-0.029052734375,-0.983642578125,146.0,46.0,91.0,101618.0,-2.443000078201294,0,0
413.321994,-0.004058837890625,0.59552001953125,0.80316162109375,-0.014801025390625,-0.244140625,-0.1220703125,0.18310546875,-0.0087890625,-0.030517578125,-0.98388671875,146.0,46.0,91.0,101618.0,-2.443000078201294,0,0
413.326995,-0.004058837890625,0.59552001953125,0.80316162109375,-0.014801025390625,0.244140625,-0.42724609375,-0.1220703125,-0.0087890625,-0.0283203125,-0.9827880859375,146.0,46.0,91.0,101618.0,-2.443000078201294,0,0
413.331993,-0.004058837890625,0.59552001953125,0.80316162109375,-0.014801025390625,0.18310546875,-0.30517578125,-0.18310546875,-0.01171875,-0.0281982421875,-0.9840087890625,146.0,46.0,91.0,101618.0,-2.443000078201294,0,0
413.336993,-0.004058837890625,0.59552001953125,0.80316162109375,-0.014801025390625,-0.18310546875,-0.1220703125,-0.18310546875,-0.011474609375,-0.0281982421875,-0.98388671875,146.0,46.0,91.0,101618.0,-2.443000078201294,0,0
413.341993,-0.004058837890625,0.59552001953125,0.80316162109375,-0.014801025390625,-0.1220703125,-0.30517578125,0.06103515625,-0.0093994140625,-0.02880859375,-0.983154296875,146.0,46.0,91.0,101618.0,-2.443000078201294,0,0
413.346994,-0.004058837890625,0.59552001953125,0.80316162109375,-0.014801025390625,0.18310546875,-0.18310546875,-0.18310546875,-0.01123046875,-0.0272216796875,-0.98193359375,146.0,46.0,91.0,101618.0,-2.443000078201294,0,0
413.351995,-0.004058837890625,0.59552001953125,0.80316162109375,-0.014801025390625,0.18310546875,-0.18310546875,-0.18310546875,-0.01123046875,-0.0272216796875,-0.98193359375,146.0,46.0,91.0,101618.0,-2.44100022315979,0,0
413.356993,-0.004058837890625,0.59552001953125,0.80316162109375,-0.014801025390625,0.54931640625,-0.244140625,-0.244140625,-0.0108642578125,-0.0294189453125,-0.9837646484375,145.0,44.0,92.0,101618.0,-2.44100022315979,0,0
413.361993,-0.004058837890625,0.59552001953125,0.80316162109375,-0.014801025390625,0.18310546875,-0.3662109375,0.06103515625,-0.01220703125,-0.02685546875,-0.984375,145.0,44.0,92.0,101618.0,-2.44100022315979,0,0
413.366994,-0.004058837890625,0.59552001953125,0.80316162109375,-0.014801025390625,0.06103515625,-0.244140625,0.18310546875,-0.0108642578125,-0.0279541015625,-0.9837646484375,145.0,44.0,92.0,101618.0,-2.44100022315979,0,0
413.371995,-0.004058837890625,0.59552001953125,0.80316162109375,-0.014801025390625,0.06103515625,-0.18310546875,0.0,-0.011474609375,-0.0283203125,-0.986572265625,145.0,44.0,92.0,101618.0,-2.44100022315979,0,0
413.37602,-0.004058837890625,0.59552001953125,0.80316162109375,-0.014801025390625,0.06103515625,-0.18310546875,0.0,-0.011474609375,-0.0283203125,-0.986572265625,145.0,44.0,92.0,101618.0,-2.44100022315979,0,0
413.380996,-0.004058837890625,0.59552001953125,0.80316162109375,-0.014801025390625,0.244140625,-0.244140625,-0.1220703125,-0.0098876953125,-0.0296630859375,-0.981689453125,145.0,44.0,92.0,101618.0,-2.44100022315979,0,0
413.385993,-0.004058837890625,0.59552001953125,0.80316162109375,-0.014801025390625,0.0,-0.244140625,-0.06103515625,-0.010498046875,-0.028076171875,-0.983154296875,145.0,44.0,92.0,101618.0,-2.44100022315979,0,0
413.400994,-0.004058837890625,0.59552001953125,0.80316162109375,-0.014801025390625,0.0,-0.1220703125,-0.06103515625,-0.0108642578125,-0.0281982421875,-0.984130859375,145.0,44.0,92.0,101618.0,-2.44100022315979,0,0
413.405995,-0.004058837890625,0.59552001953125,0.80316162109375,-0.014801025390625,0.06103515625,-0.244140625,-0.18310546875,-0.0091552734375,-0.02734375,-0.9832763671875,145.0,44.0,92.0,101618.0,-2.44100022315979,0,0
413.410993,-0.004058837890625,0.59552001953125,0.80316162109375,-0.014801025390625,0.3662109375,-0.06103515625,-0.18310546875,-0.0093994140625,-0.02783203125,-0.98291015625,145.0,44.0,92.0,101618.0,-2.44100022315979,0,0
413.415993,-0.004058837890625,0.59552001953125,0.80316162109375,-0.014801025390625,0.1220703125,-0.18310546875,-0.18310546875,-0.01123046875,-0.029052734375,-0.982421875,145.0,44.0,92.0,101618.0,-2.44100022315979,0,0
413.420995,-0.004058837890625,0.59552001953125,0.80316162109375,-0.014801025390625,0.30517578125,-0.18310546875,-0.1220703125,-0.0101318359375,-0.02685546875,-0.9827880859375,145.0,44.0,92.0,101618.0,-2.44100022315979,0,0
413.425997,-0.004058837890625,0.59552001953125,0.80316162109375,-0.014801025390625,0.244140625,-0.06103515625,-0.06103515625,-0.011962890625,-0.0272216796875,-0.9854736328125,145.0,44.0,92.0,101618.0,-2.44100022315979,0,0
413.430996,-0.004058837890625,0.59552001953125,0.80316162109375,-0.0147705078125,-0.06103515625,-0.30517578125,0.06103515625,-0.01171875,-0.0257568359375,-0.98291015625,145.0,44.0,92.0,101618.0,-2.44100022315979,0,0
413.435994,-0.004058837890625,0.59552001953125,0.80316162109375,-0.0147705078125,0.3662109375,-0.18310546875,-0.06103515625,-0.0118408203125,-0.026123046875,-0.982666015625,145.0,44.0,92.0,101618.0,-2.44100022315979,0,0
413.440994,-0.004058837890625,0.59552001953125,0.80316162109375,-0.0147705078125,-0.3662109375,-0.3662109375,-0.18310546875,-0.01025390625,-0.02685546875,-0.9827880859375,145.0,44.0,92.0,101618.0,-2.44100022315979,0,0
413.445024,-0.004058837890625,0.59552001953125,0.80316162109375,-0.0147705078125,-0.3662109375,-0.3662109375,-0.18310546875,-0.01025390625,-0.02685546875,-0.9827880859375,145.0,44.0,92.0,101618.0,-2.44100022315979,0,0
413.449994,-0.004058837890625,0.59552001953125,0.80316162109375,-0.0147705078125,-0.42724609375,0.18310546875,-0.1220703125,-0.010986328125,-0.028564453125,-0.984375,145.0,44.0,92.0,101618.0,-2.443000078201294,0,0
413.464994,-0.003997802734375,0.59552001953125,0.80316162109375,-0.0147705078125,0.1220703125,-0.30517578125,-0.18310546875,-0.0118408203125,-0.027587890625,-0.984375,145.0,44.0,92.0,101618.0,-2.443000078201294,0,0
413.469994,-0.003997802734375,0.59552001953125,0.80316162109375,-0.0147705078125,-0.244140625,-0.1220703125,-0.06103515625,-0.011474609375,-0.0284423828125,-0.9844970703125,145.0,44.0,92.0,101618.0,-2.443000078201294,0,0
413.474995,-0.003997802734375,0.59552001953125,0.80316162109375,-0.0147705078125,-0.06103515625,-0.18310546875,0.0,-0.0130615234375,-0.028076171875,-0.984375,145.0,44.0,92.0,101618.0,-2.443000078201294,0,0
413.479997,-0.003997802734375,0.59552001953125,0.80316162109375,-0.0147705078125,0.18310546875,-0.30517578125,-0.244140625,-0.011962890625,-0.0283203125,-0.98388671875,145.0,44.0,92.0,101618.0,-2.443000078201294,0,0
413.484996,-0.003997802734375,0.59552001953125,0.80316162109375,-0.0147705078125,0.06103515625,-0.30517578125,-0.18310546875,-0.011474609375,-0.0277099609375,-0.9842529296875,145.0,44.0,92.0,101618.0,-2.443000078201294,0,0
413.489993,-0.00396728515625,0.59552001953125,0.80316162109375,-0.0147705078125,0.18310546875,-0.30517578125,-0.30517578125,-0.01171875,-0.0274658203125,-0.9852294921875,145.0,44.0,92.0,101618.0,-2.443000078201294,0,0
413.494993,-0.003997802734375,0.59552001953125,0.80316162109375,-0.0147705078125,0.244140625,-0.1220703125,-0.1220703125,-0.01025390625,-0.0284423828125,-0.9844970703125,145.0,44.0,92.0,101618.0,-2.443000078201294,0,0
413.499994,-0.003997802734375,0.59552001953125,0.80316162109375,-0.0147705078125,0.732421875,0.0,0.1220703125,-0.0126953125,-0.0294189453125,-0.9832763671875,145.0,44.0,92.0,101618.0,-2.443000078201294,0,0
413.504995,-0.003997802734375,0.59552001953125,0.80316162109375,-0.0147705078125,0.244140625,-0.8544921875,0.06103515625,-0.0093994140625,-0.0321044921875,-0.981689453125,145.0,44.0,92.0,101618.0,-2.443000078201294,0,0
413.509023,-0.003997802734375,0.59552001953125,0.80316162109375,-0.0147705078125,0.244140625,-0.8544921875,0.06103515625,-0.0093994140625,-0.0321044921875,-0.981689453125,145.0,44.0,92.0,101618.0,-2.443000078201294,0,0
413.513995,-0.003997802734375,0.59552001953125,0.80316162109375,-0.0147705078125,0.0,-0.30517578125,-0.06103515625,-0.0108642578125,-0.0313720703125,-0.9837646484375,145.0,44.0,92.0,101618.0,-2.443000078201294,0,0
413.518993,-0.003997802734375,0.59552001953125,0.80316162109375,-0.0147705078125,-0.06103515625,-0.42724609375,-0.1220703125,-0.011962890625,-0.027099609375,-0.9847412109375,145.0,44.0,92.0,101618.0,-2.443000078201294,0,0
413.523993,-0.003997802734375,0.59552001953125,0.80316162109375,-0.0147705078125,-0.1220703125,-0.18310546875,0.0,-0.0103759765625,-0.0286865234375,-0.98486328125,145.0,44.0,92.0,101618.0,-2.443000078201294,0,0
413.528994,-0.003997802734375,0.59552001953125,0.80316162109375,-0.0147705078125,0.06103515625,-0.30517578125,-0.1220703125,-0.00927734375,-0.026611328125,-0.984130859375,145.0,44.0,92.0,101618.0,-2.443000078201294,0,0
413.533995,-0.003997802734375,0.59552001953125,0.80316162109375,-0.0147705078125,0.244140625,-0.30517578125,0.1220703125,-0.0113525390625,-0.0294189453125,-0.9849853515625,145.0,44.0,92.0,101618.0,-2.443000078201294,0,0
413.538996,-0.003997802734375,0.59552001953125,0.80316162109375,-0.0147705078125,0.18310546875,-0.244140625,-0.1220703125,-0.0108642578125,-0.02880859375,-0.9818115234375,145.0,44.0,92.0,101618.0,-2.443000078201294,0,0
413.543993,-0.003997802734375,0.59552001953125,0.80316162109375,-0.0147705078125,0.18310546875,-0.18310546875,-0.06103515625,-0.0115966796875,-0.0272216796875,-0.982666015625,145.0,44.0,92.0,101618.0,-2.443000078201294,0,0
413.548993,-0.003997802734375,0.59552001953125,0.80316162109375,-0.0147705078125,0.42724609375,-0.42724609375,0.0,-0.0089111328125,-0.0263671875,-0.98291015625,145.0,44.0,92.0,101618.0,-2.443000078201294,0,0
413.553994,-0.003997802734375,0.59552001953125,0.80316162109375,-0.0147705078125,0.42724609375,-0.42724609375,0.0,-0.0089111328125,-0.0263671875,-0.98291015625,145.0,44.0,93.0,101618.0,-2.44100022315979,0,0
413.558995,-0.003997802734375,0.59552001953125,0.80316162109375,-0.0147705078125,-0.18310546875,-0.18310546875,0.06103515625,-0.0115966796875,-0.0294189453125,-0.981689453125,145.0,44.0,93.0,101618.0,-2.44100022315979,0,0
413.563993,-0.0040283203125,0.59552001953125,0.80316162109375,-0.0147705078125,-0.732421875,-0.67138671875,-0.3662109375,-0.010498046875,-0.029052734375,-0.98388671875,145.0,44.0,93.0,101618.0,-2.44100022315979,0,0
413.568993,-0.003997802734375,0.59552001953125,0.80316162109375,-0.0147705078125,0.0,-0.54931640625,-0.06103515625,-0.0115966796875,-0.0260009765625,-0.982666015625,145.0,44.0,93.0,101618.0,-2.44100022315979,0,0
413.573022,-0.003997802734375,0.59552001953125,0.80316162109375,-0.0147705078125,0.0,-0.54931640625,-0.06103515625,-0.0115966796875,-0.0260009765625,-0.982666015625,145.0,44.0,93.0,101618.0,-2.44100022315979,0,0
413.587995,-0.0040283203125,0.59552001953125,0.80316162109375,-0.0147705078125,0.0,-0.244140625,-0.244140625,-0.0096435546875,-0.027587890625,-0.9837646484375,145.0,44.0,93.0,101618.0,-2.44100022315979,0,0
413.592996,-0.003997802734375,0.59552001953125,0.80316162109375,-0.0147705078125,0.18310546875,-0.244140625,0.0,-0.01025390625,-0.0264892578125,-0.9854736328125,145.0,44.0,93.0,101618.0,-2.44100022315979,0,0
413.597993,-0.003997802734375,0.59552001953125,0.80316162109375,-0.0147705078125,0.18310546875,-0.48828125,-0.18310546875,-0.0128173828125,-0.0284423828125,-0.9835205078125,145.0,44.0,93.0,101618.0,-2.44100022315979,0,0
413.602993,-0.003997802734375,0.59552001953125,0.80316162109375,-0.0147705078125,0.3662109375,-0.18310546875,-0.06103515625,-0.012451171875,-0.02783203125,-0.9833984375,145.0,44.0,93.0,101618.0,-2.44100022315979,0,0
413.607994,-0.003997802734375,0.59552001953125,0.80316162109375,-0.0147705078125,0.06103515625,-0.1220703125,-0.1220703125,-0.0115966796875,-0.029052734375,-0.9825439453125,145.0,44.0,93.0,101618.0,-2.44100022315979,0,0
413.612995,-0.003997802734375,0.59552001953125,0.80316162109375,-0.0147705078125,0.18310546875,-0.244140625,-0.244140625,-0.011962890625,-0.0279541015625,-0.9844970703125,145.0,44.0,93.0,101618.0,-2.44100022315979,0,0
413.617993,-0.003997802734375,0.59552001953125,0.80316162109375,-0.0147705078125,0.06103515625,-0.244140625,0.1220703125,-0.010986328125,-0.0284423828125,-0.984130859375,145.0,44.0,93.0,101618.0,-2.44100022315979,0,0
413.622993,-0.0040283203125,0.59552001953125,0.80316162109375,-0.0147705078125,0.18310546875,-0.3662109375,-0.06103515625,-0.0113525390625,-0.029541015625,-0.985595703125,145.0,44.0,93.0,101618.0,-2.44100022315979,0,0
413.627994,-0.0040283203125,0.59552001953125,0.80316162109375,-0.0147705078125,0.30517578125,-0.18310546875,0.18310546875,-0.0103759765625,-0.0283203125,-0.9842529296875,145.0,44.0,93.0,101618.0,-2.44100022315979,0,0
413.632996,-0.0040283203125,0.59552001953125,0.80316162109375,-0.0147705078125,0.18310546875,-0.18310546875,-0.18310546875,-0.011474609375,-0.0283203125,-0.9849853515625,145.0,44.0,93.0,101618.0,-2.44100022315979,0,0
413.637996,-0.0040283203125,0.59552001953125,0.80316162109375,-0.0147705078125,0.18310546875,-0.1220703125,-0.06103515625,-0.0098876953125,-0.0272216796875,-0.9837646484375,145.0,44.0,93.0,101618.0,-2.44100022315979,0,0
413.651994,-0.0040283203125,0.59552001953125,0.80316162109375,-0.0147705078125,0.48828125,-0.30517578125,0.0,-0.01025390625,-0.0296630859375,-0.9844970703125,145.0,44.0,93.0,101618.0,-2.44100022315979,0,0
413.656994,-0.0040283203125,0.59552001953125,0.80316162109375,-0.0147705078125,0.3662109375,-0.244140625,-0.244140625,-0.0108642578125,-0.029296875,-0.98388671875,145.0,45.0,94.0,101618.0,-2.44100022315979,0,0
413.661994,-0.0040283203125,0.59539794921875,0.803253173828125,-0.0147705078125,0.30517578125,-0.244140625,0.06103515625,-0.01171875,-0.02880859375,-0.98486328125,145.0,45.0,94.0,101618.0,-2.44100022315979,0,0
413.666996,-0.0040283203125,0.59539794921875,0.803253173828125,-0.0147705078125,0.30517578125,0.0,-0.1220703125,-0.0120849609375,-0.0279541015625,-0.984619140625,145.0,45.0,94.0,101618.0,-2.44100022315979,0,0
413.671994,-0.0040283203125,0.59539794921875,0.803253173828125,-0.0147705078125,0.1220703125,-0.54931640625,0.06103515625,-0.0115966796875,-0.0284423828125,-0.98388671875,145.0,45.0,94.0,101618.0,-2.44100022315979,0,0
413.676994,-0.0040283203125,0.59539794921875,0.803253173828125,-0.0147705078125,-0.06103515625,-0.1220703125,0.0,-0.0125732421875,-0.0264892578125,-0.9862060546875,145.0,45.0,94.0,101618.0,-2.44100022315979,0,0
413.681995,-0.0040283203125,0.59539794921875,0.803253173828125,-0.0147705078125,0.0,-0.18310546875,-0.30517578125,-0.0098876953125,-0.0277099609375,-0.9844970703125,145.0,45.0,94.0,101618.0,-2.44100022315979,0,0
413.686997,-0.0040283203125,0.59539794921875,0.803253173828125,-0.0147705078125,0.0,-0.30517578125,0.1220703125,-0.0126953125,-0.027587890625,-0.9847412109375,145.0,45.0,94.0,101618.0,-2.44100022315979,0,0
413.691996,-0.0040283203125,0.59539794921875,0.803253173828125,-0.0147705078125,0.0,-0.30517578125,0.06103515625,-0.0087890625,-0.0283203125,-0.9837646484375,145.0,45.0,94.0,101618.0,-2.44100022315979,0,0
413.696994,-0.0040283203125,0.59539794921875,0.803253173828125,-0.0147705078125,0.244140625,-0.244140625,0.1220703125,-0.01123046875,-0.0272216796875,-0.982177734375,145.0,45.0,94.0,101618.0,-2.44100022315979,0,0
413.701993,-0.0040283203125,0.59539794921875,0.803253173828125,-0.0147705078125,0.18310546875,-0.30517578125,-0.244140625,-0.01220703125,-0.02685546875,-0.984375,145.0,45.0,94.0,101618.0,-2.44100022315979,0,0
413.706022,-0.0040283203125,0.59539794921875,0.803253173828125,-0.0147705078125,0.18310546875,-0.30517578125,-0.244140625,-0.01220703125,-0.02685546875,-0.984375,145.0,45.0,94.0,101618.0,-2.44100022315979,0,0
413.710993,-0.0040283203125,0.59539794921875,0.803253173828125,-0.0147705078125,0.244140625,-0.18310546875,0.0,-0.009521484375,-0.0279541015625,-0.9853515625,145.0,45.0,94.0,101618.0,-2.44100022315979,0,0
413.715994,-0.0040283203125,0.59539794921875,0.803253173828125,-0.0147705078125,0.18310546875,-0.1220703125,-0.18310546875,-0.0107421875,-0.02783203125,-0.9842529296875,145.0,45.0,94.0,101618.0,-2.44100022315979,0,0
413.720995,-0.0040283203125,0.59539794921875,0.803253173828125,-0.0147705078125,0.06103515625,-0.3662109375,-0.30517578125,-0.0101318359375,-0.0302734375,-0.9830322265625,145.0,45.0,94.0,101618.0,-2.44100022315979,0,0
413.725993,-0.0040283203125,0.59539794921875,0.803253173828125,-0.0147705078125,-0.06103515625,-0.48828125,-0.06103515625,-0.0118408203125,-0.02685546875,-0.9852294921875,145.0,45.0,94.0,101618.0,-2.44100022315979,0,0
413.730993,-0.0040283203125,0.59539794921875,0.803253173828125,-0.0147705078125,0.18310546875,-0.06103515625,-0.3662109375,-0.010009765625,-0.0284423828125,-0.9815673828125,145.0,45.0,94.0,101618.0,-2.44100022315979,0,0
413.735994,-0.0040283203125,0.59539794921875,0.803253173828125,-0.0147705078125,0.244140625,-0.42724609375,0.06103515625,-0.0106201171875,-0.0296630859375,-0.9832763671875,145.0,45.0,94.0,101618.0,-2.44100022315979,0,0
413.740995,-0.0040283203125,0.59539794921875,0.803253173828125,-0.0147705078125,0.0,-0.42724609375,0.0,-0.0108642578125,-0.030029296875,-0.9833984375,145.0,45.0,94.0,101618.0,-2.44100022315979,0,0
413.745993,-0.0040283203125,0.59539794921875,0.803253173828125,-0.0147705078125,0.0,-0.42724609375,0.0,-0.0108642578125,-0.030029296875,-0.9833984375,145.0,45.0,94.0,101618.0,-2.44100022315979,0,0
413.750993,-0.0040283203125,0.59539794921875,0.803253173828125,-0.0147705078125,0.1220703125,-0.30517578125,-0.1220703125,-0.0125732421875,-0.0269775390625,-0.983642578125,145.0,45.0,94.0,101618.0,-2.44100022315979,0,0
413.755993,-0.0040283203125,0.59539794921875,0.803253173828125,-0.0147705078125,0.1220703125,-0.30517578125,-0.1220703125,-0.0125732421875,-0.0269775390625,-0.983642578125,144.0,45.0,92.0,101618.0,-2.44100022315979,0,0
413.760994,-0.0040283203125,0.595245361328125,0.803375244140625,-0.0147705078125,0.1220703125,-0.18310546875,-0.18310546875,-0.0093994140625,-0.0272216796875,-0.9833984375,144.0,45.0,92.0,101618.0,-2.44100022315979,0,0
413.775021,-0.0040283203125,0.595245361328125,0.803375244140625,-0.0147705078125,0.0,-0.1220703125,0.18310546875,-0.009765625,-0.025634765625,-0.9847412109375,144.0,45.0,92.0,101618.0,-2.44100022315979,0,0
413.779993,-0.0040283203125,0.595245361328125,0.803375244140625,-0.0147705078125,0.244140625,-0.06103515625,0.0,-0.011962890625,-0.02978515625,-0.9840087890625,144.0,45.0,92.0,101618.0,-2.44100022315979,0,0
413.784993,-0.0040283203125,0.595245361328125,0.803375244140625,-0.0147705078125,0.18310546875,-0.18310546875,-0.1220703125,-0.0115966796875,-0.029296875,-0.9835205078125,144.0,45.0,92.0,101618.0,-2.44100022315979,0,0
413.789994,-0.0040283203125,0.595245361328125,0.803375244140625,-0.0147705078125,0.06103515625,-0.244140625,-0.06103515625,-0.0101318359375,-0.0279541015625,-0.9840087890625,144.0,45.0,92.0,101618.0,-2.44100022315979,0,0
413.794995,-0.0040283203125,0.595245361328125,0.803375244140625,-0.0147705078125,0.06103515625,-0.30517578125,-0.1220703125,-0.011474609375,-0.028076171875,-0.982421875,144.0,45.0,92.0,101618.0,-2.44100022315979,0,0
413.799993,-0.0040283203125,0.595245361328125,0.803375244140625,-0.0147705078125,-0.1220703125,-0.30517578125,-0.1220703125,-0.0107421875,-0.0283203125,-0.9822998046875,144.0,45.0,92.0,101618.0,-2.44100022315979,0,0
413.804993,-0.0040283203125,0.595245361328125,0.803375244140625,-0.0147705078125,-0.1220703125,-0.30517578125,-0.1220703125,-0.0107421875,-0.0283203125,-0.9822998046875,144.0,45.0,92.0,101618.0,-2.44100022315979,0,0
413.809993,-0.0040283203125,0.595245361328125,0.803375244140625,-0.0147705078125,0.0,-0.42724609375,-0.244140625,-0.0125732421875,-0.0269775390625,-0.9840087890625,144.0,45.0,92.0,101618.0,-2.44100022315979,0,0
413.814994,-0.0040283203125,0.595245361328125,0.803375244140625,-0.0147705078125,-0.06103515625,-0.48828125,-0.30517578125,-0.0111083984375,-0.0303955078125,-0.9833984375,144.0,45.0,92.0,101618.0,-2.44100022315979,0,0
413.819995,-0.0040283203125,0.595245361328125,0.803375244140625,-0.0147705078125,0.48828125,-0.18310546875,-0.06103515625,-0.012939453125,-0.030029296875,-0.9840087890625,144.0,45.0,92.0,101618.0,-2.44100022315979,0,0
413.824993,-0.0040283203125,0.595245361328125,0.803375244140625,-0.0147705078125,0.18310546875,-0.244140625,-0.1220703125,-0.0103759765625,-0.027587890625,-0.98388671875,144.0,45.0,92.0,101618.0,-2.44100022315979,0,0
413.839021,-0.0040283203125,0.595245361328125,0.803375244140625,-0.0147705078125,0.18310546875,-0.30517578125,0.0,-0.009765625,-0.028076171875,-0.9813232421875,144.0,45.0,92.0,101618.0,-2.44100022315979,0,0
413.843994,-0.0040283203125,0.595245361328125,0.803375244140625,-0.014801025390625,-0.30517578125,-0.18310546875,-0.18310546875,-0.010498046875,-0.03173828125,-0.9844970703125,144.0,45.0,92.0,101618.0,-2.44100022315979,0,0
413.848997,-0.004058837890625,0.595245361328125,0.803375244140625,-0.014801025390625,0.30517578125,-0.3662109375,-0.06103515625,-0.0098876953125,-0.0286865234375,-0.982666015625,144.0,45.0,92.0,101618.0,-2.44100022315979,0,0
413.853996,-0.004058837890625,0.595245361328125,0.803375244140625,-0.014801025390625,-0.18310546875,-0.30517578125,-0.1220703125,-0.0118408203125,-0.0306396484375,-0.98193359375,144.0,47.0,90.0,101618.0,-2.44100022315979,0,0
413.858994,-0.0040283203125,0.595245361328125,0.803375244140625,-0.014801025390625,0.1220703125,-0.30517578125,-0.1220703125,-0.01171875,-0.0272216796875,-0.9840087890625,144.0,47.0,90.0,101618.0,-2.44100022315979,0,0
413.863994,-0.0040283203125,0.5948486328125,0.803680419921875,-0.014801025390625,0.06103515625,-0.30517578125,-0.06103515625,-0.0126953125,-0.029052734375,-0.982177734375,144.0,47.0,90.0,101618.0,-2.44100022315979,0,0
413.868994,-0.0040283203125,0.5948486328125,0.803680419921875,-0.014801025390625,-0.1220703125,-0.244140625,-0.1220703125,-0.009521484375,-0.028076171875,-0.9822998046875,144.0,47.0,90.0,101618.0,-2.44100022315979,0,0
413.873996,-0.0040283203125,0.5948486328125,0.803680419921875,-0.014801025390625,0.18310546875,-0.42724609375,-0.06103515625,-0.010498046875,-0.029052734375,-0.984375,144.0,47.0,90.0,101618.0,-2.44100022315979,0,0
413.878994,-0.0040283203125,0.5948486328125,0.803680419921875,-0.014801025390625,0.0,-0.54931640625,-0.244140625,-0.0115966796875,-0.02685546875,-0.9842529296875,144.0,47.0,90.0,101618.0,-2.44100022315979,0,0
413.883994,-0.0040283203125,0.5948486328125,0.803680419921875,-0.014801025390625,0.1220703125,-0.244140625,-0.06103515625,-0.01025390625,-0.030029296875,-0.98486328125,144.0,47.0,90.0,101618.0,-2.44100022315979,0,0
413.888995,-0.0040283203125,0.5948486328125,0.803680419921875,-0.014801025390625,0.244140625,-0.18310546875,-0.06103515625,-0.013427734375,-0.027587890625,-0.9857177734375,144.0,47.0,90.0,101618.0,-2.44100022315979,0,0
413.893997,-0.0040283203125,0.5948486328125,0.803680419921875,-0.014801025390625,0.0,-0.30517578125,0.0,-0.0107421875,-0.028076171875,-0.983642578125,144.0,47.0,90.0,101618.0,-2.44100022315979,0,0
413.898996,-0.0040283203125,0.5948486328125,0.803680419921875,-0.014801025390625,0.30517578125,-0.18310546875,-0.1220703125,-0.0108642578125,-0.0308837890625,-0.98291015625,144.0,47.0,90.0,101618.0,-2.44100022315979,0,0
413.903994,-0.0040283203125,0.5948486328125,0.803680419921875,-0.014801025390625,0.06103515625,-0.3662109375,-0.1220703125,-0.0101318359375,-0.0283203125,-0.9832763671875,144.0,47.0,90.0,101618.0,-2.44100022315979,0,0
413.908024,-0.0040283203125,0.5948486328125,0.803680419921875,-0.014801025390625,0.06103515625,-0.3662109375,-0.1220703125,-0.0101318359375,-0.0283203125,-0.9832763671875,144.0,47.0,90.0,101618.0,-2.44100022315979,0,0
413.912994,-0.0040283203125,0.5948486328125,0.803680419921875,-0.014801025390625,0.1220703125,-0.3662109375,-0.1220703125,-0.0107421875,-0.027587890625,-0.9833984375,144.0,47.0,90.0,101618.0,-2.44100022315979,0,0
413.917993,-0.0040283203125,0.5948486328125,0.803680419921875,-0.014801025390625,-0.06103515625,-0.42724609375,0.18310546875,-0.010498046875,-0.0260009765625,-0.9840087890625,144.0,47.0,90.0,101618.0,-2.44100022315979,0,0
413.922994,-0.0040283203125,0.5948486328125,0.803680419921875,-0.014801025390625,0.1220703125,-0.18310546875,-0.06103515625,-0.01025390625,-0.02783203125,-0.983154296875,144.0,47.0,90.0,101618.0,-2.44100022315979,0,0
413.927995,-0.0040283203125,0.5948486328125,0.803680419921875,-0.014801025390625,-0.1220703125,-0.3662109375,-0.1220703125,-0.0108642578125,-0.0289306640625,-0.984619140625,144.0,47.0,90.0,101618.0,-2.44100022315979,0,0
413.932993,-0.0040283203125,0.5948486328125,0.803680419921875,-0.014801025390625,0.18310546875,-0.244140625,-0.1220703125,-0.009765625,-0.02734375,-0.9840087890625,144.0,47.0,90.0,101618.0,-2.44100022315979,0,0
413.937993,-0.0040283203125,0.5948486328125,0.803680419921875,-0.014801025390625,0.244140625,-0.18310546875,-0.06103515625,-0.011474609375,-0.0272216796875,-0.982177734375,144.0,47.0,90.0,101618.0,-2.44100022315979,0,0
413.942994,-0.0040283203125,0.5948486328125,0.803680419921875,-0.014801025390625,-0.30517578125,-0.48828125,-0.06103515625,-0.0098876953125,-0.0302734375,-0.9837646484375,144.0,47.0,90.0,101618.0,-2.44100022315979,0,0
413.947995,-0.0040283203125,0.5948486328125,0.803680419921875,-0.0147705078125,0.30517578125,-0.244140625,-0.1220703125,-0.0108642578125,-0.02490234375,-0.9849853515625,144.0,47.0,90.0,101618.0,-2.44100022315979,0,0
413.962993,-0.0040283203125,0.594696044921875,0.80377197265625,-0.0147705078125,0.1220703125,-0.18310546875,-0.1220703125,-0.0125732421875,-0.0269775390625,-0.984130859375,144.0,46.0,90.0,101618.0,-2.44100022315979,0,0
413.967994,-0.003997802734375,0.594696044921875,0.80377197265625,-0.0147705078125,0.1220703125,-0.54931640625,-0.06103515625,-0.0120849609375,-0.027587890625,-0.98193359375,144.0,46.0,90.0,101618.0,-2.44100022315979,0,0
413.972024,-0.003997802734375,0.594696044921875,0.80377197265625,-0.0147705078125,0.1220703125,-0.54931640625,-0.06103515625,-0.0120849609375,-0.027587890625,-0.98193359375,144.0,46.0,90.0,101618.0,-2.44100022315979,0,0
413.976994,-0.003997802734375,0.594696044921875,0.80377197265625,-0.014801025390625,0.30517578125,-0.30517578125,-0.244140625,-0.011962890625,-0.028564453125,-0.982421875,144.0,46.0,90.0,101618.0,-2.44100022315979,0,0
413.981995,-0.003997802734375,0.594696044921875,0.80377197265625,-0.014801025390625,-0.1220703125,-0.244140625,-0.06103515625,-0.011962890625,-0.029296875,-0.984375,144.0,46.0,90.0,101618.0,-2.44100022315979,0,0
413.986993,-0.003997802734375,0.594696044921875,0.80377197265625,-0.014801025390625,0.244140625,-0.244140625,-0.18310546875,-0.0111083984375,-0.0272216796875,-0.9837646484375,144.0,46.0,90.0,101618.0,-2.44100022315979,0,0
413.991993,-0.003997802734375,0.594696044921875,0.80377197265625,-0.0147705078125,0.42724609375,0.0,0.0,-0.0084228515625,-0.026611328125,-0.9833984375,144.0,46.0,90.0,101618.0,-2.44100022315979,0,0
413.996994,-0.003997802734375,0.594696044921875,0.80377197265625,-0.0147705078125,-0.48828125,-0.3662109375,-0.244140625,-0.012451171875,-0.026123046875,-0.982666015625,144.0,46.0,90.0,101618.0,-2.44100022315979,0,0
414.001995,-0.003997802734375,0.594696044921875,0.80377197265625,-0.0147705078125,0.3662109375,0.0,-0.1220703125,-0.01220703125,-0.0289306640625,-0.9833984375,144.0,46.0,90.0,101618.0,-2.44100022315979,0,0
414.006996,-0.003997802734375,0.594696044921875,0.80377197265625,-0.0147705078125,0.0,-0.3662109375,-0.06103515625,-0.0125732421875,-0.026123046875,-0.9844970703125,144.0,46.0,90.0,101618.0,-2.442000150680542,0,0
414.021994,-0.003997802734375,0.594696044921875,0.80377197265625,-0.0147705078125,0.1220703125,-0.18310546875,-0.1220703125,-0.01123046875,-0.02880859375,-0.9825439453125,144.0,46.0,90.0,101618.0,-2.442000150680542,0,0
414.026995,-0.003997802734375,0.594696044921875,0.80377197265625,-0.0147705078125,0.18310546875,-0.3662109375,-0.18310546875,-0.008544921875,-0.0283203125,-0.982421875,144.0,46.0,90.0,101618.0,-2.442000150680542,0,0
414.031993,-0.003997802734375,0.594696044921875,0.80377197265625,-0.0147705078125,0.244140625,-0.244140625,-0.18310546875,-0.0106201171875,-0.030029296875,-0.9810791015625,144.0,46.0,90.0,101618.0,-2.442000150680542,0,0
414.036993,-0.003997802734375,0.594696044921875,0.80377197265625,-0.0147705078125,0.3662109375,-0.18310546875,0.0,-0.0115966796875,-0.028564453125,-0.9822998046875,144.0,46.0,90.0,101618.0,-2.442000150680542,0,0
414.041022,-0.003997802734375,0.594696044921875,0.80377197265625,-0.0147705078125,0.3662109375,-0.18310546875,0.0,-0.0115966796875,-0.028564453125,-0.9822998046875,144.0,46.0,90.0,101618.0,-2.442000150680542,0,0
414.045993,-0.003997802734375,0.594696044921875,0.80377197265625,-0.0147705078125,-0.1220703125,-0.79345703125,-0.1220703125,-0.0115966796875,-0.027587890625,-0.9835205078125,144.0,46.0,90.0,101618.0,-2.442000150680542,0,0
414.050994,-0.0040283203125,0.594696044921875,0.80377197265625,-0.0147705078125,0.30517578125,-0.3662109375,-0.18310546875,-0.008544921875,-0.03076171875,-0.9830322265625,144.0,46.0,90.0,101618.0,-2.442000150680542,0,0
414.055995,-0.0040283203125,0.594696044921875,0.80377197265625,-0.0147705078125,0.30517578125,-0.3662109375,-0.18310546875,-0.008544921875,-0.03076171875,-0.9830322265625,144.0,46.0,89.0,101618.0,-2.442000150680542,0,0
414.060996,-0.003997802734375,0.59442138671875,0.803985595703125,-0.0147705078125,0.0,-0.244140625,-0.06103515625,-0.0115966796875,-0.028564453125,-0.984619140625,144.0,46.0,89.0,101618.0,-2.442000150680542,0,0
414.065994,-0.003997802734375,0.59442138671875,0.803985595703125,-0.0147705078125,-0.06103515625,-0.42724609375,-0.1220703125,-0.012451171875,-0.0274658203125,-0.9840087890625,144.0,46.0,89.0,101618.0,-2.442000150680542,0,0
414.070994,-0.003997802734375,0.59442138671875,0.803985595703125,-0.0147705078125,0.244140625,-0.54931640625,-0.1220703125,-0.0106201171875,-0.0274658203125,-0.984130859375,144.0,46.0,89.0,101618.0,-2.442000150680542,0,0
414.075994,-0.003997802734375,0.59442138671875,0.803985595703125,-0.0147705078125,0.244140625,-0.244140625,-0.18310546875,-0.01171875,-0.0272216796875,-0.9832763671875,144.0,46.0,89.0,101618.0,-2.442000150680542,0,0
414.080996,-0.003997802734375,0.59442138671875,0.803985595703125,-0.0147705078125,0.18310546875,-0.18310546875,0.0,-0.010986328125,-0.0274658203125,-0.984130859375,144.0,46.0,89.0,101618.0,-2.442000150680542,0,0
414.085994,-0.003997802734375,0.59442138671875,0.803985595703125,-0.0147705078125,0.1220703125,-0.42724609375,-0.06103515625,-0.0120849609375,-0.02734375,-0.9847412109375,144.0,46.0,89.0,101618.0,-2.442000150680542,0,0
414.090994,-0.00396728515625,0.59442138671875,0.803985595703125,-0.0147705078125,-0.1220703125,-0.06103515625,-0.06103515625,-0.0108642578125,-0.0250244140625,-0.98388671875,144.0,46.0,89.0,101618.0,-2.442000150680542,0,0
414.095995,-0.00396728515625,0.59442138671875,0.803985595703125,-0.0147705078125,0.06103515625,-0.06103515625,-0.1220703125,-0.01123046875,-0.0286865234375,-0.9844970703125,144.0,46.0,89.0,101618.0,-2.442000150680542,0,0
414.100997,-0.00396728515625,0.59442138671875,0.803985595703125,-0.0147705078125,-0.06103515625,-0.18310546875,-0.3662109375,-0.009765625,-0.0267333984375,-0.9842529296875,144.0,46.0,89.0,101618.0,-2.442000150680542,0,0
414.105026,-0.00396728515625,0.59442138671875,0.803985595703125,-0.0147705078125,-0.06103515625,-0.18310546875,-0.3662109375,-0.009765625,-0.0267333984375,-0.9842529296875,144.0,46.0,89.0,101618.0,-2.442000150680542,0,0
414.109997,-0.003997802734375,0.59442138671875,0.803985595703125,-0.014739990234375,0.1220703125,-0.18310546875,-0.06103515625,-0.008544921875,-0.0284423828125,-0.983642578125,144.0,46.0,89.0,101618.0,-2.443000078201294,0,0
414.114996,-0.003997802734375,0.59442138671875,0.803985595703125,-0.014739990234375,0.18310546875,-0.1220703125,-0.06103515625,-0.0093994140625,-0.026611328125,-0.98291015625,144.0,46.0,89.0,101618.0,-2.443000078201294,0,0
414.119994,-0.003997802734375,0.59442138671875,0.803985595703125,-0.0147705078125,0.0,-0.42724609375,0.30517578125,-0.013671875,-0.029052734375,-0.9818115234375,144.0,46.0,89.0,101618.0,-2.443000078201294,0,0
414.124994,-0.00396728515625,0.59442138671875,0.803985595703125,-0.0147705078125,0.0,-0.3662109375,0.0,-0.0126953125,-0.0277099609375,-0.98291015625,144.0,46.0,89.0,101618.0,-2.443000078201294,0,0
414.129994,-0.00396728515625,0.59442138671875,0.803985595703125,-0.0147705078125,0.0,-0.30517578125,-0.1220703125,-0.011474609375,-0.0284423828125,-0.98486328125,144.0,46.0,89.0,101618.0,-2.443000078201294,0,0
414.144993,-0.00396728515625,0.59442138671875,0.803985595703125,-0.0147705078125,0.244140625,-0.244140625,-0.1220703125,-0.01220703125,-0.028076171875,-0.984375,144.0,46.0,89.0,101618.0,-2.443000078201294,0,0
414.149994,-0.00396728515625,0.59442138671875,0.803985595703125,-0.0147705078125,0.30517578125,0.0,-0.18310546875,-0.0084228515625,-0.026611328125,-0.98486328125,144.0,46.0,89.0,101618.0,-2.443000078201294,0,0
414.154995,-0.00396728515625,0.59442138671875,0.803985595703125,-0.0147705078125,0.30517578125,0.0,-0.18310546875,-0.0084228515625,-0.026611328125,-0.98486328125,144.0,45.0,89.0,101618.0,-2.443000078201294,0,0
414.159993,-0.00396728515625,0.59442138671875,0.803985595703125,-0.0147705078125,0.06103515625,-0.18310546875,-0.1220703125,-0.0108642578125,-0.0279541015625,-0.9847412109375,144.0,45.0,89.0,101618.0,-2.443000078201294,0,0
414.164993,-0.00396728515625,0.59442138671875,0.803985595703125,-0.0147705078125,0.244140625,-0.42724609375,0.1220703125,-0.0120849609375,-0.0257568359375,-0.9832763671875,144.0,45.0,89.0,101618.0,-2.443000078201294,0,0
414.169993,-0.00396728515625,0.59442138671875,0.803985595703125,-0.0147705078125,0.1220703125,-0.244140625,-0.1220703125,-0.011474609375,-0.0284423828125,-0.9827880859375,144.0,45.0,89.0,101618.0,-2.443000078201294,0,0
414.174022,-0.00396728515625,0.59442138671875,0.803985595703125,-0.0147705078125,0.1220703125,-0.244140625,-0.1220703125,-0.011474609375,-0.0284423828125,-0.9827880859375,144.0,45.0,89.0,101618.0,-2.443000078201294,0,0
414.178993,-0.00396728515625,0.59442138671875,0.803985595703125,-0.0147705078125,0.30517578125,-0.244140625,-0.1220703125,-0.0120849609375,-0.029296875,-0.98291015625,144.0,45.0,89.0,101618.0,-2.443000078201294,0,0
414.183994,-0.00396728515625,0.59442138671875,0.803985595703125,-0.0147705078125,1.03759765625,-0.42724609375,0.244140625,-0.008056640625,-0.0281982421875,-0.981201171875,144.0,45.0,89.0,101618.0,-2.443000078201294,0,0
414.188995,-0.00396728515625,0.59442138671875,0.803985595703125,-0.0147705078125,-0.1220703125,-0.06103515625,-0.1220703125,-0.0115966796875,-0.02880859375,-0.9825439453125,144.0,45.0,89.0,101618.0,-2.443000078201294,0,0
414.193993,-0.00396728515625,0.59442138671875,0.803985595703125,-0.0147705078125,0.18310546875,-0.30517578125,-0.06103515625,-0.0126953125,-0.0279541015625,-0.98193359375,144.0,45.0,89.0,101618.0,-2.443000078201294,0,0
414.208995,-0.00396728515625,0.59442138671875,0.803985595703125,-0.0147705078125,0.18310546875,-0.3662109375,-0.18310546875,-0.0093994140625,-0.0263671875,-0.9825439453125,144.0,45.0,89.0,101618.0,-2.44100022315979,0,0
414.213993,-0.00396728515625,0.59442138671875,0.803985595703125,-0.0147705078125,0.06103515625,-0.06103515625,0.06103515625,-0.010986328125,-0.029296875,-0.9853515625,144.0,45.0,89.0,101618.0,-2.44100022315979,0,0
414.218993,-0.003997802734375,0.59442138671875,0.803985595703125,-0.0147705078125,0.244140625,-0.30517578125,-0.1220703125,-0.0118408203125,-0.0283203125,-0.984375,144.0,45.0,89.0,101618.0,-2.44100022315979,0,0
414.223993,-0.00396728515625,0.59442138671875,0.803985595703125,-0.0147705078125,-0.06103515625,-0.244140625,-0.06103515625,-0.0093994140625,-0.0301513671875,-0.983154296875,144.0,45.0,89.0,101618.0,-2.44100022315979,0,0
414.228994,-0.00396728515625,0.59442138671875,0.803985595703125,-0.0147705078125,0.244140625,-0.3662109375,-0.30517578125,-0.01318359375,-0.02783203125,-0.98388671875,144.0,45.0,89.0,101618.0,-2.44100022315979,0,0
414.233995,-0.003997802734375,0.59442138671875,0.803985595703125,-0.0147705078125,0.1220703125,-0.54931640625,0.30517578125,-0.0098876953125,-0.0289306640625,-0.9853515625,144.0,45.0,89.0,101618.0,-2.44100022315979,0,0
414.238023,-0.003997802734375,0.59442138671875,0.803985595703125,-0.0147705078125,0.1220703125,-0.54931640625,0.30517578125,-0.0098876953125,-0.0289306640625,-0.9853515625,144.0,45.0,89.0,101618.0,-2.44100022315979,0,0
414.242995,-0.003997802734375,0.59442138671875,0.803985595703125,-0.0147705078125,-0.8544921875,-0.732421875,-0.48828125,-0.0101318359375,-0.0274658203125,-0.9830322265625,144.0,45.0,89.0,101618.0,-2.44100022315979,0,0
414.247993,-0.003997802734375,0.59442138671875,0.803985595703125,-0.0147705078125,-0.244140625,-0.30517578125,0.0,-0.01171875,-0.02734375,-0.983154296875,144.0,45.0,89.0,101618.0,-2.44100022315979,0,0
414.252993,-0.003997802734375,0.59442138671875,0.803985595703125,-0.0147705078125,0.3662109375,-0.244140625,0.06103515625,-0.0111083984375,-0.031005859375,-0.98291015625,144.0,45.0,89.0,101618.0,-2.44100022315979,0,0
414.257994,-0.003997802734375,0.59442138671875,0.803985595703125,-0.0147705078125,0.06103515625,-0.244140625,-0.30517578125,-0.0113525390625,-0.0302734375,-0.9840087890625,146.0,44.0,90.0,101618.0,-2.44100022315979,0,0
414.262995,-0.003997802734375,0.594573974609375,0.803863525390625,-0.0147705078125,0.244140625,-0.244140625,-0.18310546875,-0.0140380859375,-0.02880859375,-0.985595703125,146.0,44.0,90.0,101618.0,-2.44100022315979,0,0
414.267993,-0.003997802734375,0.594573974609375,0.803863525390625,-0.014801025390625,0.244140625,-0.1220703125,0.06103515625,-0.0140380859375,-0.02783203125,-0.983642578125,146.0,44.0,90.0,101618.0,-2.44100022315979,0,0
414.272994,-0.00396728515625,0.594573974609375,0.803863525390625,-0.014801025390625,-0.18310546875,-0.3662109375,0.0,-0.0115966796875,-0.029541015625,-0.984619140625,146.0,44.0,90.0,101618.0,-2.44100022315979,0,0
414.277994,-0.003997802734375,0.594573974609375,0.803863525390625,-0.014801025390625,0.0,-0.18310546875,-0.06103515625,-0.010986328125,-0.0299072265625,-0.9827880859375,146.0,44.0,90.0,101618.0,-2.44100022315979,0,0
414.282994,-0.003997802734375,0.594573974609375,0.803863525390625,-0.014801025390625,0.18310546875,-0.18310546875,-0.1220703125,-0.010498046875,-0.0279541015625,-0.9837646484375,146.0,44.0,90.0,101618.0,-2.44100022315979,0,0
414.287996,-0.003997802734375,0.594573974609375,0.803863525390625,-0.014801025390625,-0.18310546875,-0.30517578125,0.0,-0.0096435546875,-0.027587890625,-0.98388671875,146.0,44.0,90.0,101618.0,-2.44100022315979,0,0
414.292994,-0.003997802734375,0.594573974609375,0.803863525390625,-0.014801025390625,0.244140625,-0.3662109375,0.06103515625,-0.0113525390625,-0.0272216796875,-0.9842529296875,146.0,44.0,90.0,101618.0,-2.44100022315979,0,0
414.297994,-0.003997802734375,0.594573974609375,0.803863525390625,-0.014801025390625,0.0,-0.30517578125,-0.1220703125,-0.0106201171875,-0.0289306640625,-0.98291015625,146.0,44.0,90.0,101618.0,-2.44100022315979,0,0
414.302995,-0.003997802734375,0.594573974609375,0.803863525390625,-0.014801025390625,0.06103515625,-0.3662109375,-0.06103515625,-0.0101318359375,-0.0284423828125,-0.9832763671875,146.0,44.0,90.0,101618.0,-2.44100022315979,0,0
414.307025,-0.003997802734375,0.594573974609375,0.803863525390625,-0.014801025390625,0.06103515625,-0.3662109375,-0.06103515625,-0.0101318359375,-0.0284423828125,-0.9832763671875,146.0,44.0,90.0,101618.0,-2.44100022315979,0,0
414.311995,-0.003997802734375,0.594573974609375,0.803863525390625,-0.014801025390625,0.06103515625,-0.18310546875,-0.30517578125,-0.01220703125,-0.029052734375,-0.9835205078125,146.0,44.0,90.0,101618.0,-2.44100022315979,0,0
414.316997,-0.003997802734375,0.594573974609375,0.803863525390625,-0.014801025390625,0.244140625,-0.18310546875,-0.06103515625,-0.0118408203125,-0.0283203125,-0.9852294921875,146.0,44.0,90.0,101618.0,-2.44100022315979,0,0
414.331994,-0.003997802734375,0.594573974609375,0.803863525390625,-0.014801025390625,0.3662109375,-0.1220703125,-0.18310546875,-0.01220703125,-0.02978515625,-0.982177734375,146.0,44.0,90.0,101618.0,-2.44100022315979,0,0
414.336994,-0.003997802734375,0.594573974609375,0.803863525390625,-0.01483154296875,0.0,-0.42724609375,-0.06103515625,-0.011962890625,-0.02880859375,-0.9832763671875,146.0,44.0,90.0,101618.0,-2.44100022315979,0,0
414.341995,-0.003997802734375,0.594573974609375,0.803863525390625,-0.01483154296875,0.1220703125,-0.1220703125,-0.30517578125,-0.0125732421875,-0.026611328125,-0.98486328125,146.0,44.0,90.0,101618.0,-2.44100022315979,0,0
414.346993,-0.003997802734375,0.594573974609375,0.803863525390625,-0.01483154296875,-0.18310546875,-0.06103515625,-0.06103515625,-0.011474609375,-0.0284423828125,-0.984130859375,146.0,44.0,90.0,101618.0,-2.44100022315979,0,0
414.351993,-0.003997802734375,0.594573974609375,0.803863525390625,-0.01483154296875,0.1220703125,-0.18310546875,0.06103515625,-0.0101318359375,-0.028076171875,-0.9822998046875,146.0,44.0,90.0,101618.0,-2.44100022315979,0,0
414.356994,-0.003997802734375,0.59442138671875,0.803955078125,-0.01483154296875,0.1220703125,-0.18310546875,0.06103515625,-0.0101318359375,-0.028076171875,-0.9822998046875,146.0,46.0,90.0,101618.0,-2.44100022315979,0,0
414.361995,-0.003997802734375,0.59442138671875,0.803955078125,-0.014801025390625,0.3662109375,-0.244140625,-0.06103515625,-0.0107421875,-0.0274658203125,-0.983642578125,146.0,46.0,90.0,101618.0,-2.44100022315979,0,0
414.366996,-0.003997802734375,0.59442138671875,0.803955078125,-0.014801025390625,0.9765625,-0.244140625,0.0,-0.0106201171875,-0.0281982421875,-0.9859619140625,146.0,46.0,90.0,101618.0,-2.44100022315979,0,0
414.371021,-0.003997802734375,0.59442138671875,0.803955078125,-0.014801025390625,0.9765625,-0.244140625,0.0,-0.0106201171875,-0.0281982421875,-0.9859619140625,146.0,46.0,90.0,101618.0,-2.44100022315979,0,0
414.375993,-0.003997802734375,0.59442138671875,0.803955078125,-0.014801025390625,-0.244140625,-0.244140625,-0.1220703125,-0.0115966796875,-0.0289306640625,-0.983154296875,146.0,46.0,90.0,101618.0,-2.44100022315979,0,0
414.380993,-0.003997802734375,0.59442138671875,0.803955078125,-0.014801025390625,0.1220703125,-0.1220703125,-0.1220703125,-0.0084228515625,-0.0263671875,-0.98388671875,146.0,46.0,90.0,101618.0,-2.44100022315979,0,0
414.395995,-0.003997802734375,0.59442138671875,0.803955078125,-0.014801025390625,-0.1220703125,-0.244140625,-0.18310546875,-0.0096435546875,-0.028076171875,-0.9833984375,146.0,46.0,90.0,101618.0,-2.44100022315979,0,0
414.400993,-0.003997802734375,0.59442138671875,0.803955078125,-0.014801025390625,0.18310546875,-0.18310546875,0.0,-0.009033203125,-0.029541015625,-0.983154296875,146.0,46.0,90.0,101618.0,-2.44100022315979,0,0
414.405993,-0.003997802734375,0.59442138671875,0.803955078125,-0.014801025390625,-0.244140625,-0.244140625,0.0,-0.011474609375,-0.026611328125,-0.984619140625,146.0,46.0,90.0,101618.0,-2.44100022315979,0,0
414.410994,-0.003997802734375,0.594451904296875,0.803955078125,-0.014801025390625,0.732421875,0.1220703125,0.06103515625,-0.01220703125,-0.0250244140625,-0.9815673828125,146.0,46.0,90.0,101618.0,-2.44100022315979,0,0
414.415995,-0.00396728515625,0.594451904296875,0.803955078125,-0.014801025390625,0.18310546875,-0.30517578125,-0.18310546875,-0.0113525390625,-0.0257568359375,-0.9849853515625,146.0,46.0,90.0,101618.0,-2.44100022315979,0,0
414.420993,-0.00396728515625,0.594451904296875,0.803955078125,-0.014801025390625,0.3662109375,-0.06103515625,-0.06103515625,-0.012939453125,-0.0274658203125,-0.984130859375,146.0,46.0,90.0,101618.0,-2.44100022315979,0,0
414.425993,-0.00396728515625,0.594451904296875,0.803955078125,-0.014801025390625,0.18310546875,0.1220703125,0.06103515625,-0.0125732421875,-0.0281982421875,-0.9840087890625,146.0,46.0,90.0,101618.0,-2.44100022315979,0,0
414.430993,-0.003997802734375,0.59442138671875,0.803985595703125,-0.01483154296875,-0.18310546875,-0.244140625,-0.1220703125,-0.01318359375,-0.0279541015625,-0.9832763671875,146.0,46.0,90.0,101618.0,-2.44100022315979,0,0
414.435994,-0.003997802734375,0.59442138671875,0.803985595703125,-0.01483154296875,-0.67138671875,-0.18310546875,-0.54931640625,-0.0113525390625,-0.029296875,-0.983642578125,146.0,46.0,90.0,101618.0,-2.44100022315979,0,0
414.440024,-0.003997802734375,0.59442138671875,0.803985595703125,-0.01483154296875,-0.67138671875,-0.18310546875,-0.54931640625,-0.0113525390625,-0.029296875,-0.983642578125,146.0,46.0,90.0,101618.0,-2.44100022315979,0,0
414.444994,-0.003997802734375,0.59442138671875,0.803985595703125,-0.01483154296875,0.18310546875,-0.3662109375,-0.244140625,-0.011962890625,-0.0262451171875,-0.9833984375,146.0,46.0,90.0,101618.0,-2.44100022315979,0,0
414.449995,-0.003997802734375,0.59442138671875,0.803985595703125,-0.01483154296875,0.54931640625,-0.1220703125,0.0,-0.0113525390625,-0.02587890625,-0.982177734375,146.0,46.0,90.0,101618.0,-2.44100022315979,0,0
414.454993,-0.003997802734375,0.59442138671875,0.803985595703125,-0.01483154296875,-0.18310546875,-0.67138671875,-0.1220703125,-0.0111083984375,-0.028564453125,-0.98388671875,146.0,46.0,90.0,101618.0,-2.44100022315979,0,0
414.459993,-0.003997802734375,0.59417724609375,0.804168701171875,-0.01483154296875,0.48828125,-0.06103515625,-0.18310546875,-0.0111083984375,-0.0299072265625,-0.984130859375,146.0,47.0,90.0,101618.0,-2.44100022315979,0,0
414.464994,-0.003997802734375,0.59417724609375,0.804168701171875,-0.01483154296875,-0.06103515625,-0.30517578125,-0.3662109375,-0.01171875,-0.0279541015625,-0.98388671875,146.0,47.0,90.0,101618.0,-2.44100022315979,0,0
414.469995,-0.003997802734375,0.59417724609375,0.804168701171875,-0.01483154296875,0.06103515625,-0.3662109375,-0.1220703125,-0.009521484375,-0.02685546875,-0.985595703125,146.0,47.0,90.0,101618.0,-2.44100022315979,0,0
414.474996,-0.003997802734375,0.59417724609375,0.804168701171875,-0.01483154296875,0.18310546875,-0.244140625,0.06103515625,-0.00732421875,-0.0296630859375,-0.9840087890625,146.0,47.0,90.0,101618.0,-2.44100022315979,0,0
414.479993,-0.003997802734375,0.59417724609375,0.804168701171875,-0.01483154296875,0.18310546875,-0.54931640625,-0.18310546875,-0.009521484375,-0.029052734375,-0.9822998046875,146.0,47.0,90.0,101618.0,-2.44100022315979,0,0
414.484994,-0.003997802734375,0.59417724609375,0.804168701171875,-0.01483154296875,0.30517578125,-0.1220703125,-0.1220703125,-0.01318359375,-0.0283203125,-0.9832763671875,146.0,47.0,90.0,101618.0,-2.44100022315979,0,0
414.489994,-0.003997802734375,0.59417724609375,0.804168701171875,-0.01483154296875,-0.06103515625,-0.30517578125,-0.1220703125,-0.0120849609375,-0.02685546875,-0.9837646484375,146.0,47.0,90.0,101618.0,-2.44100022315979,0,0
414.494996,-0.003997802734375,0.59417724609375,0.804168701171875,-0.01483154296875,0.42724609375,-0.06103515625,-0.06103515625,-0.0098876953125,-0.03076171875,-0.98388671875,146.0,47.0,90.0,101618.0,-2.44100022315979,0,0
414.499994,-0.003997802734375,0.59417724609375,0.804168701171875,-0.01483154296875,0.244140625,-0.18310546875,0.0,-0.011962890625,-0.028564453125,-0.9840087890625,146.0,47.0,90.0,101618.0,-2.442000150680542,0,0
414.504024,-0.003997802734375,0.59417724609375,0.804168701171875,-0.01483154296875,0.244140625,-0.18310546875,0.0,-0.011962890625,-0.028564453125,-0.9840087890625,146.0,47.0,90.0,101618.0,-2.442000150680542,0,0
414.518995,-0.003997802734375,0.59417724609375,0.804168701171875,-0.01483154296875,0.06103515625,-0.30517578125,-0.06103515625,-0.01025390625,-0.0294189453125,-0.985595703125,146.0,47.0,90.0,101618.0,-2.442000150680542,0,0
414.523997,-0.003997802734375,0.59417724609375,0.804168701171875,-0.01483154296875,0.06103515625,-0.244140625,-0.18310546875,-0.0113525390625,-0.03173828125,-0.984375,146.0,47.0,90.0,101618.0,-2.442000150680542,0,0
414.528996,-0.003997802734375,0.59417724609375,0.804168701171875,-0.01483154296875,0.48828125,-0.18310546875,-0.1220703125,-0.0120849609375,-0.0286865234375,-0.9844970703125,146.0,47.0,90.0,101618.0,-2.442000150680542,0,0
414.533994,-0.003997802734375,0.59417724609375,0.804168701171875,-0.01483154296875,-0.18310546875,-0.244140625,-0.30517578125,-0.0107421875,-0.029052734375,-0.985107421875,146.0,47.0,90.0,101618.0,-2.442000150680542,0,0
414.538994,-0.0040283203125,0.59417724609375,0.804168701171875,-0.01483154296875,0.3662109375,-0.1220703125,-0.18310546875,-0.0081787109375,-0.0296630859375,-0.9844970703125,146.0,47.0,90.0,101618.0,-2.442000150680542,0,0
414.543994,-0.0040283203125,0.59417724609375,0.804168701171875,-0.01483154296875,-0.18310546875,-0.3662109375,-0.18310546875,-0.0115966796875,-0.026123046875,-0.981201171875,146.0,47.0,90.0,101618.0,-2.442000150680542,0,0
414.548996,-0.0040283203125,0.59417724609375,0.804168701171875,-0.01483154296875,0.0,-0.244140625,0.0,-0.01123046875,-0.0274658203125,-0.984375,146.0,47.0,90.0,101618.0,-2.442000150680542,0,0
414.553993,-0.003997802734375,0.59417724609375,0.804168701171875,-0.01483154296875,-0.42724609375,-0.6103515625,-0.244140625,-0.0125732421875,-0.027587890625,-0.9842529296875,146.0,47.0,90.0,101618.0,-2.442000150680542,0,0
414.558993,-0.003997802734375,0.594024658203125,0.80426025390625,-0.01483154296875,-0.42724609375,-0.6103515625,-0.244140625,-0.0125732421875,-0.027587890625,-0.9842529296875,145.0,46.0,90.0,101618.0,-2.442000150680542,0,0
414.563994,-0.003997802734375,0.594024658203125,0.80426025390625,-0.01483154296875,0.30517578125,-0.3662109375,-0.3662109375,-0.01025390625,-0.0267333984375,-0.9830322265625,145.0,46.0,90.0,101618.0,-2.442000150680542,0,0
414.568995,-0.003997802734375,0.594024658203125,0.80426025390625,-0.01483154296875,0.30517578125,-0.42724609375,0.06103515625,-0.01171875,-0.026123046875,-0.98388671875,145.0,46.0,90.0,101618.0,-2.442000150680542,0,0
414.582996,-0.003997802734375,0.594024658203125,0.80426025390625,-0.01483154296875,-0.1220703125,-0.1220703125,-0.18310546875,-0.0128173828125,-0.02734375,-0.9849853515625,145.0,46.0,90.0,101618.0,-2.442000150680542,0,0
414.587993,-0.003997802734375,0.594024658203125,0.80426025390625,-0.01483154296875,0.1220703125,-0.1220703125,-0.18310546875,-0.0115966796875,-0.0257568359375,-0.98388671875,145.0,46.0,90.0,101618.0,-2.442000150680542,0,0
414.592993,-0.003997802734375,0.594024658203125,0.80426025390625,-0.01483154296875,0.244140625,-0.3662109375,-0.244140625,-0.01123046875,-0.0279541015625,-0.98486328125,145.0,46.0,90.0,101618.0,-2.442000150680542,0,0
414.597994,-0.003997802734375,0.594024658203125,0.80426025390625,-0.01483154296875,-0.244140625,-0.30517578125,-0.06103515625,-0.0103759765625,-0.02783203125,-0.9847412109375,145.0,46.0,90.0,101618.0,-2.442000150680542,0,0
414.602995,-0.003997802734375,0.594024658203125,0.80426025390625,-0.01483154296875,-0.244140625,-0.30517578125,-0.06103515625,-0.0103759765625,-0.02783203125,-0.9847412109375,145.0,46.0,90.0,101618.0,-2.44100022315979,0,0
414.607993,-0.003997802734375,0.594024658203125,0.80426025390625,-0.01483154296875,0.42724609375,-0.244140625,-0.1220703125,-0.010498046875,-0.0296630859375,-0.9862060546875,145.0,46.0,90.0,101618.0,-2.44100022315979,0,0
414.612993,-0.003997802734375,0.594024658203125,0.80426025390625,-0.01483154296875,0.0,-0.3662109375,0.0,-0.0120849609375,-0.0283203125,-0.9853515625,145.0,46.0,90.0,101618.0,-2.44100022315979,0,0
414.617994,-0.003997802734375,0.594024658203125,0.80426025390625,-0.01483154296875,0.06103515625,-0.54931640625,-0.18310546875,-0.0098876953125,-0.0284423828125,-0.9833984375,145.0,46.0,90.0,101618.0,-2.44100022315979,0,0
414.622995,-0.003997802734375,0.594024658203125,0.80426025390625,-0.01483154296875,-0.1220703125,-0.244140625,-0.1220703125,-0.0113525390625,-0.0284423828125,-0.9849853515625,145.0,46.0,90.0,101618.0,-2.44100022315979,0,0
414.627993,-0.003997802734375,0.594024658203125,0.80426025390625,-0.014801025390625,0.244140625,-0.18310546875,0.0,-0.0096435546875,-0.02587890625,-0.98193359375,145.0,46.0,90.0,101618.0,-2.44100022315979,0,0
414.632993,-0.003997802734375,0.594024658203125,0.80426025390625,-0.01483154296875,0.0,-0.18310546875,-0.18310546875,-0.0126953125,-0.02978515625,-0.9835205078125,145.0,46.0,90.0,101618.0,-2.44100022315979,0,0
414.637022,-0.003997802734375,0.594024658203125,0.80426025390625,-0.01483154296875,0.0,-0.18310546875,-0.18310546875,-0.0126953125,-0.02978515625,-0.9835205078125,145.0,46.0,90.0,101618.0,-2.44100022315979,0,0
414.641993,-0.003997802734375,0.594024658203125,0.80426025390625,-0.01483154296875,0.1220703125,-0.244140625,-0.18310546875,-0.0123291015625,-0.029052734375,-0.9840087890625,145.0,46.0,90.0,101618.0,-2.44100022315979,0,0
414.646993,-0.003997802734375,0.594024658203125,0.80426025390625,-0.01483154296875,0.244140625,-0.244140625,0.0,-0.0113525390625,-0.0274658203125,-0.9837646484375,145.0,46.0,90.0,101618.0,-2.44100022315979,0,0
414.651994,-0.0040283203125,0.594024658203125,0.80426025390625,-0.01483154296875,0.0,-0.30517578125,-0.18310546875,-0.011962890625,-0.027587890625,-0.982421875,145.0,46.0,90.0,101618.0,-2.44100022315979,0,0
414.656995,-0.0040283203125,0.594024658203125,0.80426025390625,-0.01483154296875,0.3662109375,-0.244140625,-0.244140625,-0.010009765625,-0.0311279296875,-0.9837646484375,144.0,46.0,90.0,101618.0,-2.44100022315979,0,0
414.661993,-0.0040283203125,0.593902587890625,0.80438232421875,-0.01483154296875,-0.42724609375,-0.244140625,-0.18310546875,-0.0093994140625,-0.029296875,-0.983642578125,144.0,46.0,90.0,101618.0,-2.44100022315979,0,0
414.666993,-0.0040283203125,0.593902587890625,0.80438232421875,-0.01483154296875,0.18310546875,-0.244140625,-0.06103515625,-0.010498046875,-0.028564453125,-0.9849853515625,144.0,46.0,90.0,101618.0,-2.44100022315979,0,0
414.671994,-0.003997802734375,0.593902587890625,0.80438232421875,-0.01483154296875,0.18310546875,-0.3662109375,-0.1220703125,-0.012451171875,-0.0281982421875,-0.9847412109375,144.0,46.0,90.0,101618.0,-2.44100022315979,0,0
414.676995,-0.003997802734375,0.593902587890625,0.80438232421875,-0.01483154296875,-0.1220703125,-0.3662109375,0.0,-0.011474609375,-0.0277099609375,-0.98291015625,144.0,46.0,90.0,101618.0,-2.44100022315979,0,0
414.681993,-0.003997802734375,0.593902587890625,0.80438232421875,-0.01483154296875,0.48828125,-0.1220703125,0.0,-0.0103759765625,-0.0286865234375,-0.98388671875,144.0,46.0,90.0,101618.0,-2.44100022315979,0,0
414.686993,-0.003997802734375,0.593902587890625,0.80438232421875,-0.01483154296875,0.244140625,-0.30517578125,0.0,-0.010498046875,-0.0274658203125,-0.982666015625,144.0,46.0,90.0,101618.0,-2.44100022315979,0,0
414.691993,-0.0040283203125,0.593902587890625,0.80438232421875,-0.01483154296875,-0.1220703125,-0.30517578125,0.06103515625,-0.0103759765625,-0.029052734375,-0.984130859375,144.0,46.0,90.0,101618.0,-2.44100022315979,0,0
414.706028,-0.0040283203125,0.593902587890625,0.80438232421875,-0.01483154296875,-0.18310546875,-0.30517578125,-0.1220703125,-0.010986328125,-0.029052734375,-0.98486328125,144.0,46.0,90.0,101618.0,-2.442000150680542,0,0
414.710997,-0.003997802734375,0.593902587890625,0.80438232421875,-0.01483154296875,0.1220703125,-0.30517578125,-0.18310546875,-0.0111083984375,-0.02783203125,-0.9847412109375,144.0,46.0,90.0,101618.0,-2.442000150680542,0,0
414.715994,-0.003997802734375,0.593902587890625,0.80438232421875,-0.014862060546875,0.244140625,-0.18310546875,0.06103515625,-0.0137939453125,-0.030517578125,-0.983154296875,144.0,46.0,90.0,101618.0,-2.442000150680542,0,0
414.720994,-0.003997802734375,0.593902587890625,0.80438232421875,-0.014862060546875,0.06103515625,-0.244140625,0.06103515625,-0.01220703125,-0.0289306640625,-0.984375,144.0,46.0,90.0,101618.0,-2.442000150680542,0,0
414.725995,-0.003997802734375,0.593902587890625,0.80438232421875,-0.014862060546875,-0.1220703125,-0.30517578125,-0.244140625,-0.0107421875,-0.0274658203125,-0.983154296875,144.0,46.0,90.0,101618.0,-2.442000150680542,0,0
414.730997,-0.0040283203125,0.593902587890625,0.80438232421875,-0.014862060546875,0.30517578125,-0.18310546875,-0.1220703125,-0.0107421875,-0.02978515625,-0.982666015625,144.0,46.0,90.0,101618.0,-2.442000150680542,0,0
414.735996,-0.003997802734375,0.593902587890625,0.80438232421875,-0.014862060546875,0.0,-0.54931640625,0.0,-0.0133056640625,-0.029052734375,-0.985107421875,144.0,46.0,90.0,101618.0,-2.442000150680542,0,0
414.740994,-0.003997802734375,0.593902587890625,0.80438232421875,-0.014862060546875,0.06103515625,-0.3662109375,-0.244140625,-0.012451171875,-0.0281982421875,-0.9818115234375,144.0,46.0,90.0,101618.0,-2.442000150680542,0,0
414.745994,-0.003997802734375,0.593902587890625,0.80438232421875,-0.014862060546875,0.18310546875,-0.30517578125,-0.244140625,-0.01123046875,-0.028076171875,-0.9835205078125,144.0,46.0,90.0,101618.0,-2.442000150680542,0,0
414.750994,-0.003997802734375,0.593902587890625,0.80438232421875,-0.014862060546875,0.06103515625,-0.18310546875,-0.06103515625,-0.01318359375,-0.0303955078125,-0.9844970703125,144.0,46.0,90.0,101618.0,-2.442000150680542,0,0
414.755996,-0.003997802734375,0.593902587890625,0.80438232421875,-0.014892578125,0.42724609375,-0.30517578125,-0.06103515625,-0.01171875,-0.027099609375,-0.9837646484375,144.0,45.0,91.0,101618.0,-2.442000150680542,0,0
414.770021,-0.003997802734375,0.593902587890625,0.80438232421875,-0.014862060546875,0.0,-0.3662109375,0.06103515625,-0.01171875,-0.0264892578125,-0.982666015625,144.0,45.0,91.0,101618.0,-2.442000150680542,0,0
414.774993,-0.003997802734375,0.593902587890625,0.80438232421875,-0.014862060546875,0.0,-0.3662109375,-0.06103515625,-0.010009765625,-0.0274658203125,-0.983642578125,144.0,45.0,91.0,101618.0,-2.442000150680542,0,0
414.779994,-0.003997802734375,0.593902587890625,0.80438232421875,-0.014862060546875,0.244140625,-0.3662109375,-0.06103515625,-0.007568359375,-0.0267333984375,-0.984375,144.0,45.0,91.0,101618.0,-2.442000150680542,0,0
414.784995,-0.003997802734375,0.593902587890625,0.80438232421875,-0.014862060546875,0.3662109375,-0.1220703125,0.06103515625,-0.011474609375,-0.0277099609375,-0.984619140625,144.0,45.0,91.0,101618.0,-2.442000150680542,0,0
414.789993,-0.003997802734375,0.593902587890625,0.80438232421875,-0.014862060546875,0.0,-0.3662109375,-0.30517578125,-0.009765625,-0.0294189453125,-0.9822998046875,144.0,45.0,91.0,101618.0,-2.442000150680542,0,0
414.794993,-0.0040283203125,0.593902587890625,0.80438232421875,-0.01483154296875,-0.1220703125,-0.1220703125,-0.06103515625,-0.00927734375,-0.0286865234375,-0.9815673828125,144.0,45.0,91.0,101618.0,-2.442000150680542,0,0
414.799993,-0.0040283203125,0.593902587890625,0.80438232421875,-0.01483154296875,0.06103515625,0.0,-0.06103515625,-0.010009765625,-0.0269775390625,-0.985107421875,144.0,45.0,91.0,101618.0,-2.442000150680542,0,0
414.804994,-0.003997802734375,0.593902587890625,0.80438232421875,-0.01483154296875,-0.3662109375,-0.244140625,0.06103515625,-0.0125732421875,-0.025634765625,-0.9832763671875,144.0,45.0,91.0,101618.0,-2.440000057220459,0,0
414.809995,-0.003997802734375,0.593902587890625,0.80438232421875,-0.01483154296875,0.06103515625,-0.54931640625,-0.18310546875,-0.0113525390625,-0.028076171875,-0.981689453125,144.0,45.0,91.0,101618.0,-2.440000057220459,0,0
414.814993,-0.0040283203125,0.593902587890625,0.80438232421875,-0.01483154296875,0.0,-0.1220703125,-0.1220703125,-0.0107421875,-0.029541015625,-0.9849853515625,144.0,45.0,91.0,101618.0,-2.440000057220459,0,0
414.819993,-0.0040283203125,0.593902587890625,0.80438232421875,-0.01483154296875,0.244140625,-0.244140625,-0.06103515625,-0.0087890625,-0.029052734375,-0.984619140625,144.0,45.0,91.0,101618.0,-2.440000057220459,0,0
414.824994,-0.0040283203125,0.593902587890625,0.80438232421875,-0.01483154296875,0.0,-0.18310546875,-0.1220703125,-0.009521484375,-0.0281982421875,-0.9852294921875,144.0,45.0,91.0,101618.0,-2.440000057220459,0,0
414.829995,-0.0040283203125,0.593902587890625,0.80438232421875,-0.01483154296875,-0.1220703125,-0.3662109375,0.0,-0.0089111328125,-0.0281982421875,-0.9825439453125,144.0,45.0,91.0,101618.0,-2.440000057220459,0,0
414.83402,-0.0040283203125,0.593902587890625,0.80438232421875,-0.01483154296875,-0.1220703125,-0.3662109375,0.0,-0.0089111328125,-0.0281982421875,-0.9825439453125,144.0,45.0,91.0,101618.0,-2.440000057220459,0,0
414.838996,-0.0040283203125,0.593902587890625,0.80438232421875,-0.01483154296875,0.3662109375,-0.30517578125,-0.06103515625,-0.0091552734375,-0.027099609375,-0.9866943359375,144.0,45.0,91.0,101618.0,-2.440000057220459,0,0
414.843993,-0.0040283203125,0.593902587890625,0.80438232421875,-0.01483154296875,0.30517578125,-0.30517578125,0.0,-0.009765625,-0.027099609375,-0.9837646484375,144.0,45.0,91.0,101618.0,-2.440000057220459,0,0
414.848993,-0.0040283203125,0.593902587890625,0.80438232421875,-0.01483154296875,0.30517578125,0.0,-0.18310546875,-0.0093994140625,-0.0279541015625,-0.9835205078125,144.0,45.0,91.0,101618.0,-2.440000057220459,0,0
414.853993,-0.0040283203125,0.593902587890625,0.80438232421875,-0.01483154296875,0.1220703125,-0.18310546875,0.18310546875,-0.012939453125,-0.0301513671875,-0.983642578125,144.0,45.0,91.0,101618.0,-2.440000057220459,0,0
414.858994,-0.0040283203125,0.59375,0.804473876953125,-0.01483154296875,0.1220703125,-0.18310546875,0.18310546875,-0.012939453125,-0.0301513671875,-0.983642578125,144.0,46.0,92.0,101618.0,-2.440000057220459,0,0
414.863995,-0.0040283203125,0.59375,0.804473876953125,-0.01483154296875,-0.06103515625,-0.244140625,-0.18310546875,-0.0103759765625,-0.028564453125,-0.982177734375,144.0,46.0,92.0,101618.0,-2.440000057220459,0,0
414.868993,-0.0040283203125,0.59375,0.804473876953125,-0.01483154296875,-0.30517578125,-0.42724609375,-0.1220703125,-0.0096435546875,-0.0269775390625,-0.9842529296875,144.0,46.0,92.0,101618.0,-2.440000057220459,0,0
414.873993,-0.0040283203125,0.59375,0.804473876953125,-0.01483154296875,-0.06103515625,-0.48828125,-0.06103515625,-0.011962890625,-0.028564453125,-0.9835205078125,144.0,46.0,92.0,101618.0,-2.440000057220459,0,0
414.878994,-0.0040283203125,0.59375,0.804473876953125,-0.01483154296875,0.0,-0.3662109375,-0.06103515625,-0.013671875,-0.028564453125,-0.984130859375,144.0,46.0,92.0,101618.0,-2.440000057220459,0,0
414.893993,-0.0040283203125,0.59375,0.804473876953125,-0.01483154296875,0.30517578125,-0.18310546875,0.244140625,-0.0093994140625,-0.02880859375,-0.9844970703125,144.0,46.0,92.0,101618.0,-2.440000057220459,0,0
414.898993,-0.0040283203125,0.59375,0.804473876953125,-0.01483154296875,0.18310546875,-0.30517578125,-0.06103515625,-0.011962890625,-0.028564453125,-0.983642578125,144.0,46.0,92.0,101618.0,-2.440000057220459,0,0
414.903022,-0.0040283203125,0.59375,0.804473876953125,-0.01483154296875,0.18310546875,-0.30517578125,-0.06103515625,-0.011962890625,-0.028564453125,-0.983642578125,144.0,46.0,92.0,101618.0,-2.440000057220459,0,0
414.907993,-0.0040283203125,0.59375,0.804473876953125,-0.014801025390625,0.3662109375,-0.244140625,-0.1220703125,-0.01025390625,-0.0267333984375,-0.9842529296875,144.0,46.0,92.0,101618.0,-2.440000057220459,0,0
414.912994,-0.0040283203125,0.59375,0.804473876953125,-0.01483154296875,0.30517578125,-0.30517578125,-0.3662109375,-0.01171875,-0.02490234375,-0.983154296875,144.0,46.0,92.0,101618.0,-2.440000057220459,0,0
414.917996,-0.0040283203125,0.59375,0.804473876953125,-0.014801025390625,0.1220703125,-0.244140625,-0.06103515625,-0.012939453125,-0.0286865234375,-0.98388671875,144.0,46.0,92.0,101618.0,-2.440000057220459,0,0
414.922994,-0.003997802734375,0.59375,0.804473876953125,-0.01483154296875,0.54931640625,0.0,-0.3662109375,-0.010498046875,-0.0267333984375,-0.9842529296875,144.0,46.0,92.0,101618.0,-2.440000057220459,0,0
414.927994,-0.003997802734375,0.59375,0.804473876953125,-0.01483154296875,0.18310546875,-0.18310546875,-0.18310546875,-0.013671875,-0.029296875,-0.9844970703125,144.0,46.0,92.0,101618.0,-2.440000057220459,0,0
414.932995,-0.003997802734375,0.59375,0.804473876953125,-0.014801025390625,0.42724609375,-0.244140625,0.0,-0.0120849609375,-0.028076171875,-0.9830322265625,144.0,46.0,92.0,101618.0,-2.440000057220459,0,0
414.937997,-0.0040283203125,0.59375,0.804473876953125,-0.014801025390625,0.54931640625,-0.1220703125,-0.06103515625,-0.00927734375,-0.0286865234375,-0.982666015625,144.0,46.0,92.0,101618.0,-2.440000057220459,0,0
414.952994,-0.0040283203125,0.59375,0.804473876953125,-0.01483154296875,0.06103515625,-0.3662109375,-0.06103515625,-0.0106201171875,-0.0299072265625,-0.9844970703125,146.0,47.0,93.0,101618.0,-2.44100022315979,0,0
414.957994,-0.0040283203125,0.59375,0.804473876953125,-0.01483154296875,-0.06103515625,-0.30517578125,-0.244140625,-0.0123291015625,-0.02734375,-0.982666015625,146.0,47.0,93.0,101618.0,-2.44100022315979,0,0
414.962996,-0.003997802734375,0.593505859375,0.804656982421875,-0.01483154296875,0.18310546875,-0.244140625,-0.06103515625,-0.0118408203125,-0.025390625,-0.982421875,146.0,47.0,93.0,101618.0,-2.44100022315979,0,0
414.967028,-0.003997802734375,0.593505859375,0.804656982421875,-0.01483154296875,0.18310546875,-0.244140625,-0.06103515625,-0.0118408203125,-0.025390625,-0.982421875,146.0,47.0,93.0,101618.0,-2.44100022315979,0,0
414.971996,-0.003997802734375,0.593505859375,0.804656982421875,-0.01483154296875,0.06103515625,-0.244140625,-0.1220703125,-0.012451171875,-0.030517578125,-0.9844970703125,146.0,47.0,93.0,101618.0,-2.44100022315979,0,0
414.976993,-0.003997802734375,0.593505859375,0.804656982421875,-0.01483154296875,0.244140625,-0.18310546875,0.06103515625,-0.013427734375,-0.027587890625,-0.985107421875,146.0,47.0,93.0,101618.0,-2.44100022315979,0,0
414.981993,-0.003997802734375,0.593505859375,0.804656982421875,-0.01483154296875,-0.18310546875,-0.42724609375,-0.1220703125,-0.011962890625,-0.0260009765625,-0.983154296875,146.0,47.0,93.0,101618.0,-2.44100022315979,0,0
414.986994,-0.003997802734375,0.593505859375,0.804656982421875,-0.01483154296875,0.3662109375,-0.06103515625,0.06103515625,-0.00927734375,-0.026611328125,-0.9825439453125,146.0,47.0,93.0,101618.0,-2.44100022315979,0,0
414.991995,-0.003997802734375,0.593505859375,0.804656982421875,-0.01483154296875,0.42724609375,0.06103515625,-0.1220703125,-0.0111083984375,-0.030029296875,-0.982666015625,146.0,47.0,93.0,101618.0,-2.44100022315979,0,0
414.996996,-0.003997802734375,0.593505859375,0.804656982421875,-0.01483154296875,0.67138671875,-0.18310546875,-0.48828125,-0.0098876953125,-0.029296875,-0.9837646484375,146.0,47.0,93.0,101618.0,-2.44100022315979,0,0
415.001993,-0.003997802734375,0.593505859375,0.804656982421875,-0.01483154296875,0.6103515625,-0.244140625,0.06103515625,-0.0118408203125,-0.026611328125,-0.983642578125,146.0,47.0,93.0,101618.0,-2.44100022315979,0,0
415.006993,-0.003997802734375,0.593505859375,0.804656982421875,-0.01483154296875,-0.1220703125,-0.30517578125,0.06103515625,-0.0108642578125,-0.030029296875,-0.98291015625,146.0,47.0,93.0,101618.0,-2.44100022315979,0,0
415.011994,-0.0040283203125,0.593505859375,0.804656982421875,-0.01483154296875,0.3662109375,-0.1220703125,-0.244140625,-0.0098876953125,-0.028564453125,-0.986083984375,146.0,47.0,93.0,101618.0,-2.44100022315979,0,0
415.016995,-0.0040283203125,0.593505859375,0.804656982421875,-0.01483154296875,0.18310546875,-0.3662109375,-0.1220703125,-0.010498046875,-0.02734375,-0.9837646484375,146.0,47.0,93.0,101618.0,-2.44100022315979,0,0
415.021993,-0.0040283203125,0.593505859375,0.804656982421875,-0.01483154296875,0.06103515625,-0.244140625,-0.06103515625,-0.0103759765625,-0.0274658203125,-0.98291015625,146.0,47.0,93.0,101618.0,-2.44100022315979,0,0
415.026993,-0.0040283203125,0.593505859375,0.804656982421875,-0.01483154296875,0.6103515625,-0.1220703125,0.0,-0.0103759765625,-0.0281982421875,-0.9844970703125,146.0,47.0,93.0,101618.0,-2.44100022315979,0,0
415.031994,-0.0040283203125,0.593505859375,0.804656982421875,-0.01483154296875,-0.1220703125,-0.18310546875,-0.244140625,-0.010986328125,-0.0281982421875,-0.9818115234375,146.0,47.0,93.0,101618.0,-2.44100022315979,0,0
415.036021,-0.0040283203125,0.593505859375,0.804656982421875,-0.01483154296875,-0.1220703125,-0.18310546875,-0.244140625,-0.010986328125,-0.0281982421875,-0.9818115234375,146.0,47.0,93.0,101618.0,-2.44100022315979,0,0
415.040994,-0.0040283203125,0.593505859375,0.804656982421875,-0.014801025390625,0.244140625,-0.30517578125,0.0,-0.0103759765625,-0.02685546875,-0.982666015625,146.0,47.0,93.0,101618.0,-2.44100022315979,0,0
415.045995,-0.003997802734375,0.593505859375,0.804656982421875,-0.014801025390625,-0.06103515625,-0.244140625,-0.06103515625,-0.01220703125,-0.0264892578125,-0.98388671875,146.0,47.0,93.0,101618.0,-2.44100022315979,0,0
415.050993,-0.0040283203125,0.593505859375,0.804656982421875,-0.01483154296875,0.0,-0.48828125,-0.06103515625,-0.012451171875,-0.0286865234375,-0.984130859375,146.0,47.0,93.0,101618.0,-2.44100022315979,0,0
415.055993,-0.0040283203125,0.593505859375,0.804656982421875,-0.01483154296875,0.0,-0.48828125,-0.06103515625,-0.012451171875,-0.0286865234375,-0.984130859375,144.0,48.0,93.0,101618.0,-2.440000057220459,0,0
415.060993,-0.003997802734375,0.593231201171875,0.80487060546875,-0.01483154296875,-0.06103515625,-0.42724609375,-0.244140625,-0.0113525390625,-0.029052734375,-0.9832763671875,144.0,48.0,93.0,101618.0,-2.440000057220459,0,0
415.075993,-0.003997802734375,0.593231201171875,0.80487060546875,-0.01483154296875,0.48828125,-0.18310546875,0.06103515625,-0.0101318359375,-0.0269775390625,-0.9844970703125,144.0,48.0,93.0,101618.0,-2.440000057220459,0,0
415.080993,-0.003997802734375,0.593231201171875,0.80487060546875,-0.01483154296875,0.0,-0.244140625,-0.06103515625,-0.010498046875,-0.029296875,-0.9833984375,144.0,48.0,93.0,101618.0,-2.440000057220459,0,0
415.085994,-0.003997802734375,0.593231201171875,0.80487060546875,-0.01483154296875,0.0,0.06103515625,0.06103515625,-0.009765625,-0.0281982421875,-0.98388671875,144.0,48.0,93.0,101618.0,-2.440000057220459,0,0
415.090995,-0.003997802734375,0.593231201171875,0.80487060546875,-0.01483154296875,-0.18310546875,-0.18310546875,0.1220703125,-0.0113525390625,-0.0264892578125,-0.98388671875,144.0,48.0,93.0,101618.0,-2.440000057220459,0,0
415.095993,-0.003997802734375,0.593231201171875,0.80487060546875,-0.01483154296875,0.18310546875,-0.18310546875,-0.1220703125,-0.010009765625,-0.02587890625,-0.984130859375,144.0,48.0,93.0,101618.0,-2.440000057220459,0,0
415.100021,-0.003997802734375,0.593231201171875,0.80487060546875,-0.01483154296875,0.18310546875,-0.18310546875,-0.1220703125,-0.010009765625,-0.02587890625,-0.984130859375,144.0,48.0,93.0,101618.0,-2.440000057220459,0,0
415.104993,-0.003997802734375,0.593231201171875,0.80487060546875,-0.01483154296875,0.244140625,-0.48828125,-0.1220703125,-0.0108642578125,-0.02685546875,-0.984130859375,144.0,48.0,93.0,101618.0,-2.440000057220459,0,0
415.109993,-0.003997802734375,0.593231201171875,0.80487060546875,-0.01483154296875,0.30517578125,-0.1220703125,0.06103515625,-0.0091552734375,-0.029052734375,-0.9847412109375,144.0,48.0,93.0,101618.0,-2.440000057220459,0,0
415.114993,-0.003997802734375,0.593231201171875,0.80487060546875,-0.01483154296875,0.18310546875,-0.30517578125,0.1220703125,-0.0118408203125,-0.0269775390625,-0.9840087890625,144.0,48.0,93.0,101618.0,-2.440000057220459,0,0
415.119994,-0.003997802734375,0.593231201171875,0.80487060546875,-0.01483154296875,-0.06103515625,-0.30517578125,0.1220703125,-0.011474609375,-0.0263671875,-0.985107421875,144.0,48.0,93.0,101618.0,-2.440000057220459,0,0
415.124996,-0.003997802734375,0.593231201171875,0.80487060546875,-0.014801025390625,0.244140625,-0.42724609375,-0.48828125,-0.009521484375,-0.02587890625,-0.984375,144.0,48.0,93.0,101618.0,-2.440000057220459,0,0
415.139995,-0.003997802734375,0.593231201171875,0.80487060546875,-0.01483154296875,0.18310546875,-0.1220703125,0.0,-0.0126953125,-0.0283203125,-0.984375,144.0,48.0,93.0,101618.0,-2.440000057220459,0,0
415.144997,-0.003997802734375,0.593231201171875,0.80487060546875,-0.014801025390625,0.30517578125,-0.30517578125,0.0,-0.0091552734375,-0.028564453125,-0.9833984375,144.0,48.0,93.0,101618.0,-2.440000057220459,0,0
415.149996,-0.003997802734375,0.593231201171875,0.80487060546875,-0.01483154296875,0.30517578125,0.0,-0.244140625,-0.0126953125,-0.0289306640625,-0.98486328125,144.0,48.0,93.0,101618.0,-2.440000057220459,0,0
415.154994,-0.003997802734375,0.593231201171875,0.80487060546875,-0.01483154296875,0.30517578125,0.0,-0.244140625,-0.0126953125,-0.0289306640625,-0.98486328125,145.0,49.0,93.0,101618.0,-2.44100022315979,0,0
415.159994,-0.003997802734375,0.593231201171875,0.80487060546875,-0.01483154296875,0.0,-0.3662109375,-0.1220703125,-0.0107421875,-0.0284423828125,-0.984130859375,145.0,49.0,93.0,101618.0,-2.44100022315979,0,0
415.164994,-0.003997802734375,0.59283447265625,0.80517578125,-0.01483154296875,0.0,-0.244140625,-0.18310546875,-0.0101318359375,-0.0283203125,-0.983154296875,145.0,49.0,93.0,101618.0,-2.44100022315979,0,0
415.169026,-0.003997802734375,0.59283447265625,0.80517578125,-0.01483154296875,0.0,-0.244140625,-0.18310546875,-0.0101318359375,-0.0283203125,-0.983154296875,145.0,49.0,93.0,101618.0,-2.44100022315979,0,0
415.173994,-0.003997802734375,0.59283447265625,0.80517578125,-0.01483154296875,-0.42724609375,-0.91552734375,-0.1220703125,-0.01171875,-0.0311279296875,-0.983642578125,145.0,49.0,93.0,101618.0,-2.44100022315979,0,0
415.178996,-0.003997802734375,0.59283447265625,0.80517578125,-0.01483154296875,0.0,-0.48828125,-0.244140625,-0.01025390625,-0.0299072265625,-0.982421875,145.0,49.0,93.0,101618.0,-2.44100022315979,0,0
415.183994,-0.0040283203125,0.59283447265625,0.80517578125,-0.01483154296875,0.42724609375,-0.18310546875,-0.18310546875,-0.010009765625,-0.0274658203125,-0.9832763671875,145.0,49.0,93.0,101618.0,-2.44100022315979,0,0
415.188994,-0.003997802734375,0.59283447265625,0.80517578125,-0.01483154296875,0.18310546875,-0.18310546875,-0.1220703125,-0.0106201171875,-0.03076171875,-0.985107421875,145.0,49.0,93.0,101618.0,-2.44100022315979,0,0
415.223995,-0.0040283203125,0.59283447265625,0.80517578125,-0.01483154296875,-0.1220703125,-0.3662109375,-0.1220703125,-0.0118408203125,-0.0272216796875,-0.9832763671875,145.0,49.0,93.0,101618.0,-2.44100022315979,0,0
415.228993,-0.0040283203125,0.59283447265625,0.80517578125,-0.01483154296875,0.06103515625,-0.3662109375,-0.1220703125,-0.0115966796875,-0.0294189453125,-0.9842529296875,145.0,49.0,93.0,101618.0,-2.44100022315979,0,0
415.233021,-0.0040283203125,0.59283447265625,0.80517578125,-0.01483154296875,0.06103515625,-0.3662109375,-0.1220703125,-0.0115966796875,-0.0294189453125,-0.9842529296875,145.0,49.0,93.0,101618.0,-2.44100022315979,0,0
415.237993,-0.0040283203125,0.59283447265625,0.80517578125,-0.01483154296875,0.1220703125,-0.48828125,-0.1220703125,-0.007080078125,-0.0284423828125,-0.9835205078125,145.0,49.0,93.0,101618.0,-2.44100022315979,0,0
415.242993,-0.0040283203125,0.59283447265625,0.80517578125,-0.01483154296875,0.3662109375,-0.244140625,-0.42724609375,-0.0108642578125,-0.02685546875,-0.9835205078125,145.0,49.0,93.0,101618.0,-2.44100022315979,0,0
415.247994,-0.0040283203125,0.59283447265625,0.80517578125,-0.01483154296875,0.3662109375,-0.244140625,0.1220703125,-0.0111083984375,-0.0289306640625,-0.984375,145.0,49.0,93.0,101618.0,-2.44100022315979,0,0
415.262993,-0.003997802734375,0.5924072265625,0.805450439453125,-0.01483154296875,0.244140625,-0.30517578125,-0.18310546875,-0.010009765625,-0.026611328125,-0.9844970703125,145.0,50.0,92.0,101618.0,-2.440000057220459,0,0
415.267993,-0.0040283203125,0.5924072265625,0.805450439453125,-0.01483154296875,0.06103515625,-0.30517578125,-0.06103515625,-0.0096435546875,-0.029296875,-0.98486328125,145.0,50.0,92.0,101618.0,-2.440000057220459,0,0
415.272994,-0.003997802734375,0.5924072265625,0.805450439453125,-0.01483154296875,0.3662109375,0.0,-0.1220703125,-0.012451171875,-0.02734375,-0.9820556640625,145.0,50.0,92.0,101618.0,-2.440000057220459,0,0
415.277995,-0.003997802734375,0.5924072265625,0.805450439453125,-0.01483154296875,0.18310546875,-0.67138671875,-0.06103515625,-0.0101318359375,-0.02783203125,-0.9825439453125,145.0,50.0,92.0,101618.0,-2.440000057220459,0,0
415.282993,-0.003997802734375,0.5924072265625,0.805450439453125,-0.014801025390625,0.244140625,-0.30517578125,0.1220703125,-0.0108642578125,-0.0255126953125,-0.9837646484375,145.0,50.0,92.0,101618.0,-2.440000057220459,0,0
415.287993,-0.003997802734375,0.5924072265625,0.805450439453125,-0.014801025390625,0.06103515625,0.06103515625,0.0,-0.011474609375,-0.0277099609375,-0.9854736328125,145.0,50.0,92.0,101618.0,-2.440000057220459,0,0
415.292994,-0.003997802734375,0.5924072265625,0.805450439453125,-0.014801025390625,0.1220703125,-0.06103515625,-0.3662109375,-0.0101318359375,-0.0289306640625,-0.9833984375,145.0,50.0,92.0,101618.0,-2.440000057220459,0,0
415.297995,-0.003997802734375,0.5924072265625,0.805450439453125,-0.014801025390625,0.3662109375,-0.30517578125,-0.1220703125,-0.0108642578125,-0.025390625,-0.9833984375,145.0,50.0,92.0,101618.0,-2.440000057220459,0,0
415.30202,-0.003997802734375,0.5924072265625,0.805450439453125,-0.014801025390625,0.3662109375,-0.30517578125,-0.1220703125,-0.0108642578125,-0.025390625,-0.9833984375,145.0,50.0,92.0,101618.0,-2.440000057220459,0,0
415.306996,-0.00396728515625,0.5924072265625,0.80548095703125,-0.0147705078125,-0.9765625,-0.30517578125,-0.42724609375,-0.012451171875,-0.0284423828125,-0.982421875,145.0,50.0,92.0,101618.0,-2.440000057220459,0,0
415.311993,-0.00396728515625,0.5924072265625,0.80548095703125,-0.014801025390625,0.3662109375,-0.30517578125,-0.1220703125,-0.01171875,-0.0303955078125,-0.98388671875,145.0,50.0,92.0,101618.0,-2.440000057220459,0,0
415.326994,-0.00396728515625,0.5924072265625,0.80548095703125,-0.014801025390625,-0.06103515625,-0.30517578125,-0.1220703125,-0.01220703125,-0.029296875,-0.9832763671875,145.0,50.0,92.0,101618.0,-2.440000057220459,0,0
415.331995,-0.00396728515625,0.5924072265625,0.80548095703125,-0.014801025390625,0.1220703125,-0.30517578125,-0.06103515625,-0.009521484375,-0.0284423828125,-0.9830322265625,145.0,50.0,92.0,101618.0,-2.440000057220459,0,0
415.336994,-0.00396728515625,0.5924072265625,0.80548095703125,-0.014801025390625,0.18310546875,0.0,-0.30517578125,-0.0107421875,-0.02685546875,-0.9844970703125,145.0,50.0,92.0,101618.0,-2.440000057220459,0,0
415.341994,-0.00396728515625,0.5924072265625,0.80548095703125,-0.014801025390625,0.0,-0.42724609375,0.0,-0.0098876953125,-0.030029296875,-0.983642578125,145.0,50.0,92.0,101618.0,-2.440000057220459,0,0
415.346995,-0.003997802734375,0.5924072265625,0.80548095703125,-0.014801025390625,0.30517578125,-0.3662109375,-0.1220703125,-0.0096435546875,-0.0277099609375,-0.98388671875,145.0,50.0,92.0,101618.0,-2.440000057220459,0,0
415.351997,-0.003997802734375,0.5924072265625,0.80548095703125,-0.014801025390625,0.244140625,-0.18310546875,-0.1220703125,-0.010009765625,-0.0269775390625,-0.982666015625,145.0,50.0,92.0,101618.0,-2.440000057220459,0,0
415.356996,-0.003997802734375,0.5924072265625,0.80548095703125,-0.014801025390625,0.244140625,-0.18310546875,-0.1220703125,-0.010009765625,-0.0269775390625,-0.982666015625,145.0,49.0,92.0,101618.0,-2.44100022315979,0,0
415.361994,-0.00396728515625,0.592010498046875,0.805755615234375,-0.014801025390625,0.9765625,0.0,-0.30517578125,-0.0120849609375,-0.0277099609375,-0.9827880859375,145.0,49.0,92.0,101618.0,-2.44100022315979,0,0
415.366024,-0.00396728515625,0.592010498046875,0.805755615234375,-0.014801025390625,0.9765625,0.0,-0.30517578125,-0.0120849609375,-0.0277099609375,-0.9827880859375,145.0,49.0,92.0,101618.0,-2.44100022315979,0,0
415.370995,-0.00396728515625,0.592010498046875,0.805755615234375,-0.014801025390625,-0.06103515625,-0.1220703125,0.06103515625,-0.011474609375,-0.0281982421875,-0.9840087890625,145.0,49.0,92.0,101618.0,-2.44100022315979,0,0
415.375994,-0.00396728515625,0.592010498046875,0.805755615234375,-0.014801025390625,-0.18310546875,-0.3662109375,-0.244140625,-0.011474609375,-0.025390625,-0.984130859375,145.0,49.0,92.0,101618.0,-2.44100022315979,0,0
415.380994,-0.00396728515625,0.592010498046875,0.805755615234375,-0.014801025390625,-0.18310546875,-0.42724609375,0.06103515625,-0.011474609375,-0.0272216796875,-0.983642578125,145.0,49.0,92.0,101618.0,-2.44100022315979,0,0
415.385996,-0.00396728515625,0.592010498046875,0.805755615234375,-0.014801025390625,0.244140625,-0.18310546875,-0.1220703125,-0.010986328125,-0.029052734375,-0.98291015625,145.0,49.0,92.0,101618.0,-2.44100022315979,0,0
415.390994,-0.00396728515625,0.592010498046875,0.805755615234375,-0.014801025390625,0.06103515625,-0.18310546875,0.0,-0.01025390625,-0.027099609375,-0.9840087890625,145.0,49.0,92.0,101618.0,-2.44100022315979,0,0
415.395994,-0.00396728515625,0.592010498046875,0.805755615234375,-0.014801025390625,0.244140625,-0.18310546875,0.06103515625,-0.0111083984375,-0.0274658203125,-0.98193359375,145.0,49.0,92.0,101618.0,-2.44100022315979,0,0
415.400995,-0.00396728515625,0.592010498046875,0.805755615234375,-0.014801025390625,0.3662109375,-0.18310546875,-0.244140625,-0.0101318359375,-0.0283203125,-0.9833984375,145.0,49.0,92.0,101618.0,-2.44100022315979,0,0
415.405995,-0.00396728515625,0.592010498046875,0.805755615234375,-0.014801025390625,0.3662109375,-0.18310546875,-0.244140625,-0.0101318359375,-0.0283203125,-0.9833984375,145.0,49.0,92.0,101618.0,-2.44100022315979,0,0
415.410996,-0.00396728515625,0.592010498046875,0.805755615234375,-0.014801025390625,0.3662109375,-0.1220703125,-0.18310546875,-0.0115966796875,-0.02734375,-0.982666015625,145.0,49.0,92.0,101618.0,-2.44100022315979,0,0
415.415993,-0.00396728515625,0.592010498046875,0.805755615234375,-0.014801025390625,-0.06103515625,-0.244140625,-0.06103515625,-0.0091552734375,-0.02734375,-0.9835205078125,145.0,49.0,92.0,101618.0,-2.44100022315979,0,0
415.420993,-0.00396728515625,0.592010498046875,0.805755615234375,-0.014801025390625,0.48828125,-0.42724609375,0.06103515625,-0.0111083984375,-0.0279541015625,-0.9835205078125,145.0,49.0,92.0,101618.0,-2.44100022315979,0,0
415.425994,-0.00396728515625,0.592010498046875,0.805755615234375,-0.0147705078125,0.1220703125,-0.06103515625,-0.06103515625,-0.0120849609375,-0.0257568359375,-0.984375,145.0,49.0,92.0,101618.0,-2.44100022315979,0,0
415.430995,-0.00396728515625,0.592010498046875,0.805755615234375,-0.0147705078125,0.06103515625,-0.1220703125,-0.1220703125,-0.009765625,-0.0289306640625,-0.985107421875,145.0,49.0,92.0,101618.0,-2.44100022315979,0,0
415.435023,-0.00396728515625,0.592010498046875,0.805755615234375,-0.0147705078125,0.06103515625,-0.1220703125,-0.1220703125,-0.009765625,-0.0289306640625,-0.985107421875,145.0,49.0,92.0,101618.0,-2.44100022315979,0,0
415.449993,-0.003997802734375,0.592010498046875,0.805755615234375,-0.0147705078125,0.18310546875,-0.42724609375,0.0,-0.0107421875,-0.029296875,-0.98486328125,145.0,49.0,92.0,101618.0,-2.44100022315979,0,0
415.454994,-0.003997802734375,0.592010498046875,0.805755615234375,-0.0147705078125,0.0,-0.30517578125,-0.06103515625,-0.01123046875,-0.0274658203125,-0.9833984375,146.0,47.0,92.0,101618.0,-2.440000057220459,0,0
415.459995,-0.003997802734375,0.592010498046875,0.805755615234375,-0.0147705078125,0.0,-0.30517578125,-0.18310546875,-0.00830078125,-0.02783203125,-0.98388671875,146.0,47.0,92.0,101618.0,-2.440000057220459,0,0
415.464996,-0.003997802734375,0.591888427734375,0.80584716796875,-0.0147705078125,0.42724609375,-0.1220703125,-0.18310546875,-0.009033203125,-0.0281982421875,-0.9853515625,146.0,47.0,92.0,101618.0,-2.440000057220459,0,0
415.469993,-0.003997802734375,0.591888427734375,0.80584716796875,-0.0147705078125,-0.06103515625,-0.244140625,0.0,-0.0108642578125,-0.0269775390625,-0.9869384765625,146.0,47.0,92.0,101618.0,-2.440000057220459,0,0
415.474993,-0.003997802734375,0.591888427734375,0.80584716796875,-0.0147705078125,0.30517578125,-0.30517578125,-0.06103515625,-0.012451171875,-0.0269775390625,-0.9840087890625,146.0,47.0,92.0,101618.0,-2.440000057220459,0,0
415.479994,-0.003997802734375,0.591888427734375,0.80584716796875,-0.0147705078125,0.42724609375,-0.48828125,0.0,-0.0093994140625,-0.0279541015625,-0.9853515625,146.0,47.0,92.0,101618.0,-2.440000057220459,0,0
415.484995,-0.00396728515625,0.591888427734375,0.80584716796875,-0.0147705078125,0.0,-0.244140625,0.1220703125,-0.011962890625,-0.0284423828125,-0.982177734375,146.0,47.0,92.0,101618.0,-2.440000057220459,0,0
415.489993,-0.00396728515625,0.591888427734375,0.80584716796875,-0.0147705078125,0.9765625,0.0,-0.30517578125,-0.012451171875,-0.026611328125,-0.98486328125,146.0,47.0,92.0,101618.0,-2.440000057220459,0,0
415.494993,-0.00396728515625,0.591888427734375,0.80584716796875,-0.0147705078125,-0.1220703125,-0.18310546875,-0.244140625,-0.011962890625,-0.02734375,-0.9832763671875,146.0,47.0,92.0,101618.0,-2.440000057220459,0,0
415.499022,-0.00396728515625,0.591888427734375,0.80584716796875,-0.0147705078125,-0.1220703125,-0.18310546875,-0.244140625,-0.011962890625,-0.02734375,-0.9832763671875,146.0,47.0,92.0,101618.0,-2.440000057220459,0,0
415.513995,-0.00396728515625,0.591888427734375,0.80584716796875,-0.0147705078125,0.1220703125,-0.1220703125,-0.1220703125,-0.0115966796875,-0.0272216796875,-0.985107421875,146.0,47.0,92.0,101618.0,-2.440000057220459,0,0
415.518996,-0.00396728515625,0.591888427734375,0.80584716796875,-0.0147705078125,-0.244140625,-0.42724609375,-0.3662109375,-0.011474609375,-0.028076171875,-0.9844970703125,146.0,47.0,92.0,101618.0,-2.440000057220459,0,0
415.523993,-0.00396728515625,0.591888427734375,0.80584716796875,-0.0147705078125,0.18310546875,-0.06103515625,-0.06103515625,-0.009033203125,-0.0272216796875,-0.98388671875,146.0,47.0,92.0,101618.0,-2.440000057220459,0,0
415.528993,-0.00396728515625,0.591888427734375,0.80584716796875,-0.0147705078125,0.1220703125,-0.1220703125,-0.18310546875,-0.0101318359375,-0.0274658203125,-0.984619140625,146.0,47.0,92.0,101618.0,-2.440000057220459,0,0
415.533994,-0.00396728515625,0.591888427734375,0.80584716796875,-0.0147705078125,0.18310546875,-0.48828125,-0.06103515625,-0.009765625,-0.029052734375,-0.9842529296875,146.0,47.0,92.0,101618.0,-2.440000057220459,0,0
415.538995,-0.00396728515625,0.591888427734375,0.80584716796875,-0.0147705078125,0.30517578125,0.06103515625,-0.1220703125,-0.00927734375,-0.027099609375,-0.9832763671875,146.0,47.0,92.0,101618.0,-2.440000057220459,0,0
415.543993,-0.00396728515625,0.591888427734375,0.80584716796875,-0.0147705078125,0.18310546875,-0.1220703125,-0.1220703125,-0.0120849609375,-0.0264892578125,-0.985595703125,146.0,47.0,92.0,101618.0,-2.440000057220459,0,0
415.548994,-0.00396728515625,0.591888427734375,0.80584716796875,-0.0147705078125,0.0,-0.1220703125,-0.1220703125,-0.010498046875,-0.028076171875,-0.9840087890625,146.0,47.0,92.0,101618.0,-2.440000057220459,0,0
415.553995,-0.00396728515625,0.591888427734375,0.80584716796875,-0.0147705078125,0.0,-0.48828125,0.0,-0.010009765625,-0.029296875,-0.9822998046875,146.0,47.0,92.0,101618.0,-2.440000057220459,0,0
415.558997,-0.00396728515625,0.591888427734375,0.80584716796875,-0.0147705078125,0.244140625,-0.30517578125,-0.244140625,-0.0113525390625,-0.0264892578125,-0.9842529296875,146.0,48.0,92.0,101618.0,-2.440000057220459,0,0
415.563996,-0.00396728515625,0.59161376953125,0.806060791015625,-0.0147705078125,0.18310546875,-0.3662109375,-0.18310546875,-0.0118408203125,-0.02685546875,-0.985107421875,146.0,48.0,92.0,101618.0,-2.440000057220459,0,0
415.568023,-0.00396728515625,0.59161376953125,0.806060791015625,-0.0147705078125,0.18310546875,-0.3662109375,-0.18310546875,-0.0118408203125,-0.02685546875,-0.985107421875,146.0,48.0,92.0,101618.0,-2.440000057220459,0,0
415.572997,-0.003936767578125,0.59161376953125,0.806060791015625,-0.014739990234375,0.18310546875,-0.42724609375,0.18310546875,-0.0113525390625,-0.02783203125,-0.9854736328125,146.0,48.0,92.0,101618.0,-2.440000057220459,0,0
415.577994,-0.00396728515625,0.59161376953125,0.806060791015625,-0.014739990234375,0.3662109375,-0.3662109375,-0.1220703125,-0.00927734375,-0.02685546875,-0.9853515625,146.0,48.0,92.0,101618.0,-2.440000057220459,0,0
415.582994,-0.003936767578125,0.59161376953125,0.806060791015625,-0.014739990234375,-0.1220703125,-0.3662109375,0.0,-0.0107421875,-0.026123046875,-0.9842529296875,146.0,48.0,92.0,101618.0,-2.440000057220459,0,0
415.587994,-0.003936767578125,0.59161376953125,0.806060791015625,-0.014739990234375,0.0,-0.54931640625,-0.1220703125,-0.0093994140625,-0.0263671875,-0.98388671875,146.0,48.0,92.0,101618.0,-2.440000057220459,0,0
415.592996,-0.003936767578125,0.59161376953125,0.806060791015625,-0.014739990234375,0.0,-0.244140625,-0.244140625,-0.0106201171875,-0.0252685546875,-0.9837646484375,146.0,48.0,92.0,101618.0,-2.440000057220459,0,0
415.597994,-0.003936767578125,0.59161376953125,0.806060791015625,-0.01470947265625,0.18310546875,-0.42724609375,-0.1220703125,-0.01123046875,-0.02490234375,-0.984619140625,146.0,48.0,92.0,101618.0,-2.440000057220459,0,0
415.602994,-0.003936767578125,0.59161376953125,0.806060791015625,-0.01470947265625,0.244140625,-0.06103515625,0.06103515625,-0.0118408203125,-0.026123046875,-0.9842529296875,146.0,48.0,92.0,101618.0,-2.440000057220459,0,0
415.607995,-0.003936767578125,0.59161376953125,0.806060791015625,-0.01470947265625,0.30517578125,-0.1220703125,-0.1220703125,-0.010986328125,-0.0272216796875,-0.983642578125,146.0,48.0,92.0,101618.0,-2.440000057220459,0,0
415.612997,-0.003936767578125,0.59161376953125,0.806060791015625,-0.01470947265625,0.244140625,-0.1220703125,-0.54931640625,-0.0107421875,-0.0284423828125,-0.983642578125,146.0,48.0,92.0,101618.0,-2.440000057220459,0,0
415.617993,-0.003936767578125,0.59161376953125,0.806060791015625,-0.01470947265625,0.18310546875,-0.244140625,-0.06103515625,-0.0098876953125,-0.0284423828125,-0.98291015625,146.0,48.0,92.0,101618.0,-2.440000057220459,0,0
415.622993,-0.003936767578125,0.59161376953125,0.806060791015625,-0.01470947265625,0.06103515625,-0.1220703125,0.06103515625,-0.010498046875,-0.026611328125,-0.9830322265625,146.0,48.0,92.0,101618.0,-2.440000057220459,0,0
415.636993,-0.003936767578125,0.59161376953125,0.806060791015625,-0.01470947265625,0.244140625,-0.18310546875,0.06103515625,-0.0096435546875,-0.0277099609375,-0.981689453125,146.0,48.0,92.0,101618.0,-2.440000057220459,0,0
415.641994,-0.003936767578125,0.59161376953125,0.806060791015625,-0.01470947265625,0.3662109375,-0.30517578125,0.06103515625,-0.01171875,-0.0272216796875,-0.983642578125,146.0,48.0,92.0,101618.0,-2.440000057220459,0,0
415.661994,-0.00396728515625,0.59173583984375,0.805938720703125,-0.01470947265625,-0.1220703125,-0.30517578125,-0.06103515625,-0.009033203125,-0.029052734375,-0.9852294921875,146.0,46.0,92.0,101618.0,-2.440000057220459,0,0
415.666995,-0.00396728515625,0.59173583984375,0.805938720703125,-0.01470947265625,0.0,-0.3662109375,-0.244140625,-0.01123046875,-0.0264892578125,-0.984375,146.0,46.0,92.0,101618.0,-2.440000057220459,0,0
415.671993,-0.00396728515625,0.59173583984375,0.805938720703125,-0.01470947265625,0.0,-0.18310546875,-0.244140625,-0.01025390625,-0.02880859375,-0.9853515625,146.0,46.0,92.0,101618.0,-2.440000057220459,0,0
415.676993,-0.003936767578125,0.59173583984375,0.805938720703125,-0.01470947265625,0.42724609375,-0.244140625,-0.1220703125,-0.0108642578125,-0.0267333984375,-0.98486328125,146.0,46.0,92.0,101618.0,-2.440000057220459,0,0
415.681993,-0.00396728515625,0.59173583984375,0.805938720703125,-0.01470947265625,-0.48828125,-0.3662109375,-0.06103515625,-0.0078125,-0.0269775390625,-0.9849853515625,146.0,46.0,92.0,101618.0,-2.440000057220459,0,0
