Time stamp(sec),adc1,adc2,roll_angular_rate,pitch_angular_rate,yaw_angular_rate,acc_X,acc_Y,acc_Z,mag_X,mag_Y,mag_Z,pressure,altitude
0.047289900001487695,0.370880126953125,-0.45098876953125,0.31158447265625,-0.749603271484375,-0.06103515625,-0.1220703125,-0.18310546875,0.441162109375,-0.800537109375,0.4027099609375,-297.0,148.0,-148.0,101700.0,-3.123000144958496,0,0
0.047365599995828234,0.37091064453125,-0.450958251953125,0.31158447265625,-0.749603271484375,-0.06103515625,0.0,-0.06103515625,0.4449462890625,-0.805908203125,0.402099609375,-297.0,148.0,-148.0,101700.0,-3.123000144958496,0,0
0.047422999996342696,0.370880126953125,-0.450958251953125,0.31158447265625,-0.749603271484375,0.06103515625,-0.30517578125,-0.6103515625,0.44580078125,-0.8037109375,0.397216796875,-297.0,148.0,-148.0,101700.0,-3.123000144958496,0,0
0.04747950000455603,0.370880126953125,-0.45098876953125,0.31158447265625,-0.749603271484375,0.244140625,-0.18310546875,-0.54931640625,0.4453125,-0.8016357421875,0.394775390625,-297.0,148.0,-148.0,101700.0,-3.123000144958496,0,0
0.0475354999944102,0.370880126953125,-0.45098876953125,0.31158447265625,-0.749603271484375,0.30517578125,-0.30517578125,-0.54931640625,0.4476318359375,-0.8033447265625,0.3966064453125,-297.0,148.0,-148.0,101700.0,-3.123000144958496,0,0
0.04765340000449214,0.370880126953125,-0.45098876953125,0.31158447265625,-0.749603271484375,0.18310546875,-0.06103515625,-0.18310546875,0.4490966796875,-0.802490234375,0.400146484375,-297.0,148.0,-148.0,101700.0,-3.123000144958496,0,0
0.0477145000040764,0.370880126953125,-0.45098876953125,0.311553955078125,-0.749603271484375,0.244140625,-0.1220703125,0.0,0.447021484375,-0.7998046875,0.4019775390625,-297.0,148.0,-148.0,101700.0,-3.123000144958496,0,0
0.04777059999469202,0.370880126953125,-0.45098876953125,0.311553955078125,-0.7496337890625,0.244140625,-0.1220703125,0.0,0.447021484375,-0.7998046875,0.4019775390625,-297.0,148.0,-148.0,101700.0,-3.123000144958496,0,0
0.04782510000222828,0.370880126953125,-0.45098876953125,0.311553955078125,-0.7496337890625,0.244140625,-0.1220703125,0.0,0.447021484375,-0.7998046875,0.4019775390625,-297.0,148.0,-148.0,101700.0,-3.123000144958496,0,0
0.04787900000519585,0.370880126953125,-0.45098876953125,0.311553955078125,-0.7496337890625,-0.54931640625,-0.06103515625,0.06103515625,0.4449462890625,-0.79931640625,0.4031982421875,-297.0,148.0,-148.0,101700.0,-3.123000144958496,0,0
0.04793220000283327,0.370880126953125,-0.45098876953125,0.311553955078125,-0.7496337890625,-0.30517578125,-0.06103515625,0.30517578125,0.4456787109375,-0.8006591796875,0.3995361328125,-297.0,148.0,-148.0,101700.0,-3.123000144958496,0,0
0.11148920000414364,0.370880126953125,-0.450958251953125,0.311553955078125,-0.7496337890625,-0.06103515625,-0.18310546875,0.3662109375,0.443603515625,-0.803955078125,0.3995361328125,-297.0,148.0,-148.0,101700.0,-3.123000144958496,0,0
0.11155250000592787,0.370880126953125,-0.45098876953125,0.311553955078125,-0.7496337890625,0.06103515625,-0.06103515625,0.06103515625,0.44384765625,-0.80224609375,0.400390625,-297.0,148.0,-148.0,101700.0,-3.123000144958496,0,0
0.11160999999265186,0.370880126953125,-0.450958251953125,0.311553955078125,-0.7496337890625,0.18310546875,-0.18310546875,0.244140625,0.4473876953125,-0.801025390625,0.3992919921875,-297.0,148.0,-148.0,101700.0,-3.123000144958496,0,0
0.11166349999257363,0.37091064453125,-0.450958251953125,0.311553955078125,-0.7496337890625,0.18310546875,0.1220703125,-0.06103515625,0.442626953125,-0.802490234375,0.4036865234375,-297.0,148.0,-148.0,101700.0,-3.123000144958496,0,0
0.11171789999934845,0.37091064453125,-0.450927734375,0.311553955078125,-0.7496337890625,0.0,-0.1220703125,0.18310546875,0.4437255859375,-0.8021240234375,0.4027099609375,-297.0,148.0,-148.0,101700.0,-3.123000144958496,0,0
0.11177259999385569,0.37091064453125,-0.450927734375,0.311553955078125,-0.749664306640625,0.0,0.06103515625,-0.30517578125,0.4444580078125,-0.801513671875,0.4017333984375,-297.0,148.0,-148.0,101700.0,-3.123000144958496,0,0
0.1121833999932278,0.37091064453125,-0.450927734375,0.311553955078125,-0.749664306640625,0.0,0.06103515625,-0.30517578125,0.4444580078125,-0.801513671875,0.4017333984375,-297.0,148.0,-148.0,101700.0,-3.123000144958496,0,0
0.11228400000254624,0.37091064453125,-0.450927734375,0.311553955078125,-0.749664306640625,0.244140625,-0.06103515625,-0.18310546875,0.4449462890625,-0.8018798828125,0.4014892578125,-298.0,147.0,-149.0,101700.0,-3.123000144958496,0,0
0.11233780000475235,0.37091064453125,-0.450897216796875,0.3115234375,-0.749664306640625,0.30517578125,-0.3662109375,-0.42724609375,0.4434814453125,-0.8006591796875,0.40234375,-298.0,147.0,-149.0,101700.0,-3.123000144958496,0,0
0.11239340000611264,0.37091064453125,-0.450897216796875,0.3115234375,-0.749664306640625,0.06103515625,-0.30517578125,-0.30517578125,0.445556640625,-0.8001708984375,0.4005126953125,-298.0,147.0,-149.0,101700.0,-3.123000144958496,0,0
0.11244670000451151,0.37091064453125,-0.450897216796875,0.3115234375,-0.749664306640625,0.54931640625,-0.1220703125,-0.1220703125,0.4476318359375,-0.8048095703125,0.4002685546875,-298.0,147.0,-149.0,101700.0,-3.123000144958496,0,0
0.11249959999986459,0.37091064453125,-0.450927734375,0.3115234375,-0.749664306640625,0.244140625,-0.06103515625,0.06103515625,0.447021484375,-0.8045654296875,0.399169921875,-298.0,147.0,-149.0,101700.0,-3.123000144958496,0,0
0.11255109999910928,0.37091064453125,-0.450927734375,0.3115234375,-0.749664306640625,0.1220703125,-0.18310546875,0.18310546875,0.4481201171875,-0.8043212890625,0.40087890625,-298.0,147.0,-149.0,101700.0,-3.123000144958496,0,0
0.1804649999976391,0.37091064453125,-0.450897216796875,0.3115234375,-0.749664306640625,0.0,-0.1220703125,-0.1220703125,0.443603515625,-0.7998046875,0.400634765625,-298.0,147.0,-149.0,101700.0,-3.123000144958496,0,0
0.18053159999544732,0.37091064453125,-0.450897216796875,0.3115234375,-0.749664306640625,0.0,-0.1220703125,-0.1220703125,0.443603515625,-0.7998046875,0.400634765625,-298.0,147.0,-149.0,101700.0,-3.123000144958496,0,0
0.1805887999944389,0.37091064453125,-0.450897216796875,0.3115234375,-0.749664306640625,-0.1220703125,-0.1220703125,0.0,0.4447021484375,-0.80078125,0.399658203125,-298.0,147.0,-149.0,101700.0,-3.123000144958496,0,0
0.18064289999892935,0.37091064453125,-0.450897216796875,0.3115234375,-0.749664306640625,0.1220703125,0.0,-0.18310546875,0.4459228515625,-0.8016357421875,0.3990478515625,-298.0,147.0,-149.0,101700.0,-3.123000144958496,0,0
0.18069680000189692,0.37091064453125,-0.450897216796875,0.3115234375,-0.749664306640625,0.244140625,0.18310546875,0.06103515625,0.4442138671875,-0.8023681640625,0.39892578125,-298.0,147.0,-149.0,101700.0,-3.123000144958496,0,0
0.18244289999711327,0.37091064453125,-0.450897216796875,0.3115234375,-0.749664306640625,0.06103515625,-0.06103515625,0.0,0.44677734375,-0.8018798828125,0.4007568359375,-298.0,147.0,-149.0,101700.0,-3.123000144958496,0,0
0.1824992000038037,0.37091064453125,-0.450897216796875,0.3115234375,-0.749664306640625,0.3662109375,0.0,-0.1220703125,0.4462890625,-0.8016357421875,0.40234375,-298.0,147.0,-149.0,101700.0,-3.123000144958496,0,0
0.1825537999975495,0.37091064453125,-0.450897216796875,0.311492919921875,-0.74969482421875,-0.6103515625,0.06103515625,0.06103515625,0.444580078125,-0.8016357421875,0.4031982421875,-298.0,147.0,-149.0,101700.0,-3.123000144958496,0,0
0.18260640000517014,0.37091064453125,-0.45086669921875,0.311492919921875,-0.74969482421875,-0.48828125,-0.48828125,0.1220703125,0.4437255859375,-0.801513671875,0.40283203125,-298.0,147.0,-149.0,101700.0,-3.123000144958496,0,0
0.1826601000066148,0.37091064453125,-0.45086669921875,0.311492919921875,-0.74969482421875,-0.06103515625,-0.18310546875,0.0,0.4456787109375,-0.8006591796875,0.4000244140625,-298.0,147.0,-149.0,101700.0,-3.123000144958496,0,0
0.182713899994269,0.37091064453125,-0.45086669921875,0.311492919921875,-0.74969482421875,-0.06103515625,-0.18310546875,0.0,0.4456787109375,-0.8006591796875,0.4000244140625,-298.0,147.0,-149.0,101700.0,-3.123000144958496,0,0
0.2462632999959169,0.37091064453125,-0.45086669921875,0.311492919921875,-0.74969482421875,-0.1220703125,-0.1220703125,0.0,0.44580078125,-0.802734375,0.39892578125,-298.0,147.0,-149.0,101700.0,-3.123000144958496,0,0
0.24633059999905527,0.37091064453125,-0.45086669921875,0.311492919921875,-0.74969482421875,0.3662109375,-0.18310546875,-0.06103515625,0.4464111328125,-0.80322265625,0.3997802734375,-298.0,147.0,-149.0,101700.0,-3.123000144958496,0,0
0.24639129999559373,0.37091064453125,-0.45086669921875,0.311492919921875,-0.74969482421875,0.1220703125,0.06103515625,-0.06103515625,0.4464111328125,-0.802978515625,0.400634765625,-298.0,147.0,-149.0,101700.0,-3.123000144958496,0,0
0.24644800000532996,0.37091064453125,-0.45086669921875,0.311492919921875,-0.74969482421875,0.06103515625,0.0,-0.06103515625,0.44384765625,-0.8017578125,0.4007568359375,-298.0,147.0,-149.0,101700.0,-3.123000144958496,0,0
0.246503100002883,0.37091064453125,-0.45086669921875,0.311492919921875,-0.74969482421875,-0.06103515625,-0.06103515625,-0.06103515625,0.443359375,-0.798095703125,0.4019775390625,-298.0,147.0,-149.0,101700.0,-3.123000144958496,0,0
0.2481958999997005,0.37091064453125,-0.45086669921875,0.31146240234375,-0.74969482421875,-0.06103515625,-0.244140625,0.06103515625,0.4459228515625,-0.80322265625,0.401123046875,-298.0,147.0,-149.0,101700.0,-3.123000144958496,0,0
0.24825839999539312,0.37091064453125,-0.45086669921875,0.31146240234375,-0.74969482421875,-0.18310546875,-0.1220703125,-0.06103515625,0.447265625,-0.802490234375,0.3988037109375,-298.0,147.0,-149.0,101700.0,-3.123000144958496,0,0
0.24831429999903776,0.37091064453125,-0.45086669921875,0.31146240234375,-0.74969482421875,-0.18310546875,-0.1220703125,-0.06103515625,0.447265625,-0.802490234375,0.3988037109375,-298.0,147.0,-149.0,101700.0,-3.123000144958496,0,0
0.24836769999819808,0.37091064453125,-0.45086669921875,0.31146240234375,-0.74969482421875,0.0,-0.18310546875,0.48828125,0.4453125,-0.8016357421875,0.397216796875,-298.0,147.0,-149.0,101700.0,-3.123000144958496,0,0
0.24842139999964274,0.37091064453125,-0.45086669921875,0.31146240234375,-0.74969482421875,-0.06103515625,0.244140625,0.18310546875,0.4471435546875,-0.8017578125,0.3975830078125,-298.0,147.0,-149.0,101700.0,-3.123000144958496,0,0
0.24847479999880306,0.37091064453125,-0.45086669921875,0.31146240234375,-0.74969482421875,-0.06103515625,-0.244140625,0.244140625,0.4444580078125,-0.7999267578125,0.402099609375,-298.0,147.0,-149.0,101700.0,-3.123000144958496,0,0
0.31332950000069104,0.37091064453125,-0.45086669921875,0.31146240234375,-0.74969482421875,0.0,-0.30517578125,0.1220703125,0.445556640625,-0.8009033203125,0.3975830078125,-298.0,147.0,-149.0,101700.0,-3.123000144958496,0,0
0.31340080000518356,0.37091064453125,-0.45086669921875,0.31146240234375,-0.749725341796875,0.42724609375,0.06103515625,-0.18310546875,0.4453125,-0.8016357421875,0.3975830078125,-298.0,147.0,-149.0,101700.0,-3.123000144958496,0,0
0.31345909999799915,0.37091064453125,-0.45086669921875,0.31146240234375,-0.749725341796875,0.0,0.0,0.06103515625,0.446533203125,-0.799560546875,0.400634765625,-298.0,147.0,-149.0,101700.0,-3.123000144958496,0,0
0.31351310000172816,0.37091064453125,-0.45086669921875,0.31146240234375,-0.749725341796875,-0.06103515625,-0.18310546875,0.06103515625,0.4429931640625,-0.8006591796875,0.4005126953125,-298.0,147.0,-149.0,101700.0,-3.123000144958496,0,0
0.3135672000062186,0.37091064453125,-0.45086669921875,0.31146240234375,-0.749725341796875,-0.1220703125,0.0,0.06103515625,0.4468994140625,-0.8031005859375,0.4005126953125,-298.0,147.0,-149.0,101700.0,-3.123000144958496,0,0
0.31361939999624155,0.37091064453125,-0.45086669921875,0.31146240234375,-0.749725341796875,-0.1220703125,0.0,0.06103515625,0.4468994140625,-0.8031005859375,0.4005126953125,-298.0,147.0,-149.0,101700.0,-3.123000144958496,0,0
0.31368530000327155,0.37091064453125,-0.45086669921875,0.31146240234375,-0.749725341796875,0.244140625,0.1220703125,0.18310546875,0.4466552734375,-0.804931640625,0.40283203125,-298.0,147.0,-149.0,101700.0,-3.123000144958496,0,0
0.3137381999986246,0.37091064453125,-0.45086669921875,0.31146240234375,-0.749725341796875,-0.06103515625,0.06103515625,0.30517578125,0.447021484375,-0.805419921875,0.401611328125,-298.0,147.0,-149.0,101700.0,-3.123000144958496,0,0
0.3137916999985464,0.370941162109375,-0.45086669921875,0.31146240234375,-0.749725341796875,-0.244140625,-0.1220703125,-0.1220703125,0.4434814453125,-0.8050537109375,0.4019775390625,-298.0,147.0,-149.0,101700.0,-3.123000144958496,0,0
0.31384390000312123,0.370941162109375,-0.450836181640625,0.31146240234375,-0.749725341796875,-0.30517578125,-0.244140625,0.06103515625,0.44482421875,-0.8038330078125,0.4012451171875,-296.0,148.0,-148.0,101700.0,-3.123000144958496,0,0
0.31389520000084303,0.370941162109375,-0.450836181640625,0.31146240234375,-0.749725341796875,-0.30517578125,-0.244140625,-0.30517578125,0.443359375,-0.80224609375,0.4007568359375,-296.0,148.0,-148.0,101700.0,-3.123000144958496,0,0
0.313948299997719,0.370941162109375,-0.450836181640625,0.31146240234375,-0.749725341796875,0.06103515625,0.0,-0.67138671875,0.44189453125,-0.8001708984375,0.400390625,-296.0,148.0,-148.0,101700.0,-3.123000144958496,0,0
0.3140002000000095,0.370941162109375,-0.450836181640625,0.311492919921875,-0.749725341796875,0.30517578125,-0.244140625,-0.91552734375,0.443115234375,-0.80078125,0.396484375,-296.0,148.0,-148.0,101700.0,-3.123000144958496,0,0
0.3925896000000648,0.370941162109375,-0.450836181640625,0.31146240234375,-0.749725341796875,0.06103515625,-0.18310546875,-0.48828125,0.446044921875,-0.796142578125,0.398193359375,-296.0,148.0,-148.0,101700.0,-3.123000144958496,0,0
0.3926608000037959,0.37091064453125,-0.45086669921875,0.31146240234375,-0.749725341796875,0.18310546875,0.0,-0.06103515625,0.445068359375,-0.798583984375,0.3990478515625,-296.0,148.0,-148.0,101700.0,-3.123000144958496,0,0
0.3927193999988958,0.37091064453125,-0.45086669921875,0.31146240234375,-0.749725341796875,0.06103515625,0.244140625,0.18310546875,0.44677734375,-0.8001708984375,0.3980712890625,-296.0,148.0,-148.0,101700.0,-3.123000144958496,0,0
0.3927754000033019,0.37091064453125,-0.45086669921875,0.31146240234375,-0.749725341796875,0.1220703125,0.244140625,0.54931640625,0.44580078125,-0.7996826171875,0.3995361328125,-296.0,148.0,-148.0,101700.0,-3.123000144958496,0,0
0.3928295999940019,0.37091064453125,-0.45086669921875,0.31146240234375,-0.749725341796875,0.0,0.42724609375,0.6103515625,0.4505615234375,-0.8035888671875,0.3984375,-296.0,148.0,-148.0,101700.0,-3.122000217437744,0,0
0.39290449999680277,0.37091064453125,-0.45086669921875,0.31146240234375,-0.749725341796875,-0.3662109375,0.244140625,0.6103515625,0.4451904296875,-0.8023681640625,0.3992919921875,-296.0,148.0,-148.0,101700.0,-3.122000217437744,0,0
0.39296230000036303,0.37091064453125,-0.45086669921875,0.31146240234375,-0.749725341796875,-0.30517578125,0.18310546875,0.1220703125,0.4417724609375,-0.8018798828125,0.399169921875,-296.0,148.0,-148.0,101700.0,-3.122000217437744,0,0
0.39301939999859314,0.37091064453125,-0.45086669921875,0.31146240234375,-0.749725341796875,0.0,-0.244140625,0.06103515625,0.442626953125,-0.8045654296875,0.3984375,-296.0,148.0,-148.0,101700.0,-3.122000217437744,0,0
0.39307750000443775,0.37091064453125,-0.45086669921875,0.31146240234375,-0.749725341796875,0.18310546875,-0.06103515625,-0.3662109375,0.4456787109375,-0.8038330078125,0.39990234375,-296.0,148.0,-148.0,101700.0,-3.122000217437744,0,0
0.39313310000579804,0.37091064453125,-0.45086669921875,0.31146240234375,-0.749725341796875,0.18310546875,-0.06103515625,-0.3662109375,0.4456787109375,-0.8038330078125,0.39990234375,-296.0,148.0,-148.0,101700.0,-3.122000217437744,0,0
0.3931878000003053,0.37091064453125,-0.45086669921875,0.31146240234375,-0.749725341796875,0.30517578125,-0.1220703125,-0.3662109375,0.4483642578125,-0.806396484375,0.3990478515625,-296.0,148.0,-148.0,101700.0,-3.122000217437744,0,0
0.4320413999957964,0.37091064453125,-0.45086669921875,0.31146240234375,-0.749725341796875,-0.18310546875,-0.1220703125,0.06103515625,0.44384765625,-0.7978515625,0.4012451171875,-296.0,148.0,-148.0,101700.0,-3.122000217437744,0,0
0.4321105999988504,0.37091064453125,-0.45086669921875,0.31146240234375,-0.749725341796875,-0.18310546875,-0.1220703125,0.06103515625,0.44384765625,-0.7978515625,0.4012451171875,-296.0,148.0,-149.0,101700.0,-3.122000217437744,0,0
0.4321706000046106,0.37091064453125,-0.45086669921875,0.31146240234375,-0.749725341796875,-0.30517578125,-0.06103515625,-0.1220703125,0.4471435546875,-0.8023681640625,0.398681640625,-296.0,148.0,-149.0,101700.0,-3.122000217437744,0,0
0.4322266999952262,0.37091064453125,-0.45086669921875,0.31146240234375,-0.749725341796875,0.42724609375,0.244140625,-0.18310546875,0.4483642578125,-0.80224609375,0.393798828125,-296.0,148.0,-149.0,101700.0,-3.122000217437744,0,0
0.4344418999971822,0.37091064453125,-0.45086669921875,0.31146240234375,-0.749725341796875,0.30517578125,-0.18310546875,0.1220703125,0.44580078125,-0.8057861328125,0.400390625,-296.0,148.0,-149.0,101700.0,-3.122000217437744,0,0
0.4368070000055013,0.37091064453125,-0.45086669921875,0.31146240234375,-0.749725341796875,0.18310546875,0.18310546875,0.54931640625,0.444091796875,-0.805908203125,0.3955078125,-296.0,148.0,-149.0,101700.0,-3.122000217437744,0,0
0.4368691999989096,0.37091064453125,-0.45086669921875,0.31146240234375,-0.749725341796875,0.18310546875,0.18310546875,0.54931640625,0.444091796875,-0.805908203125,0.3955078125,-296.0,148.0,-149.0,101700.0,-3.122000217437744,0,0
0.4369250000017928,0.37091064453125,-0.45086669921875,0.31146240234375,-0.74969482421875,0.732421875,0.244140625,0.244140625,0.4454345703125,-0.8035888671875,0.3975830078125,-296.0,148.0,-149.0,101700.0,-3.122000217437744,0,0
0.43698030000086874,0.37091064453125,-0.45086669921875,0.31146240234375,-0.74969482421875,0.42724609375,0.1220703125,0.0,0.4449462890625,-0.802001953125,0.402099609375,-296.0,148.0,-149.0,101700.0,-3.122000217437744,0,0
0.437038100004429,0.37091064453125,-0.45086669921875,0.311492919921875,-0.74969482421875,0.30517578125,0.06103515625,-0.1220703125,0.4423828125,-0.802001953125,0.3970947265625,-296.0,148.0,-149.0,101700.0,-3.122000217437744,0,0
0.43709140000282787,0.37091064453125,-0.45086669921875,0.311492919921875,-0.74969482421875,0.0,-0.06103515625,-0.54931640625,0.4442138671875,-0.8038330078125,0.39599609375,-296.0,148.0,-149.0,101700.0,-3.122000217437744,0,0
0.5038035000034142,0.37091064453125,-0.45086669921875,0.311492919921875,-0.74969482421875,-0.06103515625,-0.244140625,-0.54931640625,0.4425048828125,-0.8021240234375,0.39892578125,-296.0,148.0,-149.0,101700.0,-3.123000144958496,0,0
0.5038697999989381,0.37091064453125,-0.45086669921875,0.311492919921875,-0.74969482421875,0.0,-0.1220703125,-0.67138671875,0.44580078125,-0.8017578125,0.397216796875,-296.0,148.0,-149.0,101700.0,-3.123000144958496,0,0
0.5039278000040213,0.37091064453125,-0.450897216796875,0.311492919921875,-0.74969482421875,0.18310546875,0.0,-0.18310546875,0.446533203125,-0.8013916015625,0.3968505859375,-296.0,148.0,-149.0,101700.0,-3.123000144958496,0,0
0.5039827000000514,0.37091064453125,-0.450897216796875,0.311492919921875,-0.74969482421875,0.244140625,-0.18310546875,-0.1220703125,0.447265625,-0.7984619140625,0.4005126953125,-296.0,148.0,-149.0,101700.0,-3.123000144958496,0,0
0.5040371999930358,0.37091064453125,-0.450897216796875,0.311492919921875,-0.74969482421875,0.244140625,-0.18310546875,-0.1220703125,0.447265625,-0.7984619140625,0.4005126953125,-296.0,148.0,-149.0,101700.0,-3.123000144958496,0,0
0.5040913999982877,0.37091064453125,-0.450897216796875,0.31146240234375,-0.74969482421875,-0.18310546875,-0.244140625,0.06103515625,0.44482421875,-0.8004150390625,0.4012451171875,-296.0,148.0,-149.0,101700.0,-3.123000144958496,0,0
0.5041442999936407,0.37091064453125,-0.450897216796875,0.31146240234375,-0.749725341796875,0.1220703125,0.06103515625,0.1220703125,0.4473876953125,-0.80126953125,0.39794921875,-296.0,148.0,-149.0,101700.0,-3.123000144958496,0,0
0.5042530999926385,0.37091064453125,-0.450897216796875,0.31146240234375,-0.749725341796875,0.1220703125,0.18310546875,0.3662109375,0.447509765625,-0.800537109375,0.4014892578125,-296.0,148.0,-149.0,101700.0,-3.123000144958496,0,0
0.5043061000033049,0.37091064453125,-0.450897216796875,0.31146240234375,-0.749725341796875,-0.18310546875,0.18310546875,0.30517578125,0.4461669921875,-0.8035888671875,0.401123046875,-296.0,148.0,-149.0,101700.0,-3.123000144958496,0,0
0.5043593000009423,0.37091064453125,-0.45086669921875,0.31146240234375,-0.749725341796875,-0.06103515625,0.06103515625,0.30517578125,0.44384765625,-0.802490234375,0.3995361328125,-296.0,148.0,-149.0,101700.0,-3.123000144958496,0,0
0.5044131000031484,0.37091064453125,-0.45086669921875,0.31146240234375,-0.749725341796875,0.1220703125,-0.1220703125,0.3662109375,0.445556640625,-0.802734375,0.400390625,-297.0,149.0,-150.0,101700.0,-3.123000144958496,0,0
0.5044678999984171,0.37091064453125,-0.45086669921875,0.31146240234375,-0.749725341796875,0.06103515625,-0.18310546875,0.06103515625,0.4439697265625,-0.8001708984375,0.3997802734375,-297.0,149.0,-150.0,101700.0,-3.123000144958496,0,0
0.5045213999983389,0.37091064453125,-0.45086669921875,0.31146240234375,-0.749725341796875,-0.06103515625,-0.1220703125,-0.54931640625,0.4434814453125,-0.8009033203125,0.39990234375,-297.0,149.0,-150.0,101700.0,-3.123000144958496,0,0
0.5627366999979131,0.37091064453125,-0.45086669921875,0.31146240234375,-0.749725341796875,0.06103515625,-0.18310546875,-0.30517578125,0.44873046875,-0.8011474609375,0.3992919921875,-297.0,149.0,-150.0,101700.0,-3.123000144958496,0,0
0.5627988000051118,0.37091064453125,-0.45086669921875,0.31146240234375,-0.74969482421875,0.1220703125,-0.18310546875,-0.244140625,0.44677734375,-0.8026123046875,0.39697265625,-297.0,149.0,-150.0,101700.0,-3.123000144958496,0,0
0.5628540000034263,0.37091064453125,-0.450897216796875,0.31146240234375,-0.74969482421875,-0.06103515625,-0.1220703125,-0.1220703125,0.4459228515625,-0.80224609375,0.3983154296875,-297.0,149.0,-150.0,101700.0,-3.123000144958496,0,0
0.5629072000010638,0.37091064453125,-0.450897216796875,0.31146240234375,-0.74969482421875,-0.18310546875,-0.06103515625,-0.06103515625,0.4454345703125,-0.80224609375,0.3974609375,-297.0,149.0,-150.0,101700.0,-3.123000144958496,0,0
0.5629611000040313,0.37091064453125,-0.450897216796875,0.31146240234375,-0.74969482421875,-0.1220703125,-0.1220703125,-0.18310546875,0.4449462890625,-0.802490234375,0.39892578125,-297.0,149.0,-150.0,101700.0,-3.123000144958496,0,0
0.5722168999927817,0.37091064453125,-0.450897216796875,0.31146240234375,-0.74969482421875,0.06103515625,-0.06103515625,0.06103515625,0.4447021484375,-0.8013916015625,0.3984375,-297.0,149.0,-150.0,101700.0,-3.123000144958496,0,0
0.5722749999986263,0.37091064453125,-0.450897216796875,0.31146240234375,-0.74969482421875,-0.06103515625,0.18310546875,0.1220703125,0.4456787109375,-0.8004150390625,0.3975830078125,-297.0,149.0,-150.0,101700.0,-3.122000217437744,0,0
0.5723311000037938,0.37091064453125,-0.450897216796875,0.31146240234375,-0.74969482421875,-0.244140625,0.0,0.18310546875,0.4449462890625,-0.8023681640625,0.3985595703125,-297.0,149.0,-150.0,101700.0,-3.122000217437744,0,0
0.572384900006,0.37091064453125,-0.450897216796875,0.31146240234375,-0.74969482421875,-0.244140625,0.0,0.18310546875,0.4449462890625,-0.8023681640625,0.3985595703125,-297.0,149.0,-150.0,101700.0,-3.122000217437744,0,0
0.5724383000051603,0.37091064453125,-0.450897216796875,0.311492919921875,-0.74969482421875,0.06103515625,-0.06103515625,0.30517578125,0.4449462890625,-0.8052978515625,0.399658203125,-297.0,149.0,-150.0,101700.0,-3.122000217437744,0,0
0.5724899000051664,0.37091064453125,-0.450897216796875,0.311492919921875,-0.74969482421875,0.0,-0.244140625,0.06103515625,0.4451904296875,-0.8028564453125,0.4017333984375,-297.0,149.0,-150.0,101700.0,-3.122000217437744,0,0
0.6327089999977034,0.37091064453125,-0.450897216796875,0.311492919921875,-0.74969482421875,-0.244140625,-0.1220703125,-0.06103515625,0.4439697265625,-0.8013916015625,0.3994140625,-297.0,149.0,-150.0,101700.0,-3.122000217437744,0,0
0.6327760999993188,0.37091064453125,-0.450897216796875,0.311492919921875,-0.74969482421875,0.06103515625,-0.244140625,-0.244140625,0.4415283203125,-0.801513671875,0.3980712890625,-297.0,149.0,-150.0,101700.0,-3.122000217437744,0,0
0.6328362000058405,0.37091064453125,-0.450897216796875,0.311492919921875,-0.74969482421875,0.18310546875,-0.06103515625,-0.3662109375,0.4466552734375,-0.8018798828125,0.3984375,-297.0,149.0,-150.0,101700.0,-3.122000217437744,0,0
0.6328941999963718,0.37091064453125,-0.450897216796875,0.3115234375,-0.74969482421875,0.18310546875,-0.06103515625,-0.3662109375,0.4466552734375,-0.8018798828125,0.3984375,-296.0,149.0,-150.0,101700.0,-3.122000217437744,0,0
0.6329512999946019,0.37091064453125,-0.450897216796875,0.311492919921875,-0.74969482421875,-0.1220703125,-0.06103515625,-0.18310546875,0.4451904296875,-0.80322265625,0.3984375,-296.0,149.0,-150.0,101700.0,-3.122000217437744,0,0
0.6339693000045372,0.37091064453125,-0.450897216796875,0.311492919921875,-0.74969482421875,-0.1220703125,-0.06103515625,-0.18310546875,0.4451904296875,-0.80322265625,0.3984375,-296.0,149.0,-150.0,101700.0,-3.122000217437744,0,0
0.6340288000064902,0.37091064453125,-0.450897216796875,0.311492919921875,-0.74969482421875,0.06103515625,0.0,0.244140625,0.4444580078125,-0.801025390625,0.398681640625,-296.0,149.0,-150.0,101700.0,-3.122000217437744,0,0
0.6343912000011187,0.37091064453125,-0.450897216796875,0.311492919921875,-0.74969482421875,-0.06103515625,0.18310546875,0.1220703125,0.445556640625,-0.7999267578125,0.399169921875,-296.0,149.0,-150.0,101700.0,-3.122000217437744,0,0
0.634450099998503,0.37091064453125,-0.450897216796875,0.311492919921875,-0.749664306640625,0.30517578125,-0.1220703125,-0.18310546875,0.445068359375,-0.7999267578125,0.39794921875,-296.0,149.0,-150.0,101700.0,-3.122000217437744,0,0
0.6345087999943644,0.37091064453125,-0.450897216796875,0.311492919921875,-0.749664306640625,0.244140625,-0.1220703125,0.3662109375,0.444091796875,-0.80078125,0.3953857421875,-296.0,149.0,-150.0,101700.0,-3.122000217437744,0,0
0.6345666999986861,0.37091064453125,-0.450897216796875,0.311492919921875,-0.749664306640625,0.06103515625,0.06103515625,-0.06103515625,0.44482421875,-0.801513671875,0.398681640625,-296.0,149.0,-150.0,101700.0,-3.122000217437744,0,0
0.7105057000007946,0.37091064453125,-0.450927734375,0.311492919921875,-0.749664306640625,-0.1220703125,0.0,0.30517578125,0.4442138671875,-0.8001708984375,0.4000244140625,-296.0,149.0,-150.0,101700.0,-3.122000217437744,0,0
0.7105733000062173,0.37091064453125,-0.450927734375,0.3115234375,-0.749664306640625,0.06103515625,-0.244140625,-0.06103515625,0.4449462890625,-0.800537109375,0.3978271484375,-296.0,149.0,-150.0,101700.0,-3.122000217437744,0,0
0.7106347999942955,0.37091064453125,-0.450927734375,0.3115234375,-0.749664306640625,0.0,0.0,0.06103515625,0.444091796875,-0.8016357421875,0.3970947265625,-296.0,149.0,-150.0,101700.0,-3.124000072479248,0,0
0.7106938999932026,0.37091064453125,-0.450927734375,0.3115234375,-0.749664306640625,0.0,0.0,0.06103515625,0.444091796875,-0.8016357421875,0.3970947265625,-296.0,149.0,-150.0,101700.0,-3.124000072479248,0,0
0.7107518999982858,0.37091064453125,-0.450897216796875,0.3115234375,-0.749664306640625,0.244140625,0.1220703125,-0.1220703125,0.444580078125,-0.803955078125,0.4005126953125,-296.0,149.0,-150.0,101700.0,-3.124000072479248,0,0
0.7108124999940628,0.37091064453125,-0.450897216796875,0.3115234375,-0.749664306640625,0.0,0.06103515625,-0.42724609375,0.4437255859375,-0.8026123046875,0.3997802734375,-296.0,149.0,-150.0,101700.0,-3.124000072479248,0,0
0.7109863999939989,0.37091064453125,-0.450897216796875,0.3115234375,-0.749664306640625,0.42724609375,-0.18310546875,-0.244140625,0.44482421875,-0.8013916015625,0.3997802734375,-296.0,149.0,-150.0,101700.0,-3.124000072479248,0,0
0.7220146000036038,0.37091064453125,-0.450897216796875,0.3115234375,-0.749664306640625,-0.06103515625,-0.244140625,-0.42724609375,0.44287109375,-0.8016357421875,0.397216796875,-296.0,149.0,-150.0,101700.0,-3.124000072479248,0,0
0.722085600005812,0.37091064453125,-0.450927734375,0.3115234375,-0.749664306640625,0.06103515625,-0.06103515625,-0.42724609375,0.4423828125,-0.800048828125,0.39892578125,-296.0,149.0,-150.0,101700.0,-3.124000072479248,0,0
0.7221470999938902,0.37091064453125,-0.450927734375,0.3115234375,-0.749664306640625,0.54931640625,0.0,-0.18310546875,0.446044921875,-0.8016357421875,0.3978271484375,-296.0,149.0,-150.0,101700.0,-3.124000072479248,0,0
0.7222064999950817,0.37091064453125,-0.450927734375,0.3115234375,-0.749664306640625,-0.244140625,-0.18310546875,0.06103515625,0.44580078125,-0.8028564453125,0.398681640625,-296.0,149.0,-150.0,101700.0,-3.124000072479248,0,0
0.7222672000061721,0.37091064453125,-0.450927734375,0.3115234375,-0.749664306640625,1.03759765625,-0.18310546875,0.1220703125,0.4464111328125,-0.802001953125,0.3973388671875,-296.0,149.0,-150.0,101700.0,-3.124000072479248,0,0
0.7223254999989877,0.37091064453125,-0.450927734375,0.3115234375,-0.749664306640625,-0.06103515625,0.06103515625,0.18310546875,0.446044921875,-0.802001953125,0.3988037109375,-295.0,149.0,-150.0,101700.0,-3.124000072479248,0,0
0.757106200006092,0.370819091796875,-0.45086669921875,0.31158447265625,-0.74969482421875,0.0,0.1220703125,-0.244140625,0.44482421875,-0.8023681640625,0.3984375,-295.0,149.0,-150.0,101700.0,-3.124000072479248,0,0
0.7571693000063533,0.370819091796875,-0.450897216796875,0.31158447265625,-0.74969482421875,-0.06103515625,-0.18310546875,-0.06103515625,0.443603515625,-0.8018798828125,0.3966064453125,-295.0,149.0,-150.0,101700.0,-3.124000072479248,0,0
0.7572281000029761,0.370819091796875,-0.450897216796875,0.311614990234375,-0.74969482421875,-0.06103515625,-0.1220703125,0.0,0.445556640625,-0.80322265625,0.3978271484375,-295.0,149.0,-150.0,101700.0,-3.124000072479248,0,0
0.7572844999958761,0.37078857421875,-0.450897216796875,0.311614990234375,-0.74969482421875,0.06103515625,-0.06103515625,-0.244140625,0.4466552734375,-0.802734375,0.3978271484375,-295.0,149.0,-150.0,101700.0,-3.124000072479248,0,0
0.7573425000009593,0.37078857421875,-0.450897216796875,0.311614990234375,-0.74969482421875,0.0,-0.18310546875,-0.18310546875,0.44677734375,-0.802490234375,0.3970947265625,-295.0,149.0,-150.0,101700.0,-3.124000072479248,0,0
0.7928721000062069,0.37078857421875,-0.450897216796875,0.311614990234375,-0.74969482421875,0.18310546875,-0.06103515625,-0.30517578125,0.4429931640625,-0.8023681640625,0.398193359375,-295.0,149.0,-150.0,101700.0,-3.124000072479248,0,0
0.792937999998685,0.37078857421875,-0.450897216796875,0.311614990234375,-0.74969482421875,0.3662109375,-0.1220703125,-0.1220703125,0.448486328125,-0.80224609375,0.3990478515625,-295.0,149.0,-150.0,101700.0,-3.124000072479248,0,0
0.7929996000020765,0.37078857421875,-0.450897216796875,0.311614990234375,-0.74969482421875,0.3662109375,-0.1220703125,-0.1220703125,0.448486328125,-0.80224609375,0.3990478515625,-295.0,149.0,-150.0,101700.0,-3.124000072479248,0,0
0.7930560999957379,0.37078857421875,-0.450897216796875,0.311614990234375,-0.74969482421875,0.1220703125,-0.30517578125,0.06103515625,0.4476318359375,-0.8037109375,0.39990234375,-295.0,149.0,-150.0,101700.0,-3.123000144958496,0,0
0.7931147000053898,0.37078857421875,-0.450897216796875,0.311614990234375,-0.74969482421875,-0.06103515625,-0.06103515625,-0.18310546875,0.4476318359375,-0.8017578125,0.3966064453125,-295.0,149.0,-150.0,101700.0,-3.123000144958496,0,0
0.7931721000059042,0.37078857421875,-0.450927734375,0.311614990234375,-0.74969482421875,-0.06103515625,-0.06103515625,-0.18310546875,0.4476318359375,-0.8017578125,0.3966064453125,-295.0,149.0,-150.0,101700.0,-3.123000144958496,0,0
0.8953274999948917,0.37078857421875,-0.450927734375,0.311614990234375,-0.74969482421875,0.18310546875,-0.18310546875,0.06103515625,0.4453125,-0.8037109375,0.40087890625,-296.0,149.0,-150.0,101700.0,-3.123000144958496,0,0
0.8953942999942228,0.37078857421875,-0.450927734375,0.311614990234375,-0.74969482421875,-0.18310546875,-0.30517578125,0.0,0.44482421875,-0.8016357421875,0.3997802734375,-296.0,149.0,-150.0,101700.0,-3.123000144958496,0,0
0.8954541999992216,0.37078857421875,-0.450927734375,0.311614990234375,-0.74969482421875,0.18310546875,-0.1220703125,-0.244140625,0.4434814453125,-0.7999267578125,0.3990478515625,-296.0,149.0,-150.0,101700.0,-3.123000144958496,0,0
0.8955123000050662,0.37078857421875,-0.450927734375,0.311614990234375,-0.749664306640625,-0.1220703125,-0.1220703125,-0.18310546875,0.4437255859375,-0.8018798828125,0.3978271484375,-296.0,149.0,-150.0,101700.0,-3.123000144958496,0,0
0.8957359000050928,0.37078857421875,-0.450927734375,0.311614990234375,-0.74969482421875,0.42724609375,0.30517578125,-0.06103515625,0.444091796875,-0.80126953125,0.39892578125,-296.0,149.0,-150.0,101700.0,-3.123000144958496,0,0
0.8958168999961345,0.37078857421875,-0.450927734375,0.311614990234375,-0.74969482421875,0.18310546875,0.0,-0.18310546875,0.4466552734375,-0.80029296875,0.399169921875,-296.0,149.0,-150.0,101700.0,-3.123000144958496,0,0
0.8959718999976758,0.37078857421875,-0.450927734375,0.311614990234375,-0.74969482421875,0.30517578125,-0.06103515625,-0.1220703125,0.4481201171875,-0.8016357421875,0.398681640625,-296.0,149.0,-150.0,101700.0,-3.123000144958496,0,0
0.8960408999992069,0.37078857421875,-0.450927734375,0.311614990234375,-0.74969482421875,0.06103515625,0.0,0.0,0.444580078125,-0.8021240234375,0.4005126953125,-296.0,149.0,-150.0,101700.0,-3.123000144958496,0,0
0.8961011999926995,0.37078857421875,-0.450927734375,0.311614990234375,-0.74969482421875,0.06103515625,0.0,0.0,0.444580078125,-0.8021240234375,0.4005126953125,-296.0,149.0,-150.0,101700.0,-3.123000144958496,0,0
0.8961586999939755,0.37078857421875,-0.450927734375,0.311614990234375,-0.74969482421875,0.06103515625,-0.06103515625,0.1220703125,0.4442138671875,-0.8001708984375,0.399658203125,-296.0,149.0,-150.0,101700.0,-3.125000238418579,0,0
0.8962155000044731,0.37078857421875,-0.450927734375,0.311614990234375,-0.74969482421875,-0.244140625,-0.244140625,-0.1220703125,0.4447021484375,-0.800048828125,0.3990478515625,-296.0,149.0,-150.0,101700.0,-3.125000238418579,0,0
0.8962718999973731,0.37078857421875,-0.450927734375,0.311614990234375,-0.74969482421875,0.18310546875,-0.30517578125,0.0,0.44384765625,-0.80224609375,0.3990478515625,-296.0,149.0,-150.0,101700.0,-3.125000238418579,0,0
0.8963282000040635,0.37078857421875,-0.450927734375,0.311614990234375,-0.74969482421875,0.244140625,0.18310546875,0.06103515625,0.4459228515625,-0.8028564453125,0.4005126953125,-296.0,149.0,-150.0,101700.0,-3.125000238418579,0,0
0.8963967000017874,0.37078857421875,-0.450927734375,0.311614990234375,-0.74969482421875,0.1220703125,-0.244140625,-0.18310546875,0.4451904296875,-0.8031005859375,0.3980712890625,-296.0,149.0,-150.0,101700.0,-3.125000238418579,0,0
0.8964527000061935,0.37078857421875,-0.450927734375,0.311614990234375,-0.74969482421875,0.06103515625,0.0,-0.06103515625,0.4447021484375,-0.80029296875,0.399658203125,-296.0,149.0,-150.0,101700.0,-3.125000238418579,0,0
0.8965084999945248,0.37078857421875,-0.450927734375,0.311614990234375,-0.74969482421875,-0.06103515625,0.18310546875,0.0,0.44580078125,-0.801025390625,0.399169921875,-296.0,149.0,-150.0,101700.0,-3.125000238418579,0,0
0.896564099995885,0.37078857421875,-0.450927734375,0.31158447265625,-0.74969482421875,0.0,0.0,-0.06103515625,0.4454345703125,-0.80126953125,0.399169921875,-296.0,149.0,-150.0,101700.0,-3.125000238418579,0,0
0.8966206000040984,0.370758056640625,-0.450927734375,0.31158447265625,-0.74969482421875,0.30517578125,0.06103515625,0.06103515625,0.4456787109375,-0.803466796875,0.398681640625,-296.0,149.0,-150.0,101700.0,-3.125000238418579,0,0
0.8966764999931911,0.370758056640625,-0.450927734375,0.31158447265625,-0.74969482421875,0.30517578125,0.06103515625,0.06103515625,0.4456787109375,-0.803466796875,0.398681640625,-296.0,149.0,-150.0,101700.0,-3.125000238418579,0,0
0.9600954000052297,0.370758056640625,-0.450958251953125,0.311614990234375,-0.74969482421875,-0.244140625,-0.1220703125,-0.244140625,0.443603515625,-0.80126953125,0.3988037109375,-296.0,150.0,-150.0,101700.0,-3.125000238418579,0,0
0.9601629999961006,0.370758056640625,-0.450958251953125,0.311614990234375,-0.74969482421875,0.1220703125,-0.1220703125,-0.06103515625,0.4442138671875,-0.8011474609375,0.3997802734375,-296.0,150.0,-150.0,101700.0,-3.125000238418579,0,0
0.9602217000065139,0.37078857421875,-0.450927734375,0.31158447265625,-0.74969482421875,0.06103515625,-0.1220703125,-0.18310546875,0.443603515625,-0.7991943359375,0.4005126953125,-296.0,150.0,-150.0,101700.0,-3.125000238418579,0,0
0.9602795999962837,0.37078857421875,-0.450927734375,0.311614990234375,-0.74969482421875,0.0,-0.18310546875,-0.06103515625,0.4453125,-0.801513671875,0.3978271484375,-296.0,150.0,-150.0,101700.0,-3.125000238418579,0,0
0.9603358000022126,0.370758056640625,-0.450958251953125,0.31158447265625,-0.74969482421875,0.30517578125,-0.06103515625,-0.18310546875,0.4462890625,-0.8006591796875,0.3980712890625,-296.0,150.0,-150.0,101700.0,-3.125000238418579,0,0
0.960527599992929,0.370758056640625,-0.450958251953125,0.31158447265625,-0.74969482421875,0.0,0.06103515625,-0.18310546875,0.4459228515625,-0.802734375,0.39892578125,-296.0,150.0,-150.0,101700.0,-3.125000238418579,0,0
0.9605951999983517,0.370758056640625,-0.450958251953125,0.31158447265625,-0.74969482421875,0.0,0.06103515625,-0.18310546875,0.4459228515625,-0.802734375,0.39892578125,-296.0,150.0,-150.0,101700.0,-3.125000238418579,0,0
0.9606529000011506,0.370758056640625,-0.450958251953125,0.311614990234375,-0.74969482421875,0.42724609375,0.06103515625,0.18310546875,0.446533203125,-0.802734375,0.3997802734375,-296.0,150.0,-150.0,101700.0,-3.125000238418579,0,0
0.9610652999981539,0.370758056640625,-0.450958251953125,0.311614990234375,-0.749664306640625,0.1220703125,-0.3662109375,-0.06103515625,0.443359375,-0.8021240234375,0.3974609375,-296.0,150.0,-150.0,101700.0,-3.125000238418579,0,0
0.9611282999976538,0.370758056640625,-0.450958251953125,0.311614990234375,-0.749664306640625,0.06103515625,-0.06103515625,0.18310546875,0.4439697265625,-0.802490234375,0.39892578125,-296.0,150.0,-150.0,101700.0,-3.123000144958496,0,0
0.961186300002737,0.370758056640625,-0.450958251953125,0.311614990234375,-0.749664306640625,0.06103515625,-0.06103515625,-0.1220703125,0.44775390625,-0.802001953125,0.3975830078125,-296.0,150.0,-150.0,101700.0,-3.123000144958496,0,0
1.0018156000005547,0.370758056640625,-0.450958251953125,0.311614990234375,-0.749664306640625,0.0,-0.18310546875,-0.06103515625,0.4453125,-0.801025390625,0.3995361328125,-296.0,150.0,-150.0,101700.0,-3.123000144958496,0,0
1.0018810000037774,0.370758056640625,-0.450958251953125,0.311614990234375,-0.749664306640625,0.18310546875,-0.1220703125,-0.06103515625,0.4447021484375,-0.8018798828125,0.3983154296875,-296.0,150.0,-150.0,101700.0,-3.123000144958496,0,0
1.0019425000064075,0.37078857421875,-0.450958251953125,0.311614990234375,-0.749664306640625,0.06103515625,-0.18310546875,0.06103515625,0.443359375,-0.8013916015625,0.398193359375,-296.0,150.0,-150.0,101700.0,-3.123000144958496,0,0
1.0019996000046376,0.37078857421875,-0.450958251953125,0.311614990234375,-0.749664306640625,0.06103515625,-0.18310546875,0.06103515625,0.443359375,-0.8013916015625,0.398193359375,-296.0,150.0,-150.0,101700.0,-3.123000144958496,0,0
1.0020572999928845,0.370758056640625,-0.450958251953125,0.311614990234375,-0.749664306640625,0.0,0.06103515625,0.06103515625,0.4459228515625,-0.8016357421875,0.3983154296875,-296.0,150.0,-150.0,101700.0,-3.123000144958496,0,0
1.0034736999950837,0.370758056640625,-0.450958251953125,0.311614990234375,-0.749664306640625,-0.18310546875,-0.06103515625,0.06103515625,0.4454345703125,-0.8006591796875,0.3997802734375,-296.0,150.0,-150.0,101700.0,-3.123000144958496,0,0
1.003540999998222,0.370758056640625,-0.450958251953125,0.311614990234375,-0.749664306640625,-0.18310546875,-0.06103515625,0.06103515625,0.4454345703125,-0.8006591796875,0.3997802734375,-296.0,150.0,-150.0,101700.0,-3.123000144958496,0,0
1.003642800002126,0.370758056640625,-0.450958251953125,0.311614990234375,-0.749664306640625,0.0,-0.1220703125,-0.1220703125,0.44482421875,-0.8031005859375,0.39990234375,-296.0,150.0,-150.0,101700.0,-3.123000144958496,0,0
1.003700100001879,0.370758056640625,-0.450958251953125,0.311614990234375,-0.749664306640625,0.06103515625,-0.06103515625,0.0,0.4454345703125,-0.8043212890625,0.4002685546875,-296.0,150.0,-150.0,101700.0,-3.123000144958496,0,0
1.003757600003155,0.370758056640625,-0.450958251953125,0.311614990234375,-0.749664306640625,-0.18310546875,0.1220703125,0.0,0.4447021484375,-0.8018798828125,0.3985595703125,-296.0,150.0,-150.0,101700.0,-3.123000144958496,0,0
1.0040769000042928,0.370758056640625,-0.450958251953125,0.311614990234375,-0.749664306640625,0.244140625,0.1220703125,0.1220703125,0.445068359375,-0.802001953125,0.3985595703125,-296.0,150.0,-150.0,101700.0,-3.123000144958496,0,0
1.0041531000024406,0.370758056640625,-0.450958251953125,0.311614990234375,-0.749664306640625,-0.06103515625,-0.06103515625,-0.06103515625,0.443115234375,-0.8026123046875,0.4002685546875,-296.0,150.0,-150.0,101700.0,-3.123000144958496,0,0
1.0695135999994818,0.370758056640625,-0.450958251953125,0.311614990234375,-0.749664306640625,-0.06103515625,-0.06103515625,-0.06103515625,0.443115234375,-0.8026123046875,0.4002685546875,-296.0,150.0,-150.0,101700.0,-3.123000144958496,0,0
1.0695763999974588,0.370758056640625,-0.450958251953125,0.311614990234375,-0.749664306640625,-0.30517578125,-0.1220703125,-0.244140625,0.444580078125,-0.8021240234375,0.39990234375,-296.0,150.0,-150.0,101700.0,-3.123000144958496,0,0
1.0696326000033878,0.37078857421875,-0.450958251953125,0.311614990234375,-0.749664306640625,0.0,-0.18310546875,-0.1220703125,0.4439697265625,-0.8018798828125,0.3985595703125,-296.0,150.0,-150.0,101700.0,-3.123000144958496,0,0
1.0696878000017023,0.37078857421875,-0.450958251953125,0.311614990234375,-0.749664306640625,0.06103515625,-0.18310546875,-0.18310546875,0.445556640625,-0.8013916015625,0.4010009765625,-296.0,150.0,-150.0,101700.0,-3.123000144958496,0,0
1.0697411000001011,0.37078857421875,-0.450958251953125,0.311614990234375,-0.749664306640625,-0.18310546875,-0.244140625,-0.06103515625,0.445556640625,-0.8009033203125,0.3997802734375,-296.0,150.0,-150.0,101700.0,-3.123000144958496,0,0
1.0697950000030687,0.37078857421875,-0.450958251953125,0.311614990234375,-0.749664306640625,0.18310546875,-0.42724609375,-0.1220703125,0.444580078125,-0.800048828125,0.3990478515625,-296.0,150.0,-150.0,101700.0,-3.123000144958496,0,0
1.0748278999963077,0.37078857421875,-0.450958251953125,0.311614990234375,-0.749664306640625,0.18310546875,0.1220703125,-0.3662109375,0.444580078125,-0.8016357421875,0.3995361328125,-296.0,150.0,-150.0,101700.0,-3.123000144958496,0,0
1.074894299992593,0.37078857421875,-0.450958251953125,0.311614990234375,-0.749664306640625,0.18310546875,0.1220703125,-0.18310546875,0.444580078125,-0.8001708984375,0.3980712890625,-296.0,150.0,-150.0,101700.0,-3.123000144958496,0,0
1.0749519999953918,0.37078857421875,-0.450958251953125,0.311614990234375,-0.749664306640625,0.06103515625,-0.1220703125,0.0,0.4471435546875,-0.8026123046875,0.3994140625,-296.0,150.0,-150.0,101700.0,-3.123000144958496,0,0
1.0750082000013208,0.37078857421875,-0.450958251953125,0.311614990234375,-0.749664306640625,-0.3662109375,0.1220703125,0.0,0.4447021484375,-0.80224609375,0.3985595703125,-296.0,150.0,-150.0,101700.0,-3.123000144958496,0,0
1.075063800002681,0.37078857421875,-0.450958251953125,0.311614990234375,-0.749664306640625,-0.3662109375,0.1220703125,0.0,0.4447021484375,-0.80224609375,0.3985595703125,-296.0,150.0,-150.0,101700.0,-3.123000144958496,0,0
1.0751202999963425,0.370758056640625,-0.450958251953125,0.311614990234375,-0.749664306640625,-0.18310546875,0.1220703125,-0.1220703125,0.444091796875,-0.8011474609375,0.3997802734375,-296.0,150.0,-150.0,101700.0,-3.123000144958496,0,0
1.1335689999978058,0.370758056640625,-0.450958251953125,0.311614990234375,-0.749664306640625,0.0,0.0,0.0,0.4453125,-0.8018798828125,0.3974609375,-296.0,150.0,-150.0,101700.0,-3.123000144958496,0,0
1.1336351000063587,0.370758056640625,-0.450958251953125,0.311614990234375,-0.749664306640625,0.1220703125,-0.1220703125,-0.06103515625,0.4439697265625,-0.7999267578125,0.3992919921875,-297.0,150.0,-148.0,101701.0,-3.126000165939331,0,0
1.1336919000023045,0.371063232421875,-0.451080322265625,0.311431884765625,-0.74951171875,0.1220703125,-0.244140625,-0.244140625,0.4442138671875,-0.80078125,0.3988037109375,-297.0,150.0,-148.0,101701.0,-3.126000165939331,0,0
1.1483813999948325,0.371063232421875,-0.451080322265625,0.311431884765625,-0.74951171875,-0.1220703125,-0.30517578125,-0.1220703125,0.4453125,-0.8031005859375,0.400390625,-297.0,150.0,-148.0,101701.0,-3.126000165939331,0,0
1.1484855000016978,0.371063232421875,-0.451080322265625,0.311431884765625,-0.74951171875,0.0,0.0,-0.18310546875,0.4454345703125,-0.80322265625,0.3978271484375,-297.0,150.0,-148.0,101701.0,-3.126000165939331,0,0
1.1487573000049451,0.371063232421875,-0.451080322265625,0.311431884765625,-0.74951171875,0.0,0.0,-0.18310546875,0.4454345703125,-0.80322265625,0.3978271484375,-297.0,150.0,-148.0,101701.0,-3.126000165939331,0,0
1.1488314000016544,0.371063232421875,-0.451080322265625,0.311431884765625,-0.74951171875,-0.244140625,-0.18310546875,-0.06103515625,0.4453125,-0.8013916015625,0.3984375,-297.0,150.0,-148.0,101701.0,-3.126000165939331,0,0
1.1488944000011543,0.371063232421875,-0.451080322265625,0.311431884765625,-0.74951171875,0.0,0.0,0.1220703125,0.44580078125,-0.8006591796875,0.3984375,-297.0,150.0,-148.0,101701.0,-3.126000165939331,0,0
1.1490233999938937,0.371063232421875,-0.451080322265625,0.311431884765625,-0.74951171875,-0.06103515625,-0.06103515625,-0.3662109375,0.4466552734375,-0.800048828125,0.399169921875,-297.0,150.0,-148.0,101701.0,-3.126000165939331,0,0
1.149087400001008,0.371063232421875,-0.451080322265625,0.311431884765625,-0.74951171875,0.06103515625,-0.06103515625,-0.18310546875,0.4459228515625,-0.8016357421875,0.3978271484375,-297.0,150.0,-148.0,101701.0,-3.126000165939331,0,0
1.1496308000059798,0.371063232421875,-0.451080322265625,0.311431884765625,-0.74951171875,-0.06103515625,-0.244140625,0.1220703125,0.445068359375,-0.8028564453125,0.399169921875,-297.0,150.0,-148.0,101701.0,-3.126000165939331,0,0
1.2004239999951096,0.371063232421875,-0.451080322265625,0.311431884765625,-0.74951171875,0.0,0.0,-0.18310546875,0.4437255859375,-0.8023681640625,0.4002685546875,-297.0,150.0,-148.0,101701.0,-3.126000165939331,0,0
1.2004911999974865,0.371063232421875,-0.451080322265625,0.311431884765625,-0.74951171875,0.18310546875,-0.1220703125,0.0,0.444091796875,-0.802734375,0.4012451171875,-297.0,150.0,-148.0,101701.0,-3.126000165939331,0,0
1.200553000002401,0.371063232421875,-0.451080322265625,0.311431884765625,-0.74951171875,0.18310546875,-0.1220703125,0.0,0.444091796875,-0.802734375,0.4012451171875,-297.0,150.0,-148.0,101701.0,-3.126000165939331,0,0
1.2006137999997009,0.371063232421875,-0.451080322265625,0.311431884765625,-0.74951171875,0.244140625,-0.244140625,-0.42724609375,0.445556640625,-0.7994384765625,0.3978271484375,-297.0,150.0,-148.0,101701.0,-3.126000165939331,0,0
1.200702200003434,0.371063232421875,-0.451080322265625,0.311431884765625,-0.74951171875,0.0,-0.1220703125,-0.06103515625,0.4454345703125,-0.79833984375,0.398681640625,-297.0,150.0,-148.0,101701.0,-3.126000165939331,0,0
1.2008402999927057,0.371063232421875,-0.451080322265625,0.311431884765625,-0.74951171875,0.0,-0.1220703125,-0.06103515625,0.4454345703125,-0.79833984375,0.398681640625,-297.0,150.0,-148.0,101701.0,-3.126000165939331,0,0
1.200912000000244,0.371063232421875,-0.451080322265625,0.311431884765625,-0.74951171875,0.1220703125,0.0,-0.18310546875,0.4459228515625,-0.8011474609375,0.3975830078125,-297.0,150.0,-148.0,101701.0,-3.126000165939331,0,0
1.2009709999983897,0.371063232421875,-0.45111083984375,0.311431884765625,-0.74951171875,0.1220703125,0.0,-0.18310546875,0.4459228515625,-0.8011474609375,0.3975830078125,-297.0,150.0,-148.0,101701.0,-3.126000165939331,0,0
1.2010302999988198,0.371063232421875,-0.45111083984375,0.311431884765625,-0.74951171875,0.18310546875,-0.06103515625,-0.1220703125,0.4429931640625,-0.801513671875,0.3970947265625,-297.0,148.0,-150.0,101701.0,-3.126000165939331,0,0
1.2010888999939198,0.371063232421875,-0.45111083984375,0.311431884765625,-0.74951171875,0.06103515625,-0.18310546875,0.06103515625,0.445556640625,-0.80322265625,0.3988037109375,-297.0,148.0,-150.0,101701.0,-3.126000165939331,0,0
1.2011460999929113,0.371063232421875,-0.45111083984375,0.311431884765625,-0.74951171875,-0.18310546875,-0.1220703125,-0.06103515625,0.4461669921875,-0.8016357421875,0.3984375,-297.0,148.0,-150.0,101701.0,-3.126000165939331,0,0
1.2012067000032403,0.371063232421875,-0.45111083984375,0.311431884765625,-0.74951171875,-0.18310546875,-0.1220703125,-0.06103515625,0.4461669921875,-0.8016357421875,0.3984375,-297.0,148.0,-150.0,101701.0,-3.126000165939331,0,0
1.2591363999963505,0.371063232421875,-0.45111083984375,0.311431884765625,-0.74951171875,0.06103515625,0.0,0.18310546875,0.446044921875,-0.8011474609375,0.3978271484375,-297.0,148.0,-150.0,101701.0,-3.126000165939331,0,0
1.259204600006342,0.371063232421875,-0.45111083984375,0.311431884765625,-0.74951171875,-0.06103515625,-0.18310546875,0.06103515625,0.4451904296875,-0.8031005859375,0.39892578125,-297.0,148.0,-150.0,101701.0,-3.126000165939331,0,0
1.2592667999997502,0.371063232421875,-0.45111083984375,0.311431884765625,-0.74951171875,0.30517578125,0.06103515625,-0.1220703125,0.4454345703125,-0.8017578125,0.400634765625,-297.0,148.0,-150.0,101701.0,-3.126000165939331,0,0
1.259326700004749,0.371063232421875,-0.45111083984375,0.311431884765625,-0.74951171875,0.06103515625,-0.1220703125,0.18310546875,0.443359375,-0.8033447265625,0.3997802734375,-297.0,148.0,-150.0,101701.0,-3.126000165939331,0,0
1.2593831999984104,0.371063232421875,-0.45111083984375,0.311431884765625,-0.74951171875,0.0,-0.1220703125,0.06103515625,0.447265625,-0.802490234375,0.3988037109375,-297.0,148.0,-150.0,101701.0,-3.126000165939331,0,0
1.2594612999964738,0.371063232421875,-0.45111083984375,0.311431884765625,-0.74951171875,-0.06103515625,-0.06103515625,-0.06103515625,0.4454345703125,-0.8016357421875,0.3992919921875,-297.0,148.0,-150.0,101701.0,-3.126000165939331,0,0
1.2595348000031663,0.371063232421875,-0.45111083984375,0.311431884765625,-0.74951171875,0.18310546875,0.0,-0.18310546875,0.443603515625,-0.8006591796875,0.3990478515625,-297.0,148.0,-150.0,101701.0,-3.126000165939331,0,0
1.2595923000044422,0.371063232421875,-0.45111083984375,0.311431884765625,-0.74951171875,0.30517578125,-0.1220703125,0.0,0.44580078125,-0.8004150390625,0.396484375,-297.0,148.0,-150.0,101701.0,-3.126000165939331,0,0
1.2597244000062346,0.371063232421875,-0.45111083984375,0.311431884765625,-0.74951171875,0.30517578125,-0.1220703125,0.0,0.44580078125,-0.8004150390625,0.396484375,-297.0,148.0,-150.0,101701.0,-3.126000165939331,0,0
1.2597818999929586,0.371063232421875,-0.45111083984375,0.311431884765625,-0.74951171875,-0.06103515625,0.06103515625,0.0,0.443359375,-0.7994384765625,0.401123046875,-297.0,148.0,-150.0,101701.0,-3.126000165939331,0,0
1.2598380999988876,0.371063232421875,-0.45111083984375,0.311431884765625,-0.74951171875,0.244140625,-0.18310546875,0.1220703125,0.446044921875,-0.802001953125,0.3994140625,-297.0,148.0,-150.0,101701.0,-3.126000165939331,0,0
1.2598961000039708,0.371063232421875,-0.45111083984375,0.311431884765625,-0.74951171875,0.18310546875,-0.06103515625,0.0,0.445556640625,-0.80419921875,0.3995361328125,-297.0,148.0,-150.0,101701.0,-3.126000165939331,0,0
1.3372769999987213,0.371063232421875,-0.45111083984375,0.311431884765625,-0.74951171875,0.0,-0.30517578125,0.30517578125,0.4432373046875,-0.7984619140625,0.398193359375,-297.0,148.0,-150.0,101701.0,-3.126000165939331,0,0
1.3373395999951754,0.371063232421875,-0.45111083984375,0.311431884765625,-0.74951171875,0.0,-0.30517578125,0.30517578125,0.4432373046875,-0.7984619140625,0.398193359375,-297.0,148.0,-150.0,101701.0,-3.126000165939331,0,0
1.3373951999965357,0.371063232421875,-0.45111083984375,0.311431884765625,-0.74951171875,0.0,-0.1220703125,0.06103515625,0.4456787109375,-0.80126953125,0.4000244140625,-297.0,148.0,-150.0,101701.0,-3.125000238418579,0,0
1.3374546999984886,0.371063232421875,-0.45111083984375,0.311431884765625,-0.74951171875,-0.06103515625,-0.1220703125,-0.1220703125,0.4451904296875,-0.8016357421875,0.399169921875,-298.0,148.0,-150.0,101701.0,-3.125000238418579,0,0
1.337641000005533,0.371063232421875,-0.45111083984375,0.311431884765625,-0.74951171875,-0.06103515625,-0.1220703125,-0.1220703125,0.4451904296875,-0.8016357421875,0.399169921875,-298.0,148.0,-150.0,101701.0,-3.125000238418579,0,0
1.3377234999934444,0.371063232421875,-0.45111083984375,0.311431884765625,-0.74951171875,0.1220703125,0.0,-0.06103515625,0.44677734375,-0.801513671875,0.3994140625,-298.0,148.0,-150.0,101701.0,-3.125000238418579,0,0
1.3377789999940433,0.37103271484375,-0.45111083984375,0.311431884765625,-0.74951171875,0.06103515625,-0.1220703125,0.0,0.4459228515625,-0.801513671875,0.39892578125,-298.0,148.0,-150.0,101701.0,-3.125000238418579,0,0
1.337832699995488,0.37103271484375,-0.45111083984375,0.311431884765625,-0.74951171875,0.18310546875,0.06103515625,0.0,0.4442138671875,-0.8026123046875,0.3992919921875,-298.0,148.0,-150.0,101701.0,-3.125000238418579,0,0
1.3378861999954097,0.37103271484375,-0.45111083984375,0.311431884765625,-0.74951171875,-0.06103515625,0.0,0.0,0.4429931640625,-0.802734375,0.3970947265625,-298.0,148.0,-150.0,101701.0,-3.125000238418579,0,0
1.3379389000037918,0.37103271484375,-0.45111083984375,0.311431884765625,-0.74951171875,0.0,-0.1220703125,-0.1220703125,0.445556640625,-0.8021240234375,0.3995361328125,-298.0,148.0,-150.0,101701.0,-3.125000238418579,0,0
1.3379933999967761,0.371063232421875,-0.45111083984375,0.311431884765625,-0.74951171875,0.1220703125,-0.30517578125,0.1220703125,0.44384765625,-0.7994384765625,0.3984375,-298.0,148.0,-150.0,101701.0,-3.125000238418579,0,0
1.3380470999982208,0.371063232421875,-0.45111083984375,0.311431884765625,-0.74951171875,0.0,-0.06103515625,-0.18310546875,0.4444580078125,-0.80126953125,0.3988037109375,-298.0,148.0,-150.0,101701.0,-3.125000238418579,0,0
1.42673669999931,0.371063232421875,-0.45111083984375,0.311431884765625,-0.74951171875,0.244140625,0.06103515625,-0.1220703125,0.4432373046875,-0.8021240234375,0.3975830078125,-298.0,148.0,-150.0,101701.0,-3.125000238418579,0,0
1.4267975999973714,0.371063232421875,-0.45111083984375,0.311431884765625,-0.74951171875,0.1220703125,0.0,0.18310546875,0.445068359375,-0.802490234375,0.3992919921875,-298.0,148.0,-150.0,101701.0,-3.125000238418579,0,0
1.4268521000049077,0.371063232421875,-0.45111083984375,0.311431884765625,-0.74951171875,0.06103515625,0.0,0.06103515625,0.446533203125,-0.8023681640625,0.3997802734375,-298.0,148.0,-150.0,101701.0,-3.125000238418579,0,0
1.4269062999956077,0.371063232421875,-0.45111083984375,0.311431884765625,-0.74951171875,0.244140625,-0.244140625,-0.06103515625,0.44384765625,-0.802001953125,0.3995361328125,-298.0,148.0,-150.0,101701.0,-3.125000238418579,0,0
1.4269751999963773,0.371063232421875,-0.45111083984375,0.311431884765625,-0.74951171875,0.18310546875,-0.1220703125,0.0,0.4456787109375,-0.802001953125,0.396728515625,-298.0,148.0,-150.0,101701.0,-3.125000238418579,0,0
1.4270300999924075,0.371063232421875,-0.45111083984375,0.311431884765625,-0.74951171875,-0.1220703125,-0.1220703125,-0.244140625,0.4476318359375,-0.8013916015625,0.401123046875,-298.0,148.0,-150.0,101701.0,-3.125000238418579,0,0
1.4270832000038354,0.371063232421875,-0.45111083984375,0.311431884765625,-0.74951171875,0.18310546875,0.06103515625,0.06103515625,0.4451904296875,-0.8018798828125,0.3990478515625,-298.0,148.0,-150.0,101701.0,-3.125000238418579,0,0
1.4271365000022342,0.371063232421875,-0.45111083984375,0.311431884765625,-0.74951171875,-0.18310546875,-0.18310546875,-0.1220703125,0.4451904296875,-0.80078125,0.3985595703125,-298.0,148.0,-150.0,101701.0,-3.125000238418579,0,0
1.427190000002156,0.37103271484375,-0.45111083984375,0.311431884765625,-0.74951171875,-0.06103515625,-0.06103515625,-0.244140625,0.44482421875,-0.8033447265625,0.3983154296875,-298.0,148.0,-150.0,101701.0,-3.125000238418579,0,0
1.4272421000059694,0.37103271484375,-0.45111083984375,0.311431884765625,-0.74951171875,-0.06103515625,-0.06103515625,-0.244140625,0.44482421875,-0.8033447265625,0.3983154296875,-298.0,148.0,-150.0,101701.0,-3.125000238418579,0,0
1.4272947999997996,0.371063232421875,-0.45111083984375,0.311431884765625,-0.74951171875,0.0,-0.06103515625,-0.30517578125,0.4453125,-0.8045654296875,0.401123046875,-298.0,148.0,-149.0,101701.0,-3.126000165939331,0,0
1.4836257999995723,0.37115478515625,-0.451141357421875,0.311370849609375,-0.749481201171875,-0.18310546875,-0.244140625,0.0,0.44580078125,-0.8021240234375,0.400634765625,-298.0,148.0,-149.0,101701.0,-3.126000165939331,0,0
1.4836931000027107,0.37115478515625,-0.451141357421875,0.311370849609375,-0.749481201171875,0.18310546875,-0.1220703125,0.0,0.444091796875,-0.8018798828125,0.4000244140625,-298.0,148.0,-149.0,101701.0,-3.126000165939331,0,0
1.4837523000023793,0.37115478515625,-0.451141357421875,0.311370849609375,-0.749481201171875,-0.06103515625,0.18310546875,-0.18310546875,0.4444580078125,-0.8018798828125,0.399658203125,-298.0,148.0,-149.0,101701.0,-3.126000165939331,0,0
1.4838078000029782,0.37115478515625,-0.451141357421875,0.311370849609375,-0.74945068359375,0.18310546875,0.18310546875,0.0,0.4451904296875,-0.802490234375,0.3988037109375,-298.0,148.0,-149.0,101701.0,-3.126000165939331,0,0
1.4838616000051843,0.37115478515625,-0.451141357421875,0.311370849609375,-0.74945068359375,-0.18310546875,-0.244140625,-0.18310546875,0.44482421875,-0.803466796875,0.3974609375,-298.0,148.0,-149.0,101701.0,-3.126000165939331,0,0
1.4839640999998664,0.37115478515625,-0.451141357421875,0.311370849609375,-0.74945068359375,-0.3662109375,0.0,-0.244140625,0.4444580078125,-0.8021240234375,0.399658203125,-298.0,148.0,-149.0,101701.0,-3.126000165939331,0,0
1.5021565000060946,0.37115478515625,-0.451141357421875,0.311370849609375,-0.74945068359375,-0.1220703125,-0.06103515625,-0.1220703125,0.4453125,-0.800537109375,0.3985595703125,-298.0,148.0,-149.0,101701.0,-3.126000165939331,0,0
1.5022263999999268,0.37115478515625,-0.451141357421875,0.311370849609375,-0.74945068359375,-0.1220703125,-0.06103515625,-0.1220703125,0.4453125,-0.800537109375,0.3985595703125,-298.0,148.0,-149.0,101701.0,-3.126000165939331,0,0
1.5022823000035714,0.37115478515625,-0.451141357421875,0.311370849609375,-0.74945068359375,0.0,0.06103515625,-0.06103515625,0.4456787109375,-0.8023681640625,0.3955078125,-298.0,148.0,-149.0,101701.0,-3.126000165939331,0,0
1.5023389999987558,0.37115478515625,-0.451141357421875,0.3114013671875,-0.74945068359375,0.244140625,0.0,-0.244140625,0.44287109375,-0.80029296875,0.3980712890625,-298.0,148.0,-149.0,101701.0,-3.126000165939331,0,0
1.5023930000024848,0.37115478515625,-0.451141357421875,0.311370849609375,-0.74945068359375,0.06103515625,-0.18310546875,-0.1220703125,0.443359375,-0.8011474609375,0.3992919921875,-298.0,148.0,-149.0,101701.0,-3.126000165939331,0,0
1.502448999992339,0.37115478515625,-0.451141357421875,0.311370849609375,-0.749481201171875,0.06103515625,-0.06103515625,-0.1220703125,0.4447021484375,-0.800537109375,0.3988037109375,-298.0,148.0,-149.0,101701.0,-3.126000165939331,0,0
1.5025022000045283,0.37115478515625,-0.451141357421875,0.311370849609375,-0.749481201171875,-0.06103515625,-0.06103515625,0.0,0.4451904296875,-0.800537109375,0.400146484375,-298.0,148.0,-149.0,101701.0,-3.126000165939331,0,0
1.5194997999933548,0.37115478515625,-0.451141357421875,0.311370849609375,-0.749481201171875,0.0,-0.06103515625,-0.1220703125,0.447509765625,-0.8018798828125,0.3997802734375,-298.0,148.0,-149.0,101701.0,-3.126000165939331,0,0
1.5195779000059702,0.37115478515625,-0.451141357421875,0.311370849609375,-0.749481201171875,0.06103515625,0.1220703125,-0.1220703125,0.4471435546875,-0.802490234375,0.399658203125,-298.0,148.0,-149.0,101701.0,-3.126000165939331,0,0
1.5196366000018315,0.37115478515625,-0.451141357421875,0.311370849609375,-0.749481201171875,0.06103515625,0.1220703125,-0.1220703125,0.4471435546875,-0.802490234375,0.399658203125,-298.0,148.0,-149.0,101701.0,-3.126000165939331,0,0
1.5196922000031918,0.37115478515625,-0.451141357421875,0.311370849609375,-0.749481201171875,0.244140625,-0.18310546875,-0.244140625,0.4442138671875,-0.80078125,0.3973388671875,-298.0,148.0,-149.0,101701.0,-3.126000165939331,0,0
1.5197651000053156,0.37115478515625,-0.451141357421875,0.311370849609375,-0.749481201171875,0.0,-0.18310546875,-0.1220703125,0.4454345703125,-0.8009033203125,0.3988037109375,-298.0,149.0,-148.0,101701.0,-3.126000165939331,0,0
1.5198172999953385,0.3714599609375,-0.451263427734375,0.311187744140625,-0.74932861328125,-0.3662109375,-0.18310546875,-0.3662109375,0.4451904296875,-0.800537109375,0.39892578125,-298.0,149.0,-148.0,101701.0,-3.126000165939331,0,0
1.5198718000028748,0.3714599609375,-0.451263427734375,0.311187744140625,-0.74932861328125,0.1220703125,0.0,-0.1220703125,0.4456787109375,-0.80224609375,0.3990478515625,-298.0,149.0,-148.0,101701.0,-3.126000165939331,0,0
1.5199240999936592,0.3714599609375,-0.451263427734375,0.311187744140625,-0.74932861328125,0.06103515625,-0.42724609375,-0.30517578125,0.4447021484375,-0.7996826171875,0.3984375,-298.0,149.0,-148.0,101701.0,-3.126000165939331,0,0
1.5199768000020413,0.3714599609375,-0.451263427734375,0.311187744140625,-0.74932861328125,0.18310546875,-0.06103515625,0.06103515625,0.4444580078125,-0.8009033203125,0.3978271484375,-298.0,149.0,-148.0,101701.0,-3.126000165939331,0,0
1.5200290999928256,0.3714599609375,-0.451263427734375,0.311187744140625,-0.74932861328125,0.1220703125,0.06103515625,-0.244140625,0.44482421875,-0.8006591796875,0.398193359375,-298.0,149.0,-148.0,101701.0,-3.126000165939331,0,0
1.5200810999958776,0.3714599609375,-0.451263427734375,0.311187744140625,-0.74932861328125,0.244140625,0.06103515625,-0.18310546875,0.4456787109375,-0.802978515625,0.3985595703125,-298.0,149.0,-148.0,101701.0,-3.126000165939331,0,0
1.5783601000002818,0.3714599609375,-0.451263427734375,0.311187744140625,-0.74932861328125,0.1220703125,-0.244140625,-0.1220703125,0.44677734375,-0.8013916015625,0.3984375,-298.0,149.0,-148.0,101701.0,-3.126000165939331,0,0
1.5784215000021504,0.3714599609375,-0.451263427734375,0.311187744140625,-0.74932861328125,-0.06103515625,-0.1220703125,0.0,0.4461669921875,-0.8017578125,0.398193359375,-298.0,149.0,-148.0,101701.0,-3.126000165939331,0,0
1.5784761999966577,0.3714599609375,-0.451263427734375,0.311187744140625,-0.74932861328125,0.1220703125,-0.1220703125,-0.1220703125,0.4444580078125,-0.80322265625,0.4017333984375,-298.0,149.0,-148.0,101701.0,-3.126000165939331,0,0
1.5793315000046277,0.3714599609375,-0.451263427734375,0.311187744140625,-0.74932861328125,0.0,0.0,0.0,0.446044921875,-0.802001953125,0.4002685546875,-298.0,149.0,-148.0,101701.0,-3.126000165939331,0,0
1.579484899993986,0.3714599609375,-0.451263427734375,0.311187744140625,-0.74932861328125,0.1220703125,0.18310546875,0.0,0.4447021484375,-0.8026123046875,0.4007568359375,-298.0,149.0,-148.0,101701.0,-3.126000165939331,0,0
1.580052200006321,0.3714599609375,-0.451263427734375,0.311187744140625,-0.74932861328125,-0.06103515625,0.06103515625,0.0,0.447509765625,-0.802978515625,0.3990478515625,-298.0,149.0,-148.0,101701.0,-3.126000165939331,0,0
1.5801148000027752,0.3714599609375,-0.451263427734375,0.311187744140625,-0.74932861328125,0.244140625,0.06103515625,-0.30517578125,0.4456787109375,-0.8037109375,0.39892578125,-298.0,149.0,-148.0,101701.0,-3.126000165939331,0,0
1.5801702000026125,0.3714599609375,-0.451263427734375,0.311187744140625,-0.74932861328125,-0.1220703125,-0.1220703125,-0.18310546875,0.444580078125,-0.80224609375,0.3990478515625,-298.0,149.0,-148.0,101701.0,-3.126000165939331,0,0
1.5802262999932282,0.3714599609375,-0.451263427734375,0.311187744140625,-0.74932861328125,-0.1220703125,-0.1220703125,-0.18310546875,0.444580078125,-0.80224609375,0.3990478515625,-298.0,149.0,-148.0,101701.0,-3.126000165939331,0,0
1.5802810000022873,0.3714599609375,-0.451263427734375,0.311187744140625,-0.74932861328125,0.244140625,0.06103515625,-0.1220703125,0.444580078125,-0.8009033203125,0.39990234375,-298.0,149.0,-148.0,101701.0,-3.126000165939331,0,0
1.580334700003732,0.3714599609375,-0.451263427734375,0.311187744140625,-0.74932861328125,0.30517578125,-0.1220703125,0.0,0.446044921875,-0.8017578125,0.3984375,-298.0,149.0,-148.0,101701.0,-3.126000165939331,0,0
1.6446490999951493,0.3714599609375,-0.451263427734375,0.311187744140625,-0.74932861328125,0.30517578125,-0.1220703125,0.0,0.446044921875,-0.8017578125,0.3984375,-298.0,149.0,-149.0,101701.0,-3.125000238418579,0,0
1.644717999995919,0.3714599609375,-0.451263427734375,0.311187744140625,-0.74932861328125,0.244140625,0.18310546875,0.0,0.4444580078125,-0.8001708984375,0.3992919921875,-298.0,149.0,-149.0,101701.0,-3.125000238418579,0,0
1.6447737999988021,0.3714599609375,-0.451263427734375,0.311187744140625,-0.74932861328125,0.06103515625,-0.1220703125,0.30517578125,0.445556640625,-0.80078125,0.4007568359375,-298.0,149.0,-149.0,101701.0,-3.125000238418579,0,0
1.644827299998724,0.371429443359375,-0.451263427734375,0.3111572265625,-0.74932861328125,-0.06103515625,-0.06103515625,0.06103515625,0.4449462890625,-0.8004150390625,0.4005126953125,-298.0,149.0,-149.0,101701.0,-3.125000238418579,0,0
1.6448802999948384,0.3714599609375,-0.451263427734375,0.3111572265625,-0.74932861328125,0.0,-0.06103515625,0.0,0.447998046875,-0.8017578125,0.3984375,-298.0,149.0,-149.0,101701.0,-3.125000238418579,0,0
1.6449326000001747,0.371429443359375,-0.451263427734375,0.3111572265625,-0.74932861328125,0.06103515625,0.0,0.1220703125,0.4456787109375,-0.8028564453125,0.4000244140625,-298.0,149.0,-149.0,101701.0,-3.125000238418579,0,0
1.6450037000031443,0.371429443359375,-0.451263427734375,0.3111572265625,-0.74932861328125,0.06103515625,0.0,0.1220703125,0.4456787109375,-0.8028564453125,0.4000244140625,-298.0,149.0,-149.0,101701.0,-3.125000238418579,0,0
1.6451126000029035,0.3714599609375,-0.451263427734375,0.3111572265625,-0.74932861328125,0.1220703125,-0.3662109375,-0.06103515625,0.444580078125,-0.80224609375,0.4019775390625,-298.0,149.0,-149.0,101701.0,-3.125000238418579,0,0
1.6451646000059554,0.3714599609375,-0.451263427734375,0.3111572265625,-0.74932861328125,0.06103515625,0.06103515625,0.1220703125,0.445068359375,-0.8018798828125,0.3985595703125,-298.0,149.0,-149.0,101701.0,-3.125000238418579,0,0
1.645217400000547,0.3714599609375,-0.451263427734375,0.3111572265625,-0.74932861328125,0.1220703125,-0.06103515625,-0.18310546875,0.4434814453125,-0.8033447265625,0.39990234375,-298.0,149.0,-149.0,101701.0,-3.125000238418579,0,0
1.6452697000058834,0.3714599609375,-0.451263427734375,0.3111572265625,-0.74932861328125,0.06103515625,-0.06103515625,-0.18310546875,0.4442138671875,-0.801025390625,0.3997802734375,-298.0,149.0,-149.0,101701.0,-3.125000238418579,0,0
1.6453218999959063,0.3714599609375,-0.451263427734375,0.3111572265625,-0.74932861328125,0.06103515625,0.06103515625,0.06103515625,0.4449462890625,-0.8013916015625,0.400634765625,-298.0,149.0,-149.0,101701.0,-3.125000238418579,0,0
1.6453728000051342,0.3714599609375,-0.451263427734375,0.3111572265625,-0.74932861328125,0.1220703125,0.0,-0.244140625,0.443359375,-0.80078125,0.3985595703125,-298.0,149.0,-149.0,101701.0,-3.125000238418579,0,0
1.7129712000023574,0.3714599609375,-0.45123291015625,0.311187744140625,-0.749359130859375,-0.1220703125,0.1220703125,0.0,0.4456787109375,-0.8018798828125,0.4005126953125,-298.0,149.0,-149.0,101701.0,-3.125000238418579,0,0
1.7130405999923823,0.3714599609375,-0.45123291015625,0.311187744140625,-0.749359130859375,-0.1220703125,0.1220703125,0.0,0.4456787109375,-0.8018798828125,0.4005126953125,-298.0,149.0,-149.0,101701.0,-3.125000238418579,0,0
1.7131012000027113,0.3714599609375,-0.45123291015625,0.311187744140625,-0.749359130859375,0.06103515625,0.06103515625,-0.1220703125,0.4434814453125,-0.8016357421875,0.400390625,-298.0,149.0,-149.0,101701.0,-3.125000238418579,0,0
1.7131613999954425,0.3714599609375,-0.45123291015625,0.311187744140625,-0.749359130859375,0.18310546875,-0.18310546875,-0.18310546875,0.4442138671875,-0.8018798828125,0.3988037109375,-298.0,149.0,-149.0,101701.0,-3.125000238418579,0,0
1.7132213000004413,0.3714599609375,-0.45123291015625,0.311187744140625,-0.749359130859375,0.244140625,0.0,0.06103515625,0.4443359375,-0.8018798828125,0.3995361328125,-298.0,149.0,-149.0,101701.0,-3.125000238418579,0,0
1.715117800005828,0.3714599609375,-0.45123291015625,0.311187744140625,-0.74932861328125,0.18310546875,-0.06103515625,-0.06103515625,0.4427490234375,-0.8017578125,0.3983154296875,-298.0,149.0,-149.0,101700.0,-3.125000238418579,0,0
1.7151832999952603,0.3714599609375,-0.45123291015625,0.311187744140625,-0.74932861328125,-0.244140625,-0.18310546875,-0.244140625,0.4449462890625,-0.802978515625,0.3978271484375,-299.0,150.0,-149.0,101700.0,-3.125000238418579,0,0
1.715243200000259,0.371673583984375,-0.4512939453125,0.311065673828125,-0.749237060546875,-0.1220703125,-0.18310546875,0.1220703125,0.44580078125,-0.8017578125,0.3985595703125,-299.0,150.0,-149.0,101700.0,-3.125000238418579,0,0
1.7153028000029735,0.371673583984375,-0.4512939453125,0.311065673828125,-0.749237060546875,0.06103515625,0.0,-0.06103515625,0.445556640625,-0.8028564453125,0.39990234375,-299.0,150.0,-149.0,101700.0,-3.125000238418579,0,0
1.7153606999927433,0.371673583984375,-0.4512939453125,0.311065673828125,-0.749237060546875,-0.06103515625,-0.18310546875,-0.18310546875,0.444091796875,-0.801025390625,0.400634765625,-299.0,150.0,-149.0,101700.0,-3.125000238418579,0,0
1.7154168999986723,0.371673583984375,-0.4512939453125,0.311065673828125,-0.749237060546875,-0.06103515625,-0.18310546875,-0.18310546875,0.444091796875,-0.801025390625,0.400634765625,-299.0,150.0,-149.0,101700.0,-3.125000238418579,0,0
1.7689863999985391,0.371673583984375,-0.4512939453125,0.311065673828125,-0.749267578125,0.18310546875,-0.06103515625,-0.18310546875,0.4461669921875,-0.801513671875,0.4005126953125,-299.0,150.0,-149.0,101700.0,-3.125000238418579,0,0
1.769053800002439,0.371673583984375,-0.4512939453125,0.311065673828125,-0.749267578125,-0.06103515625,0.06103515625,0.1220703125,0.4476318359375,-0.802734375,0.399169921875,-299.0,150.0,-149.0,101700.0,-3.125000238418579,0,0
1.7691150000027847,0.371673583984375,-0.4512939453125,0.311065673828125,-0.749267578125,0.06103515625,0.0,-0.06103515625,0.445556640625,-0.803466796875,0.399658203125,-299.0,150.0,-149.0,101700.0,-3.125000238418579,0,0
1.7691756999993231,0.371673583984375,-0.4512939453125,0.311065673828125,-0.749267578125,0.3662109375,-0.06103515625,-0.06103515625,0.4447021484375,-0.8018798828125,0.3994140625,-299.0,150.0,-149.0,101700.0,-3.125000238418579,0,0
1.7692384999973,0.371673583984375,-0.4512939453125,0.311065673828125,-0.749237060546875,-0.18310546875,0.1220703125,-0.18310546875,0.446533203125,-0.802490234375,0.399169921875,-299.0,150.0,-149.0,101700.0,-3.125000238418579,0,0
1.769313199998578,0.371673583984375,-0.4512939453125,0.311065673828125,-0.749237060546875,0.1220703125,0.1220703125,0.06103515625,0.4471435546875,-0.8050537109375,0.399169921875,-299.0,150.0,-149.0,101700.0,-3.125000238418579,0,0
1.7693712000036612,0.371673583984375,-0.4512939453125,0.311065673828125,-0.749237060546875,0.0,-0.1220703125,-0.18310546875,0.4456787109375,-0.80419921875,0.400146484375,-299.0,150.0,-149.0,101700.0,-3.125000238418579,0,0
1.769447400001809,0.371673583984375,-0.4512939453125,0.311065673828125,-0.749237060546875,0.0,-0.1220703125,-0.18310546875,0.4456787109375,-0.80419921875,0.400146484375,-299.0,150.0,-149.0,101700.0,-3.125000238418579,0,0
1.7695422999968287,0.371673583984375,-0.4512939453125,0.311065673828125,-0.749237060546875,0.30517578125,-0.06103515625,-0.06103515625,0.443359375,-0.802001953125,0.4007568359375,-299.0,150.0,-149.0,101700.0,-3.125000238418579,0,0
1.7696081000030972,0.371673583984375,-0.4512939453125,0.311065673828125,-0.749237060546875,0.0,-0.30517578125,-0.06103515625,0.44287109375,-0.80224609375,0.4010009765625,-299.0,150.0,-149.0,101700.0,-3.125000238418579,0,0
1.7696653000020888,0.371673583984375,-0.4512939453125,0.311065673828125,-0.749237060546875,0.244140625,0.18310546875,-0.18310546875,0.4462890625,-0.80224609375,0.399658203125,-299.0,150.0,-149.0,101700.0,-3.125000238418579,0,0
1.8331843000050867,0.371673583984375,-0.4512939453125,0.311065673828125,-0.749237060546875,-0.06103515625,-0.18310546875,-0.18310546875,0.4447021484375,-0.802001953125,0.3980712890625,-299.0,150.0,-149.0,101700.0,-3.125000238418579,0,0
1.8332488000014564,0.371673583984375,-0.4512939453125,0.311065673828125,-0.749237060546875,0.1220703125,-0.30517578125,-0.244140625,0.4437255859375,-0.7999267578125,0.399658203125,-299.0,150.0,-149.0,101700.0,-3.125000238418579,0,0
1.833304900006624,0.371673583984375,-0.4512939453125,0.311065673828125,-0.749237060546875,0.1220703125,-0.30517578125,-0.244140625,0.4437255859375,-0.7999267578125,0.399658203125,-299.0,149.0,-149.0,101700.0,-3.124000072479248,0,0
1.8333593999996083,0.371856689453125,-0.451385498046875,0.310943603515625,-0.7491455078125,0.1220703125,0.0,0.0,0.44677734375,-0.8023681640625,0.3992919921875,-299.0,149.0,-149.0,101700.0,-3.124000072479248,0,0
1.8334137000056216,0.371856689453125,-0.451385498046875,0.310943603515625,-0.7491455078125,-0.18310546875,0.06103515625,-0.18310546875,0.4471435546875,-0.8017578125,0.4002685546875,-299.0,149.0,-149.0,101700.0,-3.124000072479248,0,0
1.833469100005459,0.371856689453125,-0.451385498046875,0.310943603515625,-0.7491455078125,-0.18310546875,0.06103515625,-0.18310546875,0.4471435546875,-0.8017578125,0.4002685546875,-299.0,149.0,-149.0,101700.0,-3.124000072479248,0,0
1.833538499995484,0.371856689453125,-0.451385498046875,0.310943603515625,-0.7491455078125,-0.1220703125,-0.18310546875,-0.30517578125,0.4468994140625,-0.802001953125,0.4002685546875,-299.0,149.0,-149.0,101700.0,-3.124000072479248,0,0
1.8335940999968443,0.371856689453125,-0.451385498046875,0.310943603515625,-0.7491455078125,-0.1220703125,-0.18310546875,-0.30517578125,0.4468994140625,-0.802001953125,0.4002685546875,-299.0,149.0,-149.0,101700.0,-3.124000072479248,0,0
1.8336519000004046,0.371856689453125,-0.451385498046875,0.310943603515625,-0.7491455078125,-0.30517578125,-0.1220703125,0.18310546875,0.4453125,-0.80029296875,0.3973388671875,-299.0,149.0,-149.0,101700.0,-3.124000072479248,0,0
1.8337106999970274,0.371856689453125,-0.451385498046875,0.3109130859375,-0.7491455078125,0.0,0.1220703125,-0.06103515625,0.4451904296875,-0.800048828125,0.399658203125,-299.0,149.0,-149.0,101700.0,-3.124000072479248,0,0
1.8337644999992335,0.371856689453125,-0.451385498046875,0.310943603515625,-0.7491455078125,-0.06103515625,-0.244140625,0.244140625,0.4449462890625,-0.802734375,0.3980712890625,-299.0,149.0,-149.0,101700.0,-3.124000072479248,0,0
1.8338195999967866,0.371856689453125,-0.451385498046875,0.3109130859375,-0.7491455078125,-0.06103515625,-0.244140625,0.244140625,0.4449462890625,-0.802734375,0.3980712890625,-299.0,149.0,-149.0,101700.0,-3.124000072479248,0,0
1.8339453999942634,0.371856689453125,-0.451385498046875,0.310943603515625,-0.7491455078125,0.0,-0.06103515625,0.0,0.447265625,-0.8004150390625,0.3988037109375,-299.0,149.0,-149.0,101700.0,-3.124000072479248,0,0
1.8970938999991631,0.371856689453125,-0.451385498046875,0.3109130859375,-0.7491455078125,0.06103515625,-0.30517578125,0.1220703125,0.4453125,-0.801513671875,0.39892578125,-299.0,149.0,-149.0,101700.0,-3.124000072479248,0,0
1.8971942000061972,0.371856689453125,-0.451385498046875,0.310943603515625,-0.7491455078125,-0.06103515625,0.0,0.06103515625,0.446533203125,-0.803466796875,0.3970947265625,-299.0,149.0,-149.0,101700.0,-3.124000072479248,0,0
1.8972805999947013,0.371856689453125,-0.451385498046875,0.310943603515625,-0.7491455078125,0.244140625,-0.06103515625,0.0,0.4427490234375,-0.803955078125,0.3997802734375,-299.0,149.0,-149.0,101700.0,-3.124000072479248,0,0
1.8973438999964856,0.371856689453125,-0.451385498046875,0.310943603515625,-0.7491455078125,0.18310546875,0.06103515625,0.0,0.446044921875,-0.8016357421875,0.400146484375,-299.0,149.0,-149.0,101700.0,-3.124000072479248,0,0
1.8974031999969156,0.371856689453125,-0.451385498046875,0.310943603515625,-0.7491455078125,0.06103515625,0.0,0.30517578125,0.4459228515625,-0.802978515625,0.400390625,-299.0,149.0,-149.0,101700.0,-3.124000072479248,0,0
1.8985673999995925,0.371856689453125,-0.451385498046875,0.310943603515625,-0.7491455078125,-0.06103515625,-0.06103515625,0.0,0.4451904296875,-0.8016357421875,0.4000244140625,-299.0,149.0,-149.0,101700.0,-3.124000072479248,0,0
1.8986366000026464,0.371856689453125,-0.451385498046875,0.310943603515625,-0.7491455078125,-0.1220703125,0.0,0.0,0.4434814453125,-0.8006591796875,0.400146484375,-299.0,149.0,-149.0,101700.0,-3.124000072479248,0,0
1.898721999998088,0.371856689453125,-0.451385498046875,0.310943603515625,-0.7491455078125,0.0,-0.06103515625,0.0,0.4453125,-0.80224609375,0.4000244140625,-297.0,148.0,-149.0,101700.0,-3.124000072479248,0,0
1.8987972000031732,0.371856689453125,-0.451385498046875,0.310943603515625,-0.7491455078125,-0.42724609375,-0.3662109375,-0.18310546875,0.445068359375,-0.80224609375,0.3980712890625,-297.0,148.0,-149.0,101700.0,-3.124000072479248,0,0
1.8988605000049574,0.371856689453125,-0.451385498046875,0.310943603515625,-0.7491455078125,-0.42724609375,-0.3662109375,-0.18310546875,0.445068359375,-0.80224609375,0.3980712890625,-297.0,148.0,-149.0,101700.0,-3.124000072479248,0,0
1.8989198000053875,0.3719482421875,-0.451446533203125,0.310882568359375,-0.749114990234375,-0.06103515625,-0.1220703125,-0.244140625,0.4464111328125,-0.8021240234375,0.397216796875,-297.0,148.0,-149.0,101700.0,-3.124000072479248,0,0
1.9640785999945365,0.3719482421875,-0.451416015625,0.310882568359375,-0.749114990234375,-0.1220703125,-0.06103515625,-0.18310546875,0.4442138671875,-0.801513671875,0.3994140625,-297.0,148.0,-149.0,101700.0,-3.124000072479248,0,0
1.9641447000030894,0.3719482421875,-0.451416015625,0.310882568359375,-0.749114990234375,0.42724609375,-0.1220703125,-0.06103515625,0.4434814453125,-0.802001953125,0.397216796875,-297.0,148.0,-149.0,101700.0,-3.124000072479248,0,0
1.9642042000050424,0.3719482421875,-0.451416015625,0.310882568359375,-0.749114990234375,-0.18310546875,-0.06103515625,0.06103515625,0.44482421875,-0.802490234375,0.3990478515625,-297.0,148.0,-149.0,101700.0,-3.124000072479248,0,0
1.964260299995658,0.3719482421875,-0.451446533203125,0.310882568359375,-0.749114990234375,-0.06103515625,-0.06103515625,-0.06103515625,0.4478759765625,-0.8018798828125,0.3997802734375,-297.0,148.0,-149.0,101700.0,-3.124000072479248,0,0
1.9643188000045484,0.3719482421875,-0.451416015625,0.310882568359375,-0.749114990234375,0.1220703125,0.0,0.18310546875,0.4444580078125,-0.8021240234375,0.3988037109375,-297.0,148.0,-149.0,101700.0,-3.124000072479248,0,0
1.9645650000020396,0.3719482421875,-0.451416015625,0.310882568359375,-0.749114990234375,0.0,-0.244140625,0.18310546875,0.446044921875,-0.802001953125,0.4002685546875,-297.0,148.0,-149.0,101700.0,-3.124000072479248,0,0
1.9646308999945177,0.3719482421875,-0.451416015625,0.310882568359375,-0.749114990234375,0.0,-0.244140625,0.18310546875,0.446044921875,-0.802001953125,0.4002685546875,-297.0,148.0,-149.0,101700.0,-3.124000072479248,0,0
1.9740872999973362,0.371978759765625,-0.451416015625,0.310882568359375,-0.749114990234375,-0.18310546875,-0.1220703125,-0.18310546875,0.4447021484375,-0.80322265625,0.3995361328125,-297.0,148.0,-149.0,101700.0,-3.124000072479248,0,0
1.974151599992183,0.371978759765625,-0.451416015625,0.310882568359375,-0.749114990234375,-0.18310546875,-0.18310546875,0.1220703125,0.441650390625,-0.8016357421875,0.4002685546875,-297.0,148.0,-149.0,101700.0,-3.124000072479248,0,0
1.9742078999988735,0.371978759765625,-0.451416015625,0.310882568359375,-0.749114990234375,0.54931640625,-0.06103515625,0.06103515625,0.4451904296875,-0.8038330078125,0.39892578125,-297.0,148.0,-149.0,101700.0,-3.124000072479248,0,0
1.9742607999942265,0.371978759765625,-0.451416015625,0.310882568359375,-0.749114990234375,0.18310546875,0.06103515625,-0.18310546875,0.4473876953125,-0.800537109375,0.4002685546875,-297.0,148.0,-149.0,101700.0,-3.124000072479248,0,0
2.0241400999948382,0.371978759765625,-0.451416015625,0.310882568359375,-0.749114990234375,0.244140625,-0.18310546875,0.1220703125,0.4439697265625,-0.8031005859375,0.3983154296875,-297.0,148.0,-149.0,101700.0,-3.124000072479248,0,0
2.024202899992815,0.371978759765625,-0.451416015625,0.310882568359375,-0.749114990234375,-0.06103515625,0.06103515625,-0.244140625,0.446533203125,-0.802978515625,0.400146484375,-297.0,148.0,-149.0,101700.0,-3.124000072479248,0,0
2.0242594000010286,0.371978759765625,-0.451416015625,0.310882568359375,-0.749114990234375,-0.1220703125,0.0,0.0,0.4459228515625,-0.80029296875,0.3992919921875,-297.0,148.0,-149.0,101700.0,-3.124000072479248,0,0
2.024316099996213,0.371978759765625,-0.451416015625,0.310882568359375,-0.749114990234375,-0.1220703125,-0.18310546875,-0.1220703125,0.4444580078125,-0.802734375,0.398681640625,-297.0,148.0,-149.0,101700.0,-3.124000072479248,0,0
2.024405200005276,0.371978759765625,-0.451416015625,0.310882568359375,-0.749114990234375,-0.1220703125,-0.18310546875,-0.1220703125,0.4444580078125,-0.802734375,0.398681640625,-297.0,148.0,-149.0,101700.0,-3.124000072479248,0,0
2.024458500003675,0.371978759765625,-0.451416015625,0.310882568359375,-0.749114990234375,0.244140625,-0.244140625,0.06103515625,0.44482421875,-0.80322265625,0.3995361328125,-296.0,149.0,-150.0,101700.0,-3.124000072479248,0,0
2.024510499992175,0.371978759765625,-0.451416015625,0.310882568359375,-0.749114990234375,-0.18310546875,0.06103515625,-0.06103515625,0.444091796875,-0.8004150390625,0.3995361328125,-296.0,149.0,-150.0,101700.0,-3.124000072479248,0,0
2.0245758999953978,0.371978759765625,-0.451416015625,0.310882568359375,-0.749114990234375,0.06103515625,-0.06103515625,-0.06103515625,0.444580078125,-0.80126953125,0.3995361328125,-296.0,149.0,-150.0,101700.0,-3.124000072479248,0,0
2.024629099993035,0.371978759765625,-0.451416015625,0.310882568359375,-0.749114990234375,0.1220703125,0.06103515625,0.1220703125,0.4454345703125,-0.8009033203125,0.398681640625,-296.0,149.0,-150.0,101700.0,-3.124000072479248,0,0
2.024681700000656,0.3719482421875,-0.451416015625,0.310882568359375,-0.749114990234375,0.18310546875,-0.244140625,-0.06103515625,0.447509765625,-0.8009033203125,0.3978271484375,-296.0,149.0,-150.0,101700.0,-3.124000072479248,0,0
2.02493470000627,0.3719482421875,-0.451416015625,0.310882568359375,-0.749114990234375,0.0,0.06103515625,0.18310546875,0.445068359375,-0.8004150390625,0.3984375,-296.0,149.0,-150.0,101700.0,-3.124000072479248,0,0
2.025017599997227,0.3719482421875,-0.451416015625,0.310882568359375,-0.749114990234375,-0.06103515625,-0.18310546875,0.0,0.4449462890625,-0.8031005859375,0.398681640625,-296.0,149.0,-150.0,101700.0,-3.124000072479248,0,0
2.0250759000045946,0.3719482421875,-0.451416015625,0.310882568359375,-0.749114990234375,-0.18310546875,-0.1220703125,-0.18310546875,0.4454345703125,-0.8001708984375,0.3978271484375,-296.0,149.0,-150.0,101700.0,-3.124000072479248,0,0
2.0910519000026397,0.3719482421875,-0.451416015625,0.31085205078125,-0.749114990234375,0.0,0.0,-0.1220703125,0.4451904296875,-0.8021240234375,0.39892578125,-296.0,149.0,-150.0,101700.0,-3.124000072479248,0,0
2.0911398000025656,0.3719482421875,-0.451416015625,0.31085205078125,-0.749114990234375,0.30517578125,-0.06103515625,-0.18310546875,0.4454345703125,-0.80029296875,0.400634765625,-296.0,149.0,-150.0,101700.0,-3.124000072479248,0,0
2.091196299996227,0.3719482421875,-0.451416015625,0.31085205078125,-0.749114990234375,0.1220703125,-0.18310546875,-0.244140625,0.446533203125,-0.799072265625,0.3988037109375,-296.0,149.0,-150.0,101700.0,-3.124000072479248,0,0
2.091253099992173,0.3719482421875,-0.451416015625,0.31085205078125,-0.749114990234375,-0.06103515625,-0.06103515625,0.0,0.4451904296875,-0.8018798828125,0.39892578125,-296.0,149.0,-150.0,101700.0,-3.124000072479248,0,0
2.091310000003432,0.3719482421875,-0.451416015625,0.31085205078125,-0.749114990234375,0.0,-0.244140625,0.0,0.4449462890625,-0.7998046875,0.3985595703125,-296.0,149.0,-150.0,101700.0,-3.124000072479248,0,0
2.1117073000059463,0.3719482421875,-0.451416015625,0.310821533203125,-0.749114990234375,-0.06103515625,0.0,0.0,0.445068359375,-0.798095703125,0.4002685546875,-296.0,149.0,-150.0,101700.0,-3.124000072479248,0,0
2.1117702000046847,0.3719482421875,-0.451416015625,0.310821533203125,-0.749114990234375,0.18310546875,-0.1220703125,-0.18310546875,0.447509765625,-0.8001708984375,0.3995361328125,-296.0,149.0,-150.0,101700.0,-3.124000072479248,0,0
2.1118278999929316,0.3719482421875,-0.451416015625,0.310821533203125,-0.7491455078125,0.1220703125,0.0,-0.1220703125,0.44482421875,-0.80029296875,0.4005126953125,-296.0,149.0,-150.0,101700.0,-3.124000072479248,0,0
2.1118850000057137,0.3719482421875,-0.451416015625,0.310821533203125,-0.7491455078125,0.1220703125,0.0,-0.1220703125,0.44482421875,-0.80029296875,0.4005126953125,-296.0,149.0,-150.0,101700.0,-3.124000072479248,0,0
2.1119428999954835,0.3719482421875,-0.451416015625,0.310821533203125,-0.749114990234375,-0.06103515625,-0.1220703125,0.1220703125,0.4447021484375,-0.801025390625,0.400390625,-296.0,149.0,-150.0,101700.0,-3.123000144958496,0,0
2.112000299995998,0.3719482421875,-0.451416015625,0.310821533203125,-0.749114990234375,-0.06103515625,-0.1220703125,-0.18310546875,0.445556640625,-0.802490234375,0.40087890625,-296.0,149.0,-150.0,101700.0,-3.123000144958496,0,0
2.149442199995974,0.3719482421875,-0.451416015625,0.310821533203125,-0.7491455078125,-0.18310546875,-0.244140625,-0.1220703125,0.4459228515625,-0.8035888671875,0.3994140625,-296.0,149.0,-150.0,101700.0,-3.123000144958496,0,0
2.1495162999926833,0.3719482421875,-0.451416015625,0.310821533203125,-0.749114990234375,0.18310546875,0.06103515625,-0.1220703125,0.4453125,-0.8018798828125,0.3985595703125,-296.0,149.0,-150.0,101700.0,-3.123000144958496,0,0
2.149576199997682,0.3719482421875,-0.451416015625,0.31085205078125,-0.749114990234375,0.30517578125,0.244140625,-0.1220703125,0.445068359375,-0.802978515625,0.3978271484375,-296.0,149.0,-150.0,101700.0,-3.123000144958496,0,0
2.1496362000034424,0.3719482421875,-0.451416015625,0.31085205078125,-0.749114990234375,0.06103515625,-0.30517578125,-0.30517578125,0.4478759765625,-0.80322265625,0.3994140625,-296.0,149.0,-150.0,101700.0,-3.123000144958496,0,0
2.1497443999978714,0.3719482421875,-0.451416015625,0.31085205078125,-0.749114990234375,0.0,0.06103515625,-0.06103515625,0.444091796875,-0.8045654296875,0.3973388671875,-296.0,149.0,-150.0,101700.0,-3.123000144958496,0,0
2.150087200003327,0.3719482421875,-0.451416015625,0.31085205078125,-0.749114990234375,0.0,0.06103515625,-0.06103515625,0.444091796875,-0.8045654296875,0.3973388671875,-296.0,149.0,-150.0,101700.0,-3.123000144958496,0,0
2.1501534999988507,0.3719482421875,-0.451416015625,0.31085205078125,-0.749114990234375,0.1220703125,-0.06103515625,0.0,0.4461669921875,-0.7996826171875,0.39794921875,-296.0,149.0,-150.0,101700.0,-3.123000144958496,0,0
2.150214199995389,0.3719482421875,-0.451416015625,0.31085205078125,-0.749114990234375,0.1220703125,-0.1220703125,-0.18310546875,0.44482421875,-0.80126953125,0.3997802734375,-296.0,149.0,-150.0,101700.0,-3.123000144958496,0,0
2.1502739999996265,0.3719482421875,-0.451446533203125,0.31085205078125,-0.749114990234375,0.244140625,0.0,-0.06103515625,0.444580078125,-0.800537109375,0.3970947265625,-296.0,149.0,-150.0,101700.0,-3.123000144958496,0,0
2.1503322000062326,0.3719482421875,-0.451446533203125,0.31085205078125,-0.749114990234375,0.244140625,0.0,-0.18310546875,0.4434814453125,-0.7989501953125,0.398681640625,-296.0,149.0,-150.0,101700.0,-3.123000144958496,0,0
2.1503902999975253,0.3719482421875,-0.451446533203125,0.31085205078125,-0.749114990234375,-0.06103515625,0.06103515625,0.06103515625,0.44580078125,-0.8004150390625,0.398193359375,-296.0,149.0,-150.0,101700.0,-3.123000144958496,0,0
2.282370600005379,0.371917724609375,-0.45147705078125,0.31085205078125,-0.749114990234375,0.1220703125,-0.06103515625,-0.18310546875,0.4462890625,-0.8006591796875,0.3995361328125,-296.0,150.0,-149.0,101700.0,-3.122000217437744,0,0
2.2824308999988716,0.371917724609375,-0.45147705078125,0.31085205078125,-0.749114990234375,0.1220703125,-0.06103515625,-0.18310546875,0.4462890625,-0.8006591796875,0.3995361328125,-296.0,150.0,-149.0,101700.0,-3.122000217437744,0,0
2.2824888000031933,0.371917724609375,-0.45147705078125,0.31085205078125,-0.749114990234375,-0.06103515625,-0.1220703125,0.0,0.44775390625,-0.8009033203125,0.3984375,-296.0,150.0,-149.0,101700.0,-3.122000217437744,0,0
2.282544500005315,0.371917724609375,-0.45147705078125,0.31085205078125,-0.749114990234375,0.0,-0.06103515625,0.06103515625,0.4473876953125,-0.803466796875,0.3994140625,-296.0,150.0,-149.0,101700.0,-3.122000217437744,0,0
2.283585500001209,0.371917724609375,-0.45147705078125,0.31085205078125,-0.749114990234375,0.0,-0.18310546875,-0.1220703125,0.445068359375,-0.7999267578125,0.3988037109375,-296.0,150.0,-149.0,101700.0,-3.122000217437744,0,0
2.2839127000042936,0.371917724609375,-0.45147705078125,0.31085205078125,-0.749114990234375,0.244140625,-0.1220703125,-0.18310546875,0.44580078125,-0.8011474609375,0.3980712890625,-296.0,150.0,-149.0,101700.0,-3.122000217437744,0,0
2.283966100003454,0.371917724609375,-0.45147705078125,0.31085205078125,-0.749114990234375,-0.42724609375,-0.1220703125,-0.1220703125,0.44580078125,-0.8033447265625,0.3974609375,-296.0,150.0,-149.0,101700.0,-3.122000217437744,0,0
2.284058699995512,0.371917724609375,-0.45147705078125,0.31085205078125,-0.749114990234375,-0.42724609375,-0.1220703125,-0.1220703125,0.44580078125,-0.8033447265625,0.3974609375,-296.0,150.0,-149.0,101700.0,-3.122000217437744,0,0
2.284111300003133,0.371917724609375,-0.45147705078125,0.31085205078125,-0.749114990234375,-0.18310546875,-0.244140625,-0.18310546875,0.44775390625,-0.8017578125,0.3985595703125,-296.0,150.0,-149.0,101700.0,-3.122000217437744,0,0
2.2841640999977244,0.371917724609375,-0.45147705078125,0.31085205078125,-0.749114990234375,0.18310546875,-0.06103515625,-0.06103515625,0.4442138671875,-0.8017578125,0.399169921875,-296.0,150.0,-149.0,101700.0,-3.122000217437744,0,0
2.284217599997646,0.371917724609375,-0.45147705078125,0.31085205078125,-0.749114990234375,0.18310546875,0.06103515625,-0.06103515625,0.443603515625,-0.8021240234375,0.3990478515625,-296.0,150.0,-149.0,101700.0,-3.122000217437744,0,0
2.3431124000053387,0.371917724609375,-0.45147705078125,0.31085205078125,-0.749114990234375,-0.244140625,0.18310546875,0.0,0.4447021484375,-0.802490234375,0.397216796875,-296.0,150.0,-149.0,101700.0,-3.122000217437744,0,0
2.3431756000063615,0.371917724609375,-0.45147705078125,0.31085205078125,-0.749114990234375,-0.18310546875,0.18310546875,0.06103515625,0.44482421875,-0.803466796875,0.3984375,-296.0,150.0,-149.0,101700.0,-3.122000217437744,0,0
2.3493240999960108,0.371917724609375,-0.45147705078125,0.31085205078125,-0.749114990234375,0.1220703125,-0.1220703125,0.18310546875,0.44482421875,-0.8011474609375,0.3992919921875,-296.0,150.0,-149.0,101700.0,-3.122000217437744,0,0
2.3493939000036335,0.371917724609375,-0.45147705078125,0.31085205078125,-0.749114990234375,-0.06103515625,-0.1220703125,0.06103515625,0.446533203125,-0.80224609375,0.3978271484375,-296.0,150.0,-149.0,101700.0,-3.122000217437744,0,0
2.3494518999941647,0.371917724609375,-0.45147705078125,0.31085205078125,-0.749114990234375,-0.06103515625,-0.1220703125,0.06103515625,0.446533203125,-0.80224609375,0.3978271484375,-296.0,150.0,-149.0,101700.0,-3.122000217437744,0,0
2.349841200004448,0.371917724609375,-0.45147705078125,0.31085205078125,-0.749114990234375,-0.3662109375,0.0,0.06103515625,0.4468994140625,-0.80029296875,0.3985595703125,-296.0,150.0,-149.0,101700.0,-3.122000217437744,0,0
2.3498993999965023,0.371917724609375,-0.451507568359375,0.31085205078125,-0.749114990234375,-0.1220703125,-0.06103515625,0.06103515625,0.4459228515625,-0.800048828125,0.3973388671875,-296.0,150.0,-149.0,101700.0,-3.122000217437744,0,0
2.349955099998624,0.371917724609375,-0.451507568359375,0.31085205078125,-0.74908447265625,0.1220703125,-0.06103515625,-0.18310546875,0.445556640625,-0.80224609375,0.3966064453125,-296.0,150.0,-149.0,101700.0,-3.122000217437744,0,0
2.350009999994654,0.371917724609375,-0.451507568359375,0.31085205078125,-0.74908447265625,0.0,-0.06103515625,-0.06103515625,0.4453125,-0.8031005859375,0.39892578125,-296.0,150.0,-149.0,101700.0,-3.124000072479248,0,0
2.3500625000015134,0.371917724609375,-0.451507568359375,0.31085205078125,-0.74908447265625,-0.06103515625,0.06103515625,-0.30517578125,0.44580078125,-0.802001953125,0.3975830078125,-296.0,150.0,-149.0,101700.0,-3.124000072479248,0,0
2.3501159000006737,0.371917724609375,-0.451507568359375,0.31085205078125,-0.74908447265625,-0.06103515625,0.06103515625,0.0,0.446533203125,-0.802001953125,0.3995361328125,-296.0,150.0,-149.0,101700.0,-3.124000072479248,0,0
2.4081672000029357,0.371917724609375,-0.451507568359375,0.31085205078125,-0.74908447265625,0.06103515625,0.1220703125,0.0,0.445556640625,-0.80126953125,0.3990478515625,-296.0,150.0,-149.0,101700.0,-3.124000072479248,0,0
2.4082379000028595,0.371917724609375,-0.451507568359375,0.31085205078125,-0.74908447265625,0.18310546875,0.0,-0.30517578125,0.44580078125,-0.7998046875,0.3980712890625,-296.0,150.0,-149.0,101700.0,-3.124000072479248,0,0
2.408297500005574,0.371917724609375,-0.451507568359375,0.31085205078125,-0.74908447265625,0.18310546875,0.0,-0.30517578125,0.44580078125,-0.7998046875,0.3980712890625,-296.0,150.0,-149.0,101700.0,-3.124000072479248,0,0
2.408353199993144,0.371917724609375,-0.451507568359375,0.31085205078125,-0.74908447265625,0.18310546875,-0.06103515625,0.0,0.4447021484375,-0.80078125,0.3973388671875,-296.0,150.0,-149.0,101700.0,-3.124000072479248,0,0
2.4084315999934915,0.371917724609375,-0.451507568359375,0.31085205078125,-0.74908447265625,-0.06103515625,-0.06103515625,0.0,0.4439697265625,-0.802490234375,0.3984375,-296.0,150.0,-149.0,101700.0,-3.124000072479248,0,0
2.408486400003312,0.371917724609375,-0.451507568359375,0.31085205078125,-0.74908447265625,-0.18310546875,-0.30517578125,-0.1220703125,0.44384765625,-0.802490234375,0.398193359375,-296.0,150.0,-149.0,101700.0,-3.124000072479248,0,0
2.4085422000061953,0.371917724609375,-0.451507568359375,0.31085205078125,-0.74908447265625,0.244140625,-0.06103515625,-0.1220703125,0.4454345703125,-0.80224609375,0.3985595703125,-296.0,150.0,-149.0,101700.0,-3.124000072479248,0,0
2.4102693000022555,0.371917724609375,-0.451507568359375,0.31085205078125,-0.74908447265625,-0.1220703125,0.1220703125,0.0,0.445556640625,-0.8016357421875,0.398193359375,-296.0,150.0,-149.0,101700.0,-3.124000072479248,0,0
2.4103294999949867,0.37200927734375,-0.4515380859375,0.310791015625,-0.7490234375,-0.06103515625,-0.06103515625,-0.06103515625,0.4449462890625,-0.800048828125,0.398681640625,-295.0,151.0,-150.0,101700.0,-3.124000072479248,0,0
2.4103839000017615,0.37200927734375,-0.4515380859375,0.310791015625,-0.7490234375,-0.1220703125,-0.06103515625,-0.244140625,0.445068359375,-0.8009033203125,0.3988037109375,-295.0,151.0,-150.0,101700.0,-3.124000072479248,0,0
2.410436699996353,0.37200927734375,-0.4515380859375,0.310791015625,-0.7490234375,0.0,0.0,0.06103515625,0.44580078125,-0.8011474609375,0.400634765625,-295.0,151.0,-150.0,101700.0,-3.124000072479248,0,0
2.4104920999961905,0.37200927734375,-0.4515380859375,0.310791015625,-0.7490234375,0.0,-0.06103515625,-0.18310546875,0.44482421875,-0.80224609375,0.3978271484375,-295.0,151.0,-150.0,101700.0,-3.124000072479248,0,0
2.4105446000030497,0.37200927734375,-0.4515380859375,0.310791015625,-0.7490234375,0.0,-0.06103515625,-0.18310546875,0.44482421875,-0.80224609375,0.3978271484375,-295.0,151.0,-150.0,101700.0,-3.124000072479248,0,0
2.4754332000011345,0.37200927734375,-0.4515380859375,0.310791015625,-0.749053955078125,0.244140625,0.06103515625,0.06103515625,0.44482421875,-0.8028564453125,0.4007568359375,-295.0,151.0,-150.0,101700.0,-3.124000072479248,0,0
2.4755052999971667,0.37200927734375,-0.4515380859375,0.310791015625,-0.749053955078125,-0.06103515625,-0.18310546875,-0.06103515625,0.4459228515625,-0.8021240234375,0.39990234375,-295.0,151.0,-150.0,101700.0,-3.124000072479248,0,0
2.4755625999969197,0.37200927734375,-0.4515380859375,0.310791015625,-0.749053955078125,-0.244140625,0.0,0.0,0.446533203125,-0.800537109375,0.3997802734375,-295.0,151.0,-150.0,101700.0,-3.124000072479248,0,0
2.4756188000028487,0.37200927734375,-0.4515380859375,0.310791015625,-0.749053955078125,-0.244140625,0.0,0.0,0.446533203125,-0.800537109375,0.3997802734375,-295.0,151.0,-150.0,101700.0,-3.124000072479248,0,0
2.475672000000486,0.372039794921875,-0.4515380859375,0.310791015625,-0.749053955078125,0.244140625,-0.06103515625,0.06103515625,0.4456787109375,-0.8026123046875,0.398681640625,-295.0,151.0,-150.0,101700.0,-3.124000072479248,0,0
2.475764500006335,0.372039794921875,-0.4515380859375,0.310791015625,-0.749053955078125,0.244140625,-0.06103515625,-0.3662109375,0.44482421875,-0.8023681640625,0.3983154296875,-295.0,151.0,-150.0,101700.0,-3.124000072479248,0,0
2.4758173000009265,0.372039794921875,-0.4515380859375,0.310791015625,-0.749053955078125,0.244140625,-0.06103515625,-0.3662109375,0.44482421875,-0.8023681640625,0.3983154296875,-295.0,151.0,-150.0,101700.0,-3.124000072479248,0,0
2.4758711000031326,0.37200927734375,-0.4515380859375,0.310791015625,-0.749053955078125,-0.06103515625,0.0,-0.30517578125,0.4449462890625,-0.7999267578125,0.398681640625,-295.0,151.0,-150.0,101700.0,-3.124000072479248,0,0
2.47592430000077,0.37200927734375,-0.4515380859375,0.310791015625,-0.7490234375,-0.1220703125,0.244140625,-0.3662109375,0.4464111328125,-0.80029296875,0.3973388671875,-295.0,151.0,-150.0,101700.0,-3.124000072479248,0,0
2.475978100002976,0.37200927734375,-0.4515380859375,0.310791015625,-0.7490234375,0.06103515625,0.06103515625,0.0,0.4454345703125,-0.8006591796875,0.3975830078125,-295.0,151.0,-150.0,101700.0,-3.124000072479248,0,0
2.476035400002729,0.37200927734375,-0.4515380859375,0.310791015625,-0.7490234375,0.244140625,-0.1220703125,-0.18310546875,0.443115234375,-0.799560546875,0.3970947265625,-295.0,151.0,-150.0,101700.0,-3.124000072479248,0,0
2.533544799996889,0.37200927734375,-0.4515380859375,0.310791015625,-0.749053955078125,0.06103515625,0.0,-0.18310546875,0.4454345703125,-0.802734375,0.3992919921875,-295.0,150.0,-150.0,101700.0,-3.124000072479248,0,0
2.5336157999990974,0.371917724609375,-0.451507568359375,0.31085205078125,-0.74908447265625,-0.06103515625,-0.1220703125,0.1220703125,0.44482421875,-0.8011474609375,0.3975830078125,-295.0,150.0,-150.0,101700.0,-3.124000072479248,0,0
2.5336733000003733,0.371917724609375,-0.451507568359375,0.31085205078125,-0.74908447265625,-0.06103515625,-0.1220703125,0.1220703125,0.44482421875,-0.8011474609375,0.3975830078125,-295.0,150.0,-150.0,101700.0,-3.124000072479248,0,0
2.5337266999995336,0.371917724609375,-0.451507568359375,0.31085205078125,-0.74908447265625,-0.1220703125,0.1220703125,0.1220703125,0.44482421875,-0.8035888671875,0.3978271484375,-295.0,150.0,-150.0,101700.0,-3.124000072479248,0,0
2.533781199992518,0.371917724609375,-0.451507568359375,0.310882568359375,-0.74908447265625,0.1220703125,0.0,0.1220703125,0.445068359375,-0.802978515625,0.39990234375,-295.0,150.0,-150.0,101700.0,-3.124000072479248,0,0
2.53508060000604,0.371917724609375,-0.451507568359375,0.310882568359375,-0.74908447265625,0.0,0.1220703125,-0.1220703125,0.447021484375,-0.8043212890625,0.3990478515625,-295.0,150.0,-150.0,101700.0,-3.124000072479248,0,0
2.5351363999943715,0.371917724609375,-0.451507568359375,0.31085205078125,-0.74908447265625,0.06103515625,-0.06103515625,0.0,0.4466552734375,-0.8009033203125,0.401611328125,-295.0,150.0,-150.0,101700.0,-3.124000072479248,0,0
2.535224199993536,0.371917724609375,-0.451507568359375,0.31085205078125,-0.74908447265625,-0.1220703125,-0.18310546875,-0.06103515625,0.4442138671875,-0.8018798828125,0.3980712890625,-295.0,150.0,-150.0,101700.0,-3.124000072479248,0,0
2.5352778999949805,0.371917724609375,-0.451507568359375,0.310882568359375,-0.74908447265625,0.42724609375,0.06103515625,-0.18310546875,0.446044921875,-0.7996826171875,0.3970947265625,-295.0,150.0,-150.0,101700.0,-3.124000072479248,0,0
2.535331799997948,0.371917724609375,-0.451507568359375,0.31085205078125,-0.74908447265625,0.06103515625,-0.244140625,-0.06103515625,0.4466552734375,-0.800048828125,0.3968505859375,-295.0,150.0,-150.0,101700.0,-3.124000072479248,0,0
2.535383800001,0.371917724609375,-0.451507568359375,0.310882568359375,-0.74908447265625,0.0,-0.1220703125,-0.30517578125,0.4451904296875,-0.8017578125,0.3983154296875,-295.0,150.0,-150.0,101701.0,-3.126000165939331,0,0
2.535438000006252,0.371917724609375,-0.451507568359375,0.310882568359375,-0.74908447265625,0.18310546875,-0.18310546875,0.06103515625,0.4442138671875,-0.8017578125,0.3988037109375,-295.0,150.0,-150.0,101701.0,-3.126000165939331,0,0
2.6038993999973172,0.371917724609375,-0.451507568359375,0.310882568359375,-0.74908447265625,0.18310546875,-0.18310546875,0.06103515625,0.4442138671875,-0.8017578125,0.3988037109375,-295.0,150.0,-150.0,101701.0,-3.126000165939331,0,0
2.6039677999942796,0.371917724609375,-0.451507568359375,0.310882568359375,-0.74908447265625,0.06103515625,-0.1220703125,0.1220703125,0.445556640625,-0.8037109375,0.3992919921875,-295.0,150.0,-150.0,101701.0,-3.126000165939331,0,0
2.6040279000008013,0.371917724609375,-0.451507568359375,0.310882568359375,-0.74908447265625,0.244140625,0.06103515625,0.0,0.4442138671875,-0.80126953125,0.3990478515625,-295.0,150.0,-150.0,101701.0,-3.126000165939331,0,0
2.6040834000014,0.371917724609375,-0.451507568359375,0.310882568359375,-0.74908447265625,0.244140625,-0.18310546875,-0.1220703125,0.4447021484375,-0.801513671875,0.400146484375,-295.0,150.0,-150.0,101701.0,-3.126000165939331,0,0
2.604138199996669,0.371917724609375,-0.451507568359375,0.310882568359375,-0.74908447265625,-0.244140625,-0.06103515625,-0.06103515625,0.44482421875,-0.8011474609375,0.3988037109375,-295.0,150.0,-150.0,101701.0,-3.126000165939331,0,0
2.6041928000049666,0.371917724609375,-0.451507568359375,0.310882568359375,-0.74908447265625,0.1220703125,0.1220703125,0.06103515625,0.4464111328125,-0.8004150390625,0.398193359375,-295.0,150.0,-150.0,101701.0,-3.126000165939331,0,0
2.604305500004557,0.371917724609375,-0.451507568359375,0.310882568359375,-0.74908447265625,-0.06103515625,-0.18310546875,0.06103515625,0.4459228515625,-0.8017578125,0.399658203125,-295.0,150.0,-150.0,101701.0,-3.126000165939331,0,0
2.6043615999951726,0.371917724609375,-0.451507568359375,0.310882568359375,-0.74908447265625,0.0,-0.06103515625,0.0,0.4449462890625,-0.802490234375,0.3992919921875,-295.0,150.0,-150.0,101701.0,-3.126000165939331,0,0
2.604414600005839,0.371917724609375,-0.451507568359375,0.310882568359375,-0.74908447265625,0.0,-0.06103515625,-0.06103515625,0.44580078125,-0.8023681640625,0.3980712890625,-295.0,150.0,-150.0,101701.0,-3.126000165939331,0,0
2.604468100005761,0.371917724609375,-0.451507568359375,0.310882568359375,-0.74908447265625,0.0,-0.06103515625,-0.06103515625,0.44580078125,-0.8023681640625,0.3980712890625,-295.0,150.0,-150.0,101701.0,-3.126000165939331,0,0
2.604519700005767,0.371795654296875,-0.45147705078125,0.310943603515625,-0.749114990234375,0.06103515625,0.0,0.1220703125,0.444580078125,-0.8035888671875,0.3985595703125,-295.0,151.0,-151.0,101701.0,-3.126000165939331,0,0
2.604575499994098,0.371795654296875,-0.45147705078125,0.310943603515625,-0.749114990234375,0.1220703125,-0.1220703125,0.06103515625,0.4437255859375,-0.801513671875,0.3985595703125,-295.0,151.0,-151.0,101701.0,-3.126000165939331,0,0
2.6620619000023,0.371795654296875,-0.45147705078125,0.310943603515625,-0.749114990234375,-0.1220703125,-0.30517578125,-0.1220703125,0.44384765625,-0.803466796875,0.399658203125,-295.0,151.0,-151.0,101701.0,-3.126000165939331,0,0
2.6621271000039997,0.371795654296875,-0.45147705078125,0.310943603515625,-0.749114990234375,0.3662109375,0.0,-0.06103515625,0.4464111328125,-0.802734375,0.399169921875,-295.0,151.0,-151.0,101701.0,-3.126000165939331,0,0
2.6621864000044297,0.371795654296875,-0.45147705078125,0.310943603515625,-0.749114990234375,-0.1220703125,-0.1220703125,-0.18310546875,0.447265625,-0.8016357421875,0.398681640625,-295.0,151.0,-151.0,101701.0,-3.126000165939331,0,0
2.662244599996484,0.371795654296875,-0.451507568359375,0.310943603515625,-0.749114990234375,-0.18310546875,-0.1220703125,0.0,0.4447021484375,-0.8011474609375,0.3970947265625,-295.0,151.0,-151.0,101701.0,-3.126000165939331,0,0
2.6623021999985212,0.371795654296875,-0.451507568359375,0.310943603515625,-0.749114990234375,-0.18310546875,-0.1220703125,0.0,0.4447021484375,-0.8011474609375,0.3970947265625,-295.0,151.0,-151.0,101701.0,-3.126000165939331,0,0
2.6627809000056004,0.371795654296875,-0.451507568359375,0.310943603515625,-0.749114990234375,-0.18310546875,-0.1220703125,0.0,0.4447021484375,-0.8011474609375,0.3970947265625,-295.0,151.0,-151.0,101701.0,-3.126000165939331,0,0
2.662851999994018,0.371795654296875,-0.45147705078125,0.310943603515625,-0.749114990234375,-0.06103515625,-0.06103515625,0.0,0.4454345703125,-0.8018798828125,0.3980712890625,-295.0,151.0,-151.0,101701.0,-3.126000165939331,0,0
2.662910200000624,0.371795654296875,-0.451507568359375,0.310943603515625,-0.749114990234375,0.1220703125,-0.1220703125,-0.06103515625,0.4412841796875,-0.802001953125,0.39892578125,-295.0,151.0,-151.0,101701.0,-3.126000165939331,0,0
2.6629662000050303,0.371795654296875,-0.45147705078125,0.310943603515625,-0.749114990234375,0.18310546875,-0.18310546875,0.0,0.4466552734375,-0.8011474609375,0.3988037109375,-295.0,151.0,-151.0,101701.0,-3.126000165939331,0,0
2.6630218000063905,0.371795654296875,-0.45147705078125,0.310943603515625,-0.749114990234375,0.18310546875,-0.18310546875,-0.1220703125,0.4443359375,-0.8013916015625,0.400390625,-295.0,151.0,-151.0,101701.0,-3.126000165939331,0,0
2.6630789000046207,0.371795654296875,-0.45147705078125,0.310943603515625,-0.749114990234375,0.06103515625,-0.18310546875,-0.18310546875,0.4443359375,-0.8006591796875,0.399169921875,-295.0,151.0,-151.0,101701.0,-3.126000165939331,0,0
2.6631361000036122,0.371826171875,-0.45147705078125,0.31097412109375,-0.749114990234375,0.1220703125,-0.1220703125,-0.244140625,0.4442138671875,-0.80224609375,0.3994140625,-295.0,151.0,-151.0,101701.0,-3.126000165939331,0,0
2.722741599995061,0.371795654296875,-0.45147705078125,0.31097412109375,-0.749114990234375,-0.06103515625,0.0,0.0,0.4451904296875,-0.8017578125,0.39794921875,-295.0,151.0,-151.0,101701.0,-3.126000165939331,0,0
2.7228057000029366,0.371795654296875,-0.45147705078125,0.31097412109375,-0.749114990234375,-0.06103515625,0.0,0.0,0.4451904296875,-0.8017578125,0.39794921875,-295.0,151.0,-151.0,101701.0,-3.126000165939331,0,0
2.722861300004297,0.371826171875,-0.45147705078125,0.31097412109375,-0.749114990234375,-0.06103515625,0.18310546875,0.0,0.4447021484375,-0.803466796875,0.3988037109375,-295.0,151.0,-151.0,101701.0,-3.126000165939331,0,0
2.7229177999979584,0.371612548828125,-0.451416015625,0.31109619140625,-0.74920654296875,-0.06103515625,0.18310546875,0.1220703125,0.445556640625,-0.8021240234375,0.3995361328125,-294.0,150.0,-151.0,101701.0,-3.126000165939331,0,0
2.7229762000060873,0.371612548828125,-0.451416015625,0.31109619140625,-0.74920654296875,0.06103515625,-0.18310546875,-0.1220703125,0.444580078125,-0.8021240234375,0.3975830078125,-294.0,150.0,-151.0,101701.0,-3.126000165939331,0,0
2.7232645000040065,0.371612548828125,-0.451416015625,0.31109619140625,-0.74920654296875,-0.18310546875,-0.18310546875,0.06103515625,0.44580078125,-0.800537109375,0.3984375,-294.0,150.0,-151.0,101701.0,-3.126000165939331,0,0
2.7233196000015596,0.371612548828125,-0.451416015625,0.31109619140625,-0.74920654296875,-0.06103515625,-0.18310546875,-0.244140625,0.445068359375,-0.80078125,0.3983154296875,-294.0,150.0,-151.0,101701.0,-3.126000165939331,0,0
2.723372599997674,0.371612548828125,-0.451416015625,0.31109619140625,-0.74920654296875,-0.06103515625,0.0,0.1220703125,0.4451904296875,-0.8017578125,0.3973388671875,-294.0,150.0,-151.0,101701.0,-3.126000165939331,0,0
2.72342569999455,0.371612548828125,-0.451416015625,0.31109619140625,-0.74920654296875,0.06103515625,-0.18310546875,-0.244140625,0.4437255859375,-0.8011474609375,0.399169921875,-294.0,150.0,-151.0,101701.0,-3.126000165939331,0,0
2.723478400002932,0.371612548828125,-0.451416015625,0.31109619140625,-0.74920654296875,-0.06103515625,-0.18310546875,-0.30517578125,0.4447021484375,-0.8004150390625,0.397216796875,-294.0,150.0,-151.0,101701.0,-3.126000165939331,0,0
2.723532100004377,0.371612548828125,-0.451416015625,0.31109619140625,-0.74920654296875,0.1220703125,-0.06103515625,-0.18310546875,0.4447021484375,-0.7998046875,0.3985595703125,-294.0,150.0,-151.0,101701.0,-3.126000165939331,0,0
2.7236452999932226,0.371612548828125,-0.451416015625,0.31109619140625,-0.74920654296875,0.1220703125,-0.06103515625,-0.18310546875,0.4447021484375,-0.7998046875,0.3985595703125,-294.0,150.0,-151.0,101701.0,-3.126000165939331,0,0
2.794871299993247,0.371612548828125,-0.451416015625,0.31109619140625,-0.74920654296875,0.3662109375,0.0,0.1220703125,0.446044921875,-0.80224609375,0.3990478515625,-294.0,150.0,-151.0,101701.0,-3.126000165939331,0,0
2.794935500001884,0.371612548828125,-0.451416015625,0.31109619140625,-0.74920654296875,0.18310546875,0.0,-0.30517578125,0.4443359375,-0.802001953125,0.3992919921875,-294.0,150.0,-151.0,101701.0,-3.126000165939331,0,0
2.7949914000055287,0.371612548828125,-0.451416015625,0.31109619140625,-0.74920654296875,-0.30517578125,-0.18310546875,0.244140625,0.444580078125,-0.802978515625,0.399169921875,-294.0,150.0,-151.0,101701.0,-3.126000165939331,0,0
2.7950462000007974,0.371612548828125,-0.451416015625,0.31109619140625,-0.74920654296875,0.0,-0.244140625,-0.06103515625,0.44482421875,-0.8031005859375,0.3990478515625,-294.0,150.0,-151.0,101701.0,-3.126000165939331,0,0
2.7951002000045264,0.371612548828125,-0.451416015625,0.31109619140625,-0.74920654296875,-0.1220703125,0.06103515625,-0.06103515625,0.4459228515625,-0.80224609375,0.3992919921875,-294.0,150.0,-151.0,101701.0,-3.126000165939331,0,0
2.7951543999952264,0.371612548828125,-0.451416015625,0.31109619140625,-0.74920654296875,0.244140625,0.0,0.0,0.44482421875,-0.8033447265625,0.3992919921875,-294.0,150.0,-151.0,101701.0,-3.126000165939331,0,0
2.7952235999982804,0.371612548828125,-0.451416015625,0.31109619140625,-0.74920654296875,0.06103515625,-0.18310546875,-0.06103515625,0.445068359375,-0.8031005859375,0.3995361328125,-294.0,150.0,-151.0,101701.0,-3.126000165939331,0,0
2.7952782999927877,0.371612548828125,-0.451416015625,0.31109619140625,-0.74920654296875,0.06103515625,0.06103515625,-0.244140625,0.4434814453125,-0.8026123046875,0.4007568359375,-294.0,150.0,-151.0,101701.0,-3.126000165939331,0,0
2.795333000001847,0.371612548828125,-0.451416015625,0.31109619140625,-0.74920654296875,0.06103515625,0.06103515625,-0.244140625,0.4434814453125,-0.8026123046875,0.4007568359375,-294.0,150.0,-151.0,101701.0,-3.126000165939331,0,0
2.7953927000053227,0.371612548828125,-0.451385498046875,0.31109619140625,-0.74920654296875,0.06103515625,-0.244140625,-0.18310546875,0.446533203125,-0.802001953125,0.401123046875,-294.0,150.0,-151.0,101701.0,-3.126000165939331,0,0
2.7954463999922154,0.371612548828125,-0.451385498046875,0.31109619140625,-0.74920654296875,0.06103515625,-0.244140625,-0.18310546875,0.446533203125,-0.802001953125,0.401123046875,-294.0,150.0,-151.0,101701.0,-3.126000165939331,0,0
2.7955013000027975,0.371612548828125,-0.451416015625,0.31109619140625,-0.74920654296875,0.30517578125,-0.1220703125,-0.18310546875,0.4462890625,-0.803466796875,0.39990234375,-296.0,150.0,-150.0,101701.0,-3.126000165939331,0,0
2.8530081000062637,0.371612548828125,-0.451385498046875,0.31109619140625,-0.74920654296875,-0.244140625,0.0,-0.1220703125,0.4454345703125,-0.802978515625,0.39892578125,-296.0,150.0,-150.0,101701.0,-3.126000165939331,0,0
2.853072099998826,0.371612548828125,-0.451416015625,0.31109619140625,-0.74920654296875,0.06103515625,-0.06103515625,-0.1220703125,0.4462890625,-0.800048828125,0.3985595703125,-296.0,150.0,-150.0,101701.0,-3.126000165939331,0,0
2.853128500006278,0.371612548828125,-0.451385498046875,0.31109619140625,-0.74920654296875,0.1220703125,0.1220703125,-0.244140625,0.444091796875,-0.8004150390625,0.3988037109375,-296.0,150.0,-150.0,101701.0,-3.126000165939331,0,0
2.8531822999939322,0.371612548828125,-0.451416015625,0.31109619140625,-0.74920654296875,-0.18310546875,-0.06103515625,0.0,0.4476318359375,-0.8011474609375,0.399658203125,-296.0,150.0,-150.0,101701.0,-3.126000165939331,0,0
2.8532341999962227,0.371612548828125,-0.451416015625,0.31109619140625,-0.74920654296875,-0.18310546875,-0.06103515625,0.0,0.4476318359375,-0.8011474609375,0.399658203125,-296.0,150.0,-150.0,101701.0,-3.126000165939331,0,0
2.853580700000748,0.371612548828125,-0.451416015625,0.31109619140625,-0.74920654296875,-0.30517578125,-0.06103515625,0.1220703125,0.4461669921875,-0.801513671875,0.39892578125,-296.0,150.0,-150.0,101701.0,-3.126000165939331,0,0
2.853642799993395,0.371612548828125,-0.451416015625,0.31109619140625,-0.74920654296875,-0.06103515625,-0.06103515625,-0.1220703125,0.4462890625,-0.80224609375,0.3980712890625,-296.0,150.0,-150.0,101701.0,-3.125000238418579,0,0
2.853698999999324,0.371612548828125,-0.451416015625,0.31109619140625,-0.74920654296875,0.3662109375,0.0,-0.1220703125,0.4451904296875,-0.8045654296875,0.3980712890625,-296.0,150.0,-150.0,101701.0,-3.125000238418579,0,0
2.8537535999930697,0.371612548828125,-0.451416015625,0.31109619140625,-0.74920654296875,0.1220703125,-0.06103515625,-0.06103515625,0.443603515625,-0.804931640625,0.3985595703125,-296.0,150.0,-150.0,101701.0,-3.125000238418579,0,0
2.8538069000060204,0.371612548828125,-0.451416015625,0.31109619140625,-0.74920654296875,0.3662109375,-0.06103515625,-0.06103515625,0.4439697265625,-0.802001953125,0.39794921875,-296.0,150.0,-150.0,101701.0,-3.125000238418579,0,0
2.8538622000050964,0.371612548828125,-0.451416015625,0.31109619140625,-0.749176025390625,-0.1220703125,0.1220703125,-0.18310546875,0.4451904296875,-0.802001953125,0.3980712890625,-296.0,150.0,-150.0,101701.0,-3.125000238418579,0,0
2.8539151000004495,0.371612548828125,-0.451416015625,0.31109619140625,-0.74920654296875,-0.1220703125,0.0,-0.18310546875,0.4442138671875,-0.802001953125,0.3985595703125,-296.0,150.0,-150.0,101701.0,-3.125000238418579,0,0
2.9164764000015566,0.371612548828125,-0.451385498046875,0.311126708984375,-0.749176025390625,0.18310546875,-0.06103515625,-0.18310546875,0.4454345703125,-0.802490234375,0.39892578125,-296.0,150.0,-150.0,101701.0,-3.125000238418579,0,0
2.916537099998095,0.371612548828125,-0.451416015625,0.311126708984375,-0.749176025390625,0.244140625,-0.06103515625,0.0,0.443115234375,-0.801513671875,0.3994140625,-296.0,150.0,-150.0,101701.0,-3.125000238418579,0,0
2.917394999996759,0.371612548828125,-0.451416015625,0.311126708984375,-0.749176025390625,-0.06103515625,-0.06103515625,0.06103515625,0.4451904296875,-0.802001953125,0.3988037109375,-296.0,150.0,-150.0,101701.0,-3.125000238418579,0,0
2.9174760000023525,0.371612548828125,-0.451416015625,0.311126708984375,-0.749176025390625,-0.1220703125,-0.06103515625,0.0,0.446533203125,-0.8018798828125,0.3980712890625,-298.0,151.0,-151.0,101701.0,-3.125000238418579,0,0
2.9175669999967795,0.371734619140625,-0.451446533203125,0.311065673828125,-0.7491455078125,-0.06103515625,-0.244140625,-0.18310546875,0.4459228515625,-0.8026123046875,0.3988037109375,-298.0,151.0,-151.0,101701.0,-3.125000238418579,0,0
2.917624199995771,0.371734619140625,-0.451446533203125,0.311065673828125,-0.7491455078125,0.0,0.0,-0.1220703125,0.4449462890625,-0.80126953125,0.399169921875,-298.0,151.0,-151.0,101701.0,-3.125000238418579,0,0
2.9176783000002615,0.371734619140625,-0.451446533203125,0.311065673828125,-0.7491455078125,-0.06103515625,-0.06103515625,0.0,0.4451904296875,-0.8009033203125,0.399169921875,-298.0,151.0,-151.0,101701.0,-3.125000238418579,0,0
2.9177794999995967,0.371734619140625,-0.451446533203125,0.311065673828125,-0.7491455078125,-0.18310546875,-0.1220703125,-0.06103515625,0.4454345703125,-0.801025390625,0.398193359375,-298.0,151.0,-151.0,101701.0,-3.125000238418579,0,0
2.9178332000010414,0.371734619140625,-0.451446533203125,0.311065673828125,-0.7491455078125,0.06103515625,0.0,-0.1220703125,0.4442138671875,-0.800537109375,0.4007568359375,-298.0,151.0,-151.0,101701.0,-3.125000238418579,0,0
2.917887100004009,0.371734619140625,-0.451446533203125,0.311065673828125,-0.7491455078125,0.06103515625,0.0,-0.1220703125,0.4442138671875,-0.800537109375,0.4007568359375,-298.0,151.0,-151.0,101701.0,-3.125000238418579,0,0
2.9179395999963162,0.371734619140625,-0.451416015625,0.311065673828125,-0.7491455078125,0.30517578125,0.06103515625,-0.1220703125,0.4449462890625,-0.802490234375,0.399658203125,-298.0,151.0,-151.0,101701.0,-3.125000238418579,0,0
2.985582399996929,0.371734619140625,-0.451446533203125,0.311065673828125,-0.7491455078125,0.18310546875,0.0,0.0,0.4471435546875,-0.80078125,0.3973388671875,-298.0,151.0,-151.0,101701.0,-3.125000238418579,0,0
2.985644800006412,0.371734619140625,-0.451446533203125,0.311065673828125,-0.7491455078125,0.1220703125,0.1220703125,-0.1220703125,0.4447021484375,-0.80126953125,0.3988037109375,-298.0,151.0,-151.0,101701.0,-3.125000238418579,0,0
2.985700499993982,0.371734619140625,-0.451446533203125,0.311065673828125,-0.7491455078125,0.1220703125,0.06103515625,-0.18310546875,0.446533203125,-0.8009033203125,0.3992919921875,-298.0,151.0,-151.0,101701.0,-3.126000165939331,0,0
2.985755200003041,0.371734619140625,-0.451446533203125,0.311065673828125,-0.7491455078125,-0.18310546875,0.06103515625,-0.244140625,0.4442138671875,-0.803466796875,0.3980712890625,-298.0,151.0,-151.0,101701.0,-3.126000165939331,0,0
2.985809000005247,0.371734619140625,-0.451446533203125,0.311065673828125,-0.7491455078125,0.0,0.06103515625,0.0,0.446533203125,-0.8021240234375,0.398681640625,-298.0,151.0,-151.0,101701.0,-3.126000165939331,0,0
2.985861399996793,0.371734619140625,-0.451446533203125,0.311065673828125,-0.7491455078125,-0.244140625,0.0,-0.1220703125,0.4439697265625,-0.801513671875,0.3994140625,-298.0,151.0,-151.0,101701.0,-3.126000165939331,0,0
2.987344299996039,0.371734619140625,-0.451446533203125,0.311065673828125,-0.7491455078125,-0.18310546875,-0.06103515625,0.06103515625,0.4447021484375,-0.801025390625,0.3973388671875,-298.0,151.0,-151.0,101701.0,-3.126000165939331,0,0
2.9874049999925774,0.371734619140625,-0.451446533203125,0.311065673828125,-0.7491455078125,-0.18310546875,-0.06103515625,0.06103515625,0.4447021484375,-0.801025390625,0.3973388671875,-298.0,151.0,-151.0,101701.0,-3.126000165939331,0,0
2.987460000003921,0.371734619140625,-0.451446533203125,0.311065673828125,-0.7491455078125,0.06103515625,0.0,0.06103515625,0.4453125,-0.802734375,0.3997802734375,-298.0,151.0,-151.0,101701.0,-3.126000165939331,0,0
2.987513999993098,0.371734619140625,-0.451446533203125,0.311065673828125,-0.7491455078125,-0.06103515625,-0.06103515625,-0.06103515625,0.4453125,-0.8028564453125,0.3988037109375,-298.0,151.0,-151.0,101701.0,-3.126000165939331,0,0
