Time stamp(sec),adc1,adc2,roll_angular_rate,pitch_angular_rate,yaw_angular_rate,acc_X,acc_Y,acc_Z,mag_X,mag_Y,mag_Z,pressure,altitude
0.0035638000117614865,-3.0666346170650167e+38,-2.807613276935317e+19,-1.0002793524696609e+30,-6.169605960358313e+29,2.523125045781314e-38,2.523125326041007e-38,-5.534049610391932e+19,-237181968842752.0,6.081753441060151e-23,2.9560501741593618e-33,-4.08884448996874e+19,4.446861982100811e-28,-1.1942550457398875e-15,-1.063535126062188e-32,-8.098165274721756e+28,40506,17209
0.00364550000813324,0.373077392578125,-0.451568603515625,0.311248779296875,-0.748321533203125,-0.18310546875,-0.06103515625,0.1220703125,0.442138671875,-0.8038330078125,0.3973388671875,-298.0,150.0,-150.0,101691.0,-3.0500001907348633,0,0
0.00370180000027176,0.373077392578125,-0.451568603515625,0.311248779296875,-0.748321533203125,0.1220703125,0.06103515625,-0.18310546875,0.442626953125,-0.803466796875,0.3978271484375,-298.0,150.0,-150.0,101691.0,-3.0500001907348633,0,0
0.0037548000109381974,0.373077392578125,-0.451568603515625,0.31121826171875,-0.748321533203125,-0.06103515625,0.0,0.1220703125,0.4432373046875,-0.8035888671875,0.3975830078125,-298.0,150.0,-150.0,101691.0,-3.0500001907348633,0,0
0.003810100010014139,0.373077392578125,-0.451568603515625,0.311248779296875,-0.748321533203125,0.3662109375,0.06103515625,-0.18310546875,0.4449462890625,-0.8013916015625,0.3985595703125,-298.0,150.0,-150.0,101691.0,-3.0500001907348633,0,0
0.0038700000004610047,0.373077392578125,-0.451568603515625,0.311248779296875,-0.748321533203125,-0.06103515625,-0.18310546875,-0.18310546875,0.4444580078125,-0.8045654296875,0.3975830078125,-298.0,150.0,-150.0,101691.0,-3.0500001907348633,0,0
0.0040646999987075105,0.373077392578125,-0.451568603515625,0.311248779296875,-0.748291015625,-0.18310546875,-0.06103515625,-0.244140625,0.4443359375,-0.8043212890625,0.3975830078125,-298.0,150.0,-150.0,101691.0,-3.0500001907348633,0,0
0.004117900010896847,0.373077392578125,-0.45159912109375,0.311248779296875,-0.748291015625,0.732421875,0.1220703125,-0.06103515625,0.4447021484375,-0.80419921875,0.39697265625,-298.0,150.0,-150.0,101691.0,-3.0500001907348633,0,0
0.00417290000768844,0.373077392578125,-0.45159912109375,0.311248779296875,-0.748291015625,0.732421875,0.1220703125,-0.06103515625,0.4447021484375,-0.80419921875,0.39697265625,-298.0,150.0,-150.0,101691.0,-3.0500001907348633,0,0
0.004227099998388439,0.373077392578125,-0.45159912109375,0.311248779296875,-0.748291015625,0.18310546875,-0.1220703125,0.0,0.44482421875,-0.8048095703125,0.3970947265625,-298.0,150.0,-150.0,101691.0,-3.0460002422332764,0,0
0.004280200009816326,0.373077392578125,-0.45159912109375,0.311248779296875,-0.748291015625,0.0,0.06103515625,0.244140625,0.443603515625,-0.8013916015625,0.396240234375,-298.0,150.0,-150.0,101691.0,-3.0460002422332764,0,0
0.004333400007453747,0.373077392578125,-0.45159912109375,0.311248779296875,-0.748291015625,0.0,0.0,0.18310546875,0.444091796875,-0.8037109375,0.398193359375,-298.0,150.0,-150.0,101691.0,-3.0460002422332764,0,0
0.0682507000019541,0.373077392578125,-0.45159912109375,0.311248779296875,-0.748291015625,-0.1220703125,0.244140625,0.1220703125,0.4443359375,-0.8017578125,0.39794921875,-298.0,150.0,-150.0,101691.0,-3.0460002422332764,0,0
0.0683190999989165,0.373077392578125,-0.45159912109375,0.311248779296875,-0.748291015625,-0.06103515625,0.1220703125,-0.06103515625,0.443359375,-0.8026123046875,0.3978271484375,-298.0,150.0,-150.0,101691.0,-3.0460002422332764,0,0
0.06837490000179969,0.373077392578125,-0.45159912109375,0.311248779296875,-0.748291015625,0.06103515625,-0.06103515625,0.06103515625,0.443359375,-0.803955078125,0.397216796875,-298.0,150.0,-150.0,101691.0,-3.0460002422332764,0,0
0.06843120000849012,0.373077392578125,-0.45159912109375,0.311248779296875,-0.748291015625,0.1220703125,-0.18310546875,0.0,0.442626953125,-0.802734375,0.3992919921875,-298.0,150.0,-150.0,101691.0,-3.0460002422332764,0,0
0.06848710001213476,0.373077392578125,-0.45159912109375,0.311248779296875,-0.748291015625,0.06103515625,-0.06103515625,-0.1220703125,0.4443359375,-0.8033447265625,0.3980712890625,-298.0,150.0,-150.0,101691.0,-3.0460002422332764,0,0
0.06854040001053363,0.373077392578125,-0.45159912109375,0.311248779296875,-0.748291015625,0.06103515625,-0.06103515625,-0.1220703125,0.4443359375,-0.8033447265625,0.3980712890625,-298.0,150.0,-150.0,101691.0,-3.0460002422332764,0,0
0.06942759999947157,0.373077392578125,-0.45159912109375,0.311248779296875,-0.748291015625,0.0,-0.18310546875,0.06103515625,0.4423828125,-0.803466796875,0.3975830078125,-298.0,150.0,-150.0,101691.0,-3.0460002422332764,0,0
0.06948810000903904,0.373077392578125,-0.45159912109375,0.311248779296875,-0.748291015625,0.0,-0.18310546875,0.06103515625,0.4423828125,-0.803466796875,0.3975830078125,-297.0,149.0,-150.0,101691.0,-3.0460002422332764,0,0
0.06954480000422336,0.373077392578125,-0.45159912109375,0.311248779296875,-0.748291015625,0.30517578125,0.0,0.06103515625,0.44287109375,-0.8018798828125,0.396484375,-297.0,149.0,-150.0,101691.0,-3.0460002422332764,0,0
0.06959840000490658,0.373077392578125,-0.45159912109375,0.311279296875,-0.748291015625,-0.06103515625,0.06103515625,-0.18310546875,0.444091796875,-0.80224609375,0.395751953125,-297.0,149.0,-150.0,101691.0,-3.0460002422332764,0,0
0.06965100001252722,0.373046875,-0.451629638671875,0.311248779296875,-0.748291015625,0.1220703125,0.06103515625,0.06103515625,0.444091796875,-0.80126953125,0.39697265625,-297.0,149.0,-150.0,101691.0,-3.0460002422332764,0,0
0.0697035000048345,0.373077392578125,-0.451629638671875,0.311248779296875,-0.748291015625,-0.1220703125,-0.244140625,-0.18310546875,0.443603515625,-0.802001953125,0.3994140625,-297.0,149.0,-150.0,101691.0,-3.0460002422332764,0,0
0.06975260000035632,0.373077392578125,-0.45159912109375,0.311248779296875,-0.748291015625,-0.06103515625,-0.06103515625,-0.06103515625,0.4422607421875,-0.8011474609375,0.400390625,-297.0,149.0,-150.0,101691.0,-3.0460002422332764,0,0
0.13760760000150185,0.373046875,-0.451629638671875,0.311248779296875,-0.748291015625,0.0,0.18310546875,0.06103515625,0.4443359375,-0.8026123046875,0.3980712890625,-297.0,149.0,-150.0,101691.0,-3.0460002422332764,0,0
0.13767070000176318,0.373077392578125,-0.45159912109375,0.311248779296875,-0.748291015625,0.06103515625,0.06103515625,0.06103515625,0.442626953125,-0.8031005859375,0.4000244140625,-297.0,149.0,-150.0,101691.0,-3.0460002422332764,0,0
0.1377288000076078,0.373046875,-0.45159912109375,0.311248779296875,-0.748291015625,0.06103515625,0.06103515625,0.06103515625,0.442626953125,-0.8031005859375,0.4000244140625,-297.0,149.0,-150.0,101691.0,-3.0500001907348633,0,0
0.13778350000211503,0.373046875,-0.451629638671875,0.311248779296875,-0.748291015625,-0.06103515625,0.06103515625,0.0,0.444091796875,-0.80419921875,0.397216796875,-297.0,149.0,-150.0,101691.0,-3.0500001907348633,0,0
0.13783900000271387,0.373046875,-0.451629638671875,0.311248779296875,-0.748291015625,0.18310546875,0.18310546875,0.06103515625,0.4459228515625,-0.8035888671875,0.3995361328125,-297.0,149.0,-150.0,101691.0,-3.0500001907348633,0,0
0.1431384000024991,0.373046875,-0.451629638671875,0.311248779296875,-0.748291015625,0.0,-0.1220703125,-0.06103515625,0.4432373046875,-0.8033447265625,0.3995361328125,-297.0,149.0,-150.0,101691.0,-3.0500001907348633,0,0
0.14319519999844488,0.373046875,-0.451629638671875,0.311248779296875,-0.748291015625,-0.18310546875,-0.244140625,-0.18310546875,0.4432373046875,-0.80126953125,0.39794921875,-297.0,149.0,-150.0,101691.0,-3.0500001907348633,0,0
0.1432494000036968,0.373077392578125,-0.45159912109375,0.311248779296875,-0.748291015625,-0.06103515625,-0.244140625,-0.18310546875,0.44189453125,-0.80126953125,0.3970947265625,-297.0,149.0,-150.0,101691.0,-3.0500001907348633,0,0
0.14330300000438,0.373077392578125,-0.45159912109375,0.311248779296875,-0.748291015625,-0.18310546875,-0.18310546875,-0.30517578125,0.4423828125,-0.8026123046875,0.3970947265625,-297.0,149.0,-150.0,101691.0,-3.0500001907348633,0,0
0.14335640000354033,0.373077392578125,-0.45159912109375,0.311248779296875,-0.748291015625,-0.18310546875,-0.18310546875,-0.30517578125,0.4423828125,-0.8026123046875,0.3970947265625,-297.0,149.0,-150.0,101691.0,-3.0500001907348633,0,0
0.14340910001192242,0.373046875,-0.451629638671875,0.311248779296875,-0.748291015625,0.1220703125,0.06103515625,-0.06103515625,0.447265625,-0.80126953125,0.3985595703125,-297.0,149.0,-150.0,101691.0,-3.0500001907348633,0,0
0.19742320000659674,0.37335205078125,-0.451751708984375,0.311065673828125,-0.748138427734375,-0.18310546875,0.244140625,0.30517578125,0.4434814453125,-0.8023681640625,0.3980712890625,-298.0,148.0,-148.0,101691.0,-3.0500001907348633,0,0
0.19749030000821222,0.37335205078125,-0.451751708984375,0.311065673828125,-0.748138427734375,-0.1220703125,-0.1220703125,-0.06103515625,0.442626953125,-0.802001953125,0.3988037109375,-298.0,148.0,-148.0,101691.0,-3.0500001907348633,0,0
0.19754639999882784,0.37335205078125,-0.451751708984375,0.311065673828125,-0.748138427734375,-0.18310546875,-0.18310546875,-0.1220703125,0.4420166015625,-0.8026123046875,0.3978271484375,-298.0,148.0,-148.0,101691.0,-3.0500001907348633,0,0
0.1976017000124557,0.37335205078125,-0.451751708984375,0.311065673828125,-0.748138427734375,0.0,0.0,-0.30517578125,0.441162109375,-0.8004150390625,0.3975830078125,-298.0,148.0,-148.0,101691.0,-3.0500001907348633,0,0
0.19765760000154842,0.37335205078125,-0.451751708984375,0.31109619140625,-0.748138427734375,0.06103515625,0.244140625,-0.30517578125,0.4415283203125,-0.8021240234375,0.397216796875,-298.0,148.0,-148.0,101691.0,-3.0500001907348633,0,0
0.19772820000071079,0.37335205078125,-0.451751708984375,0.311065673828125,-0.748138427734375,-0.3662109375,-0.244140625,-0.244140625,0.444091796875,-0.80126953125,0.398193359375,-298.0,148.0,-148.0,101691.0,-3.0500001907348633,0,0
0.1977828000090085,0.37335205078125,-0.451751708984375,0.311065673828125,-0.748138427734375,-0.3662109375,-0.244140625,-0.244140625,0.444091796875,-0.80126953125,0.398193359375,-298.0,148.0,-148.0,101691.0,-3.0500001907348633,0,0
0.19783870001265313,0.37335205078125,-0.451751708984375,0.311065673828125,-0.748138427734375,-0.06103515625,-0.06103515625,-0.244140625,0.44580078125,-0.8023681640625,0.398193359375,-298.0,148.0,-148.0,101691.0,-3.0500001907348633,0,0
0.19789170000876766,0.37335205078125,-0.451751708984375,0.311065673828125,-0.748138427734375,0.0,-0.1220703125,0.0,0.4461669921875,-0.8033447265625,0.3984375,-298.0,148.0,-148.0,101691.0,-3.0500001907348633,0,0
0.19794399999955203,0.37335205078125,-0.451751708984375,0.311065673828125,-0.748138427734375,0.06103515625,-0.06103515625,-0.1220703125,0.44287109375,-0.8018798828125,0.398681640625,-298.0,148.0,-148.0,101691.0,-3.0480000972747803,0,0
0.1979977000009967,0.37335205078125,-0.451751708984375,0.311065673828125,-0.748138427734375,-0.244140625,-0.1220703125,-0.18310546875,0.4432373046875,-0.801025390625,0.3973388671875,-298.0,148.0,-148.0,101691.0,-3.0480000972747803,0,0
0.25797099999908824,0.37335205078125,-0.451751708984375,0.311065673828125,-0.748138427734375,0.18310546875,0.0,-0.06103515625,0.4439697265625,-0.8001708984375,0.3985595703125,-298.0,148.0,-148.0,101691.0,-3.0480000972747803,0,0
0.258039699998335,0.37335205078125,-0.451751708984375,0.311065673828125,-0.748138427734375,-0.1220703125,-0.244140625,0.06103515625,0.4447021484375,-0.7996826171875,0.399658203125,-298.0,148.0,-148.0,101691.0,-3.0480000972747803,0,0
0.25809550000121817,0.37335205078125,-0.451751708984375,0.311065673828125,-0.748138427734375,-0.06103515625,0.1220703125,-0.06103515625,0.444091796875,-0.80322265625,0.3975830078125,-298.0,148.0,-148.0,101691.0,-3.0480000972747803,0,0
0.2581505999987712,0.37335205078125,-0.451751708984375,0.311065673828125,-0.748138427734375,0.06103515625,0.30517578125,0.3662109375,0.445068359375,-0.802734375,0.3995361328125,-298.0,148.0,-148.0,101691.0,-3.0480000972747803,0,0
0.25820460000250023,0.37335205078125,-0.451751708984375,0.311065673828125,-0.748138427734375,0.06103515625,0.30517578125,0.3662109375,0.445068359375,-0.802734375,0.3995361328125,-298.0,148.0,-148.0,101691.0,-3.0480000972747803,0,0
0.25825920001079794,0.37335205078125,-0.451751708984375,0.311065673828125,-0.748138427734375,-0.1220703125,-0.06103515625,0.3662109375,0.4453125,-0.8050537109375,0.39990234375,-298.0,148.0,-148.0,101691.0,-3.0480000972747803,0,0
0.25831240000843536,0.37335205078125,-0.451751708984375,0.311065673828125,-0.748138427734375,0.3662109375,0.06103515625,0.30517578125,0.4425048828125,-0.802734375,0.400390625,-298.0,148.0,-148.0,101691.0,-3.0480000972747803,0,0
0.2583821000007447,0.37335205078125,-0.451751708984375,0.311065673828125,-0.748138427734375,0.06103515625,-0.1220703125,-0.06103515625,0.4454345703125,-0.8046875,0.39892578125,-298.0,148.0,-148.0,101691.0,-3.0480000972747803,0,0
0.2584369000105653,0.37335205078125,-0.451751708984375,0.311065673828125,-0.748138427734375,0.1220703125,-0.18310546875,-0.244140625,0.4398193359375,-0.802001953125,0.39892578125,-298.0,148.0,-148.0,101691.0,-3.0480000972747803,0,0
0.2584907000127714,0.37335205078125,-0.45172119140625,0.311065673828125,-0.748138427734375,0.1220703125,-0.18310546875,-0.244140625,0.4398193359375,-0.802001953125,0.39892578125,-297.0,149.0,-149.0,101691.0,-3.0480000972747803,0,0
0.2585432000050787,0.37335205078125,-0.45172119140625,0.311065673828125,-0.748138427734375,-0.244140625,-0.244140625,-0.54931640625,0.44091796875,-0.799560546875,0.3978271484375,-297.0,149.0,-149.0,101691.0,-3.0480000972747803,0,0
0.25859650000347756,0.37335205078125,-0.451751708984375,0.311065673828125,-0.748138427734375,0.18310546875,-0.1220703125,-0.48828125,0.444091796875,-0.7999267578125,0.3961181640625,-297.0,149.0,-149.0,101691.0,-3.0480000972747803,0,0
0.2586503000056837,0.37335205078125,-0.451751708984375,0.311065673828125,-0.748138427734375,0.1220703125,-0.18310546875,-0.3662109375,0.4443359375,-0.7984619140625,0.3963623046875,-297.0,149.0,-149.0,101691.0,-3.0480000972747803,0,0
0.3250482000003103,0.373321533203125,-0.451751708984375,0.31103515625,-0.7481689453125,-0.1220703125,0.06103515625,0.244140625,0.4434814453125,-0.8009033203125,0.3995361328125,-297.0,149.0,-149.0,101691.0,-3.0480000972747803,0,0
0.32511109999904875,0.373321533203125,-0.451751708984375,0.311004638671875,-0.7481689453125,-0.244140625,0.3662109375,0.42724609375,0.4462890625,-0.802490234375,0.40185546875,-297.0,149.0,-149.0,101691.0,-3.0480000972747803,0,0
0.32519270000921097,0.373321533203125,-0.451751708984375,0.311004638671875,-0.7481689453125,0.0,0.0,0.30517578125,0.4454345703125,-0.8037109375,0.3984375,-297.0,149.0,-149.0,101691.0,-3.0480000972747803,0,0
0.32530540000880137,0.373321533203125,-0.451751708984375,0.311004638671875,-0.7481689453125,-0.3662109375,0.0,0.244140625,0.444580078125,-0.804931640625,0.398681640625,-297.0,149.0,-149.0,101691.0,-3.0480000972747803,0,0
0.3253667000099085,0.373321533203125,-0.451751708984375,0.31103515625,-0.7481689453125,-0.3662109375,0.0,0.244140625,0.444580078125,-0.804931640625,0.398681640625,-297.0,149.0,-149.0,101691.0,-3.0480000972747803,0,0
0.3255152000056114,0.373321533203125,-0.451751708984375,0.31103515625,-0.7481689453125,0.0,0.06103515625,0.1220703125,0.4429931640625,-0.8040771484375,0.3970947265625,-297.0,149.0,-149.0,101691.0,-3.0480000972747803,0,0
0.3256854000064777,0.373321533203125,-0.451751708984375,0.31103515625,-0.7481689453125,0.1220703125,-0.06103515625,-0.1220703125,0.4423828125,-0.8013916015625,0.3961181640625,-297.0,149.0,-149.0,101691.0,-3.0480000972747803,0,0
0.3258205000020098,0.37335205078125,-0.451751708984375,0.311004638671875,-0.7481689453125,1.15966796875,0.06103515625,-0.18310546875,0.44287109375,-0.804931640625,0.3994140625,-297.0,149.0,-149.0,101691.0,-3.0480000972747803,0,0
0.3259052000066731,0.37335205078125,-0.451751708984375,0.311004638671875,-0.7481689453125,1.15966796875,0.06103515625,-0.18310546875,0.44287109375,-0.804931640625,0.3994140625,-297.0,149.0,-149.0,101691.0,-3.0480000972747803,0,0
0.32630510001035873,0.37335205078125,-0.451751708984375,0.311004638671875,-0.7481689453125,0.06103515625,0.06103515625,-0.30517578125,0.4449462890625,-0.8038330078125,0.3980712890625,-297.0,149.0,-149.0,101691.0,-3.0480000972747803,0,0
0.32636659999843687,0.37335205078125,-0.451751708984375,0.311004638671875,-0.7481689453125,-0.244140625,-0.18310546875,-0.06103515625,0.446044921875,-0.8057861328125,0.4007568359375,-297.0,149.0,-149.0,101691.0,-3.0480000972747803,0,0
0.3860002000001259,0.37335205078125,-0.45172119140625,0.311004638671875,-0.7481689453125,0.30517578125,0.1220703125,-0.1220703125,0.4420166015625,-0.8050537109375,0.400634765625,-297.0,149.0,-149.0,101691.0,-3.0480000972747803,0,0
0.3860748000006424,0.37335205078125,-0.45172119140625,0.311004638671875,-0.7481689453125,0.42724609375,-0.1220703125,-0.06103515625,0.443359375,-0.8021240234375,0.397216796875,-296.0,149.0,-147.0,101691.0,-3.0480000972747803,0,0
0.38613460000487976,0.37335205078125,-0.451751708984375,0.31103515625,-0.7481689453125,-0.18310546875,-0.06103515625,-0.18310546875,0.441650390625,-0.8018798828125,0.394287109375,-296.0,149.0,-147.0,101691.0,-3.0480000972747803,0,0
0.38619309999921825,0.37335205078125,-0.45172119140625,0.31103515625,-0.7481689453125,-0.06103515625,-0.18310546875,-0.3662109375,0.44140625,-0.799072265625,0.39794921875,-296.0,149.0,-147.0,101691.0,-3.0480000972747803,0,0
0.3862496000074316,0.37335205078125,-0.451751708984375,0.31103515625,-0.7481689453125,0.06103515625,0.0,-0.18310546875,0.4437255859375,-0.801025390625,0.39453125,-296.0,149.0,-147.0,101691.0,-3.0480000972747803,0,0
0.38663210000959225,0.37335205078125,-0.451751708984375,0.31103515625,-0.7481689453125,0.06103515625,0.0,-0.18310546875,0.4437255859375,-0.801025390625,0.39453125,-296.0,149.0,-147.0,101691.0,-3.0480000972747803,0,0
0.38669970000046305,0.373321533203125,-0.451751708984375,0.311004638671875,-0.7481689453125,0.1220703125,0.06103515625,0.1220703125,0.44384765625,-0.7999267578125,0.3980712890625,-296.0,149.0,-147.0,101691.0,-3.0480000972747803,0,0
0.38675840001087636,0.373321533203125,-0.451751708984375,0.311004638671875,-0.7481689453125,0.79345703125,0.0,0.30517578125,0.446533203125,-0.803466796875,0.3994140625,-296.0,149.0,-147.0,101691.0,-3.0480000972747803,0,0
0.3868161999998847,0.373321533203125,-0.451751708984375,0.311004638671875,-0.7481689453125,0.30517578125,-0.1220703125,0.06103515625,0.44482421875,-0.804931640625,0.3980712890625,-296.0,149.0,-147.0,101691.0,-3.0480000972747803,0,0
0.38687339999887627,0.373321533203125,-0.451751708984375,0.311004638671875,-0.7481689453125,-0.244140625,0.18310546875,-0.06103515625,0.4417724609375,-0.8006591796875,0.3975830078125,-296.0,149.0,-147.0,101691.0,-3.0480000972747803,0,0
0.3869309000001522,0.373321533203125,-0.451751708984375,0.311004638671875,-0.7481689453125,0.06103515625,0.0,-0.244140625,0.44287109375,-0.800048828125,0.3953857421875,-296.0,149.0,-147.0,101691.0,-3.0490002632141113,0,0
0.4503240000049118,0.373321533203125,-0.451751708984375,0.311004638671875,-0.7481689453125,-0.06103515625,-0.1220703125,-0.1220703125,0.4434814453125,-0.799560546875,0.3978271484375,-296.0,149.0,-147.0,101691.0,-3.0490002632141113,0,0
0.4504010000091512,0.373321533203125,-0.451751708984375,0.311004638671875,-0.7481689453125,0.18310546875,-0.18310546875,-0.30517578125,0.444091796875,-0.7994384765625,0.3984375,-296.0,149.0,-147.0,101691.0,-3.0490002632141113,0,0
0.4504618000064511,0.373321533203125,-0.451751708984375,0.311004638671875,-0.7481689453125,0.0,0.06103515625,-0.244140625,0.443359375,-0.80126953125,0.3973388671875,-296.0,149.0,-147.0,101691.0,-3.0490002632141113,0,0
0.45051880000391975,0.373321533203125,-0.451751708984375,0.311004638671875,-0.7481689453125,0.0,0.06103515625,-0.244140625,0.443359375,-0.80126953125,0.3973388671875,-296.0,149.0,-147.0,101691.0,-3.0490002632141113,0,0
0.45057520001137163,0.373321533203125,-0.451751708984375,0.311004638671875,-0.7481689453125,0.1220703125,0.244140625,0.18310546875,0.4442138671875,-0.8038330078125,0.3975830078125,-296.0,149.0,-147.0,101691.0,-3.0490002632141113,0,0
0.4507148000120651,0.373321533203125,-0.451751708984375,0.311004638671875,-0.7481689453125,-0.1220703125,-0.30517578125,0.244140625,0.4453125,-0.8021240234375,0.3992919921875,-296.0,149.0,-147.0,101691.0,-3.0490002632141113,0,0
0.45077180000953376,0.373321533203125,-0.451751708984375,0.311004638671875,-0.7481689453125,0.06103515625,-0.18310546875,0.30517578125,0.44287109375,-0.803466796875,0.397216796875,-296.0,149.0,-147.0,101691.0,-3.0490002632141113,0,0
0.45101720000093337,0.373321533203125,-0.451751708984375,0.311004638671875,-0.7481689453125,0.48828125,0.06103515625,0.06103515625,0.4434814453125,-0.8021240234375,0.39892578125,-296.0,149.0,-147.0,101691.0,-3.0490002632141113,0,0
0.45108180001261644,0.373321533203125,-0.451751708984375,0.311004638671875,-0.7481689453125,0.1220703125,0.1220703125,-0.06103515625,0.444091796875,-0.8023681640625,0.3968505859375,-296.0,149.0,-147.0,101691.0,-3.0490002632141113,0,0
0.4511394000001019,0.373321533203125,-0.451751708984375,0.311004638671875,-0.7481689453125,-0.1220703125,-0.06103515625,0.06103515625,0.4434814453125,-0.8043212890625,0.398681640625,-296.0,149.0,-147.0,101691.0,-3.0490002632141113,0,0
0.4511952000029851,0.373321533203125,-0.451751708984375,0.311004638671875,-0.7481689453125,0.30517578125,0.06103515625,-0.06103515625,0.443359375,-0.8023681640625,0.3973388671875,-296.0,149.0,-147.0,101691.0,-3.0490002632141113,0,0
0.45125160001043696,0.373321533203125,-0.451751708984375,0.311004638671875,-0.7481689453125,0.244140625,-0.18310546875,-0.06103515625,0.4439697265625,-0.8011474609375,0.3970947265625,-296.0,148.0,-147.0,101691.0,-3.0490002632141113,0,0
0.45144440000876784,0.373321533203125,-0.451751708984375,0.311004638671875,-0.7481689453125,0.0,0.06103515625,-0.06103515625,0.445068359375,-0.800537109375,0.3983154296875,-296.0,148.0,-147.0,101691.0,-3.0490002632141113,0,0
0.5159807000018191,0.373321533203125,-0.451751708984375,0.311004638671875,-0.7481689453125,0.1220703125,-0.18310546875,0.0,0.44384765625,-0.8016357421875,0.396240234375,-296.0,148.0,-147.0,101691.0,-3.0490002632141113,0,0
0.5160558000061428,0.373321533203125,-0.451751708984375,0.311004638671875,-0.7481689453125,0.30517578125,-0.1220703125,-0.18310546875,0.44384765625,-0.8023681640625,0.398193359375,-296.0,148.0,-147.0,101691.0,-3.0490002632141113,0,0
0.5161198999994667,0.373321533203125,-0.451751708984375,0.311004638671875,-0.7481689453125,0.18310546875,-0.244140625,-0.30517578125,0.4443359375,-0.80322265625,0.39697265625,-296.0,148.0,-147.0,101691.0,-3.0490002632141113,0,0
0.5161781000060728,0.373321533203125,-0.4517822265625,0.311004638671875,-0.7481689453125,0.1220703125,-0.18310546875,-0.06103515625,0.444091796875,-0.8046875,0.397216796875,-296.0,148.0,-147.0,101691.0,-3.0490002632141113,0,0
0.51623720000498,0.373321533203125,-0.4517822265625,0.311004638671875,-0.7481689453125,0.06103515625,-0.1220703125,-0.1220703125,0.443603515625,-0.80126953125,0.3985595703125,-296.0,148.0,-147.0,101691.0,-3.0490002632141113,0,0
0.516585400007898,0.373321533203125,-0.4517822265625,0.311004638671875,-0.7481689453125,0.06103515625,-0.1220703125,-0.1220703125,0.443603515625,-0.80126953125,0.3985595703125,-296.0,148.0,-147.0,101691.0,-3.0480000972747803,0,0
0.5166452999983449,0.373321533203125,-0.4517822265625,0.311004638671875,-0.7481689453125,-0.244140625,-0.06103515625,0.244140625,0.44384765625,-0.8006591796875,0.3975830078125,-296.0,148.0,-147.0,101691.0,-3.0480000972747803,0,0
0.5167039000079967,0.373321533203125,-0.4517822265625,0.311004638671875,-0.7481689453125,-0.244140625,-0.06103515625,0.244140625,0.44384765625,-0.8006591796875,0.3975830078125,-296.0,148.0,-147.0,101691.0,-3.0480000972747803,0,0
0.5167619999992894,0.373321533203125,-0.451751708984375,0.31103515625,-0.7481689453125,0.18310546875,0.0,0.0,0.4423828125,-0.8045654296875,0.39794921875,-296.0,148.0,-147.0,101691.0,-3.0480000972747803,0,0
0.5168191000120714,0.373321533203125,-0.4517822265625,0.31103515625,-0.7481689453125,0.244140625,0.0,0.3662109375,0.443603515625,-0.8046875,0.3980712890625,-296.0,148.0,-147.0,101691.0,-3.0480000972747803,0,0
0.5168749000004027,0.373321533203125,-0.4517822265625,0.31103515625,-0.7481689453125,0.06103515625,-0.06103515625,0.0,0.4454345703125,-0.8045654296875,0.3968505859375,-296.0,148.0,-147.0,101691.0,-3.0480000972747803,0,0
0.5764745000051335,0.373321533203125,-0.4517822265625,0.31103515625,-0.7481689453125,0.1220703125,0.0,-0.30517578125,0.443115234375,-0.8028564453125,0.3968505859375,-296.0,148.0,-147.0,101691.0,-3.0480000972747803,0,0
0.5765409000014188,0.373321533203125,-0.4517822265625,0.31103515625,-0.7481689453125,0.18310546875,-0.06103515625,-0.244140625,0.4453125,-0.8033447265625,0.3980712890625,-296.0,148.0,-147.0,101691.0,-3.0480000972747803,0,0
0.576598700004979,0.373321533203125,-0.4517822265625,0.31103515625,-0.7481689453125,0.3662109375,0.0,-0.30517578125,0.4427490234375,-0.802734375,0.3980712890625,-296.0,148.0,-147.0,101691.0,-3.0480000972747803,0,0
0.5766570000123465,0.373321533203125,-0.4517822265625,0.31103515625,-0.7481689453125,0.1220703125,0.06103515625,-0.244140625,0.4417724609375,-0.8013916015625,0.3975830078125,-295.0,147.0,-148.0,101691.0,-3.0480000972747803,0,0
0.5767147000005934,0.373321533203125,-0.4517822265625,0.31103515625,-0.7481689453125,0.1220703125,0.06103515625,-0.244140625,0.4417724609375,-0.8013916015625,0.3975830078125,-295.0,147.0,-148.0,101691.0,-3.0480000972747803,0,0
0.5775140000041574,0.373321533203125,-0.451751708984375,0.31103515625,-0.7481689453125,0.0,-0.18310546875,-0.06103515625,0.443359375,-0.8018798828125,0.39794921875,-295.0,147.0,-148.0,101691.0,-3.0480000972747803,0,0
0.5775719000084791,0.373321533203125,-0.451751708984375,0.31103515625,-0.7481689453125,-0.1220703125,-0.06103515625,-0.06103515625,0.442138671875,-0.8023681640625,0.3983154296875,-295.0,147.0,-148.0,101691.0,-3.0480000972747803,0,0
0.5776283000013791,0.373321533203125,-0.451751708984375,0.31103515625,-0.7481689453125,0.0,0.0,-0.1220703125,0.4447021484375,-0.8006591796875,0.3983154296875,-295.0,147.0,-148.0,101691.0,-3.0480000972747803,0,0
0.5776833999989321,0.373321533203125,-0.4517822265625,0.31103515625,-0.7481689453125,-0.30517578125,-0.1220703125,-0.244140625,0.4443359375,-0.8038330078125,0.3975830078125,-295.0,147.0,-148.0,101691.0,-3.0480000972747803,0,0
0.5777383000095142,0.373321533203125,-0.4517822265625,0.31103515625,-0.7481689453125,0.18310546875,0.18310546875,-0.06103515625,0.443115234375,-0.801025390625,0.3975830078125,-295.0,147.0,-148.0,101691.0,-3.0480000972747803,0,0
0.5777945000008913,0.373321533203125,-0.4517822265625,0.31103515625,-0.7481689453125,0.0,-0.06103515625,0.0,0.4432373046875,-0.8033447265625,0.398681640625,-295.0,147.0,-148.0,101691.0,-3.0480000972747803,0,0
0.6397226000117371,0.373321533203125,-0.4517822265625,0.311004638671875,-0.7481689453125,0.06103515625,-0.18310546875,0.06103515625,0.4473876953125,-0.8006591796875,0.3968505859375,-295.0,147.0,-148.0,101691.0,-3.0480000972747803,0,0
0.639792200003285,0.373321533203125,-0.4517822265625,0.311004638671875,-0.7481689453125,0.244140625,-0.18310546875,-0.06103515625,0.4449462890625,-0.8048095703125,0.399658203125,-295.0,147.0,-148.0,101691.0,-3.0490002632141113,0,0
0.639909000004991,0.373321533203125,-0.4517822265625,0.311004638671875,-0.7481689453125,0.244140625,-0.18310546875,-0.06103515625,0.4449462890625,-0.8048095703125,0.399658203125,-295.0,147.0,-148.0,101691.0,-3.0490002632141113,0,0
0.6399761000066064,0.373321533203125,-0.4517822265625,0.311004638671875,-0.7481689453125,0.30517578125,0.0,-0.06103515625,0.44287109375,-0.802734375,0.398681640625,-295.0,147.0,-148.0,101691.0,-3.0490002632141113,0,0
0.640036600001622,0.373321533203125,-0.4517822265625,0.311004638671875,-0.7481689453125,0.06103515625,-0.18310546875,-0.244140625,0.4447021484375,-0.80126953125,0.3975830078125,-295.0,147.0,-148.0,101691.0,-3.0490002632141113,0,0
0.6400931000098353,0.373321533203125,-0.4517822265625,0.311004638671875,-0.7481689453125,0.0,0.1220703125,0.06103515625,0.443603515625,-0.803466796875,0.398681640625,-295.0,147.0,-148.0,101691.0,-3.0490002632141113,0,0
0.6401505000103498,0.373321533203125,-0.4517822265625,0.311004638671875,-0.7481689453125,0.0,-0.06103515625,-0.18310546875,0.4442138671875,-0.8040771484375,0.3995361328125,-295.0,147.0,-148.0,101691.0,-3.0490002632141113,0,0
0.6406224000093061,0.373321533203125,-0.4517822265625,0.311004638671875,-0.7481689453125,-0.1220703125,-0.1220703125,0.06103515625,0.4449462890625,-0.8026123046875,0.397216796875,-295.0,147.0,-148.0,101691.0,-3.0490002632141113,0,0
0.6406852000072831,0.373291015625,-0.4517822265625,0.311004638671875,-0.7481689453125,0.18310546875,-0.06103515625,-0.1220703125,0.44482421875,-0.804931640625,0.3956298828125,-295.0,147.0,-148.0,101691.0,-3.0490002632141113,0,0
0.6407466000091517,0.373291015625,-0.4517822265625,0.311004638671875,-0.7481689453125,0.0,0.0,-0.06103515625,0.4454345703125,-0.8026123046875,0.3970947265625,-295.0,147.0,-148.0,101691.0,-3.0490002632141113,0,0
0.640803500005859,0.373291015625,-0.4517822265625,0.311004638671875,-0.7481689453125,0.0,-0.18310546875,-0.1220703125,0.44287109375,-0.803466796875,0.3992919921875,-295.0,147.0,-148.0,101691.0,-3.0490002632141113,0,0
0.641126800008351,0.373291015625,-0.4517822265625,0.311004638671875,-0.7481689453125,0.244140625,0.0,-0.30517578125,0.4454345703125,-0.802978515625,0.3975830078125,-295.0,147.0,-148.0,101691.0,-3.0490002632141113,0,0
0.6411947000015061,0.373291015625,-0.4517822265625,0.311004638671875,-0.7481689453125,0.244140625,0.0,-0.30517578125,0.4454345703125,-0.802978515625,0.3975830078125,-295.0,147.0,-148.0,101691.0,-3.0490002632141113,0,0
0.7099664999986999,0.37310791015625,-0.45172119140625,0.3111572265625,-0.748260498046875,0.1220703125,0.0,-0.244140625,0.4451904296875,-0.8028564453125,0.397216796875,-295.0,148.0,-150.0,101691.0,-3.0490002632141113,0,0
0.7100417000037851,0.37310791015625,-0.45172119140625,0.3111572265625,-0.748260498046875,-0.18310546875,0.18310546875,-0.06103515625,0.4427490234375,-0.8009033203125,0.3992919921875,-295.0,148.0,-150.0,101691.0,-3.0490002632141113,0,0
0.7101041999994777,0.37310791015625,-0.45172119140625,0.3111572265625,-0.748260498046875,-0.06103515625,0.06103515625,-0.1220703125,0.44482421875,-0.80224609375,0.3970947265625,-295.0,148.0,-150.0,101691.0,-3.0490002632141113,0,0
0.7101682000065921,0.37310791015625,-0.45172119140625,0.311126708984375,-0.748260498046875,0.18310546875,-0.1220703125,-0.18310546875,0.4454345703125,-0.8013916015625,0.3961181640625,-295.0,148.0,-150.0,101691.0,-3.0490002632141113,0,0
0.710231200006092,0.37310791015625,-0.45172119140625,0.311126708984375,-0.748260498046875,0.0,-0.06103515625,0.0,0.4432373046875,-0.801513671875,0.3988037109375,-295.0,148.0,-150.0,101691.0,-3.0490002632141113,0,0
0.7103309000085574,0.37310791015625,-0.45172119140625,0.3111572265625,-0.748260498046875,0.30517578125,-0.06103515625,0.06103515625,0.443603515625,-0.8035888671875,0.396728515625,-295.0,148.0,-150.0,101691.0,-3.0490002632141113,0,0
0.7103940000088187,0.37310791015625,-0.45172119140625,0.3111572265625,-0.748260498046875,0.30517578125,-0.06103515625,0.06103515625,0.443603515625,-0.8035888671875,0.396728515625,-295.0,148.0,-150.0,101691.0,-3.0490002632141113,0,0
0.7104569000075571,0.37310791015625,-0.45172119140625,0.3111572265625,-0.748260498046875,0.18310546875,-0.06103515625,0.30517578125,0.4429931640625,-0.8050537109375,0.3973388671875,-295.0,148.0,-150.0,101691.0,-3.0480000972747803,0,0
0.7105185000109486,0.37310791015625,-0.45172119140625,0.3111572265625,-0.74822998046875,0.18310546875,-0.06103515625,0.30517578125,0.4429931640625,-0.8050537109375,0.3973388671875,-295.0,148.0,-150.0,101691.0,-3.0480000972747803,0,0
0.7105835000111256,0.37310791015625,-0.45172119140625,0.3111572265625,-0.74822998046875,0.18310546875,-0.06103515625,-0.18310546875,0.443359375,-0.803466796875,0.39892578125,-295.0,148.0,-150.0,101691.0,-3.0480000972747803,0,0
0.7106418000039412,0.37310791015625,-0.45172119140625,0.3111572265625,-0.74822998046875,-0.244140625,-0.1220703125,0.1220703125,0.4453125,-0.80224609375,0.3980712890625,-295.0,148.0,-150.0,101691.0,-3.0480000972747803,0,0
0.7694709000061266,0.37310791015625,-0.45172119140625,0.3111572265625,-0.74822998046875,-0.1220703125,-0.18310546875,-0.1220703125,0.4453125,-0.802734375,0.3984375,-295.0,148.0,-150.0,101691.0,-3.0480000972747803,0,0
0.7695561000000453,0.37310791015625,-0.45172119140625,0.3111572265625,-0.74822998046875,0.0,0.0,0.06103515625,0.444580078125,-0.8028564453125,0.3973388671875,-295.0,148.0,-150.0,101691.0,-3.0480000972747803,0,0
0.7696197000041138,0.37310791015625,-0.45172119140625,0.3111572265625,-0.74822998046875,0.0,-0.18310546875,-0.1220703125,0.4422607421875,-0.803955078125,0.3985595703125,-295.0,148.0,-150.0,101691.0,-3.0480000972747803,0,0
0.7696780000114813,0.37310791015625,-0.45172119140625,0.3111572265625,-0.74822998046875,0.0,-0.18310546875,-0.1220703125,0.4422607421875,-0.803955078125,0.3985595703125,-295.0,148.0,-150.0,101691.0,-3.0480000972747803,0,0
0.7697346000059042,0.37310791015625,-0.45172119140625,0.3111572265625,-0.74822998046875,0.18310546875,0.06103515625,-0.06103515625,0.4447021484375,-0.802734375,0.3988037109375,-295.0,148.0,-150.0,101691.0,-3.0480000972747803,0,0
0.7698085000010906,0.37310791015625,-0.45172119140625,0.3111572265625,-0.74822998046875,0.244140625,0.06103515625,-0.1220703125,0.44482421875,-0.8050537109375,0.39990234375,-295.0,147.0,-150.0,101691.0,-3.0480000972747803,0,0
0.7698662000038894,0.3729248046875,-0.451629638671875,0.311279296875,-0.74835205078125,-0.1220703125,-0.18310546875,-0.1220703125,0.443359375,-0.8035888671875,0.3994140625,-295.0,147.0,-150.0,101691.0,-3.0480000972747803,0,0
0.7699229999998352,0.3729248046875,-0.451629638671875,0.311279296875,-0.74835205078125,-0.06103515625,-0.244140625,-0.06103515625,0.4425048828125,-0.8023681640625,0.399169921875,-295.0,147.0,-150.0,101691.0,-3.0480000972747803,0,0
0.7699806000018725,0.3729248046875,-0.451629638671875,0.311279296875,-0.74835205078125,0.244140625,-0.18310546875,-0.1220703125,0.44287109375,-0.80224609375,0.398681640625,-295.0,147.0,-150.0,101691.0,-3.0480000972747803,0,0
0.770035800000187,0.3729248046875,-0.451629638671875,0.311279296875,-0.74835205078125,0.18310546875,0.06103515625,0.06103515625,0.4444580078125,-0.8016357421875,0.39794921875,-295.0,147.0,-150.0,101691.0,-3.0480000972747803,0,0
0.770092000006116,0.3729248046875,-0.451629638671875,0.311279296875,-0.74835205078125,-0.1220703125,-0.06103515625,0.0,0.4439697265625,-0.8023681640625,0.3984375,-295.0,147.0,-150.0,101691.0,-3.0480000972747803,0,0
0.7701486000005389,0.3729248046875,-0.451629638671875,0.311279296875,-0.74835205078125,0.1220703125,0.0,-0.1220703125,0.4447021484375,-0.802001953125,0.39892578125,-295.0,147.0,-150.0,101691.0,-3.0480000972747803,0,0
0.8353168000030564,0.3729248046875,-0.451629638671875,0.311279296875,-0.74835205078125,0.1220703125,0.0,-0.1220703125,0.4447021484375,-0.802001953125,0.39892578125,-295.0,147.0,-150.0,101691.0,-3.0480000972747803,0,0
0.8353916000050958,0.3729248046875,-0.451629638671875,0.311279296875,-0.74835205078125,-0.1220703125,-0.06103515625,-0.06103515625,0.4447021484375,-0.8026123046875,0.3990478515625,-295.0,147.0,-150.0,101691.0,-3.0480000972747803,0,0
0.8354504000017187,0.3729248046875,-0.451629638671875,0.311279296875,-0.74835205078125,0.06103515625,0.18310546875,-0.18310546875,0.4432373046875,-0.802001953125,0.399169921875,-295.0,147.0,-150.0,101691.0,-3.0480000972747803,0,0
0.8355068000091705,0.3729248046875,-0.451629638671875,0.311279296875,-0.74835205078125,0.1220703125,0.1220703125,0.1220703125,0.4442138671875,-0.8017578125,0.39697265625,-295.0,147.0,-150.0,101691.0,-3.0490002632141113,0,0
0.8355613000021549,0.372894287109375,-0.451629638671875,0.311248779296875,-0.74835205078125,-0.06103515625,-0.06103515625,-0.18310546875,0.445556640625,-0.8004150390625,0.3994140625,-295.0,147.0,-150.0,101691.0,-3.0490002632141113,0,0
0.8356198000110453,0.372894287109375,-0.451629638671875,0.311248779296875,-0.74835205078125,0.1220703125,0.06103515625,0.06103515625,0.4439697265625,-0.802734375,0.39892578125,-295.0,147.0,-150.0,101691.0,-3.0490002632141113,0,0
0.8357207000080962,0.372894287109375,-0.451629638671875,0.311248779296875,-0.74835205078125,0.244140625,-0.06103515625,-0.1220703125,0.4427490234375,-0.8023681640625,0.3988037109375,-295.0,147.0,-150.0,101691.0,-3.0490002632141113,0,0
0.8357754000026034,0.3729248046875,-0.451629638671875,0.311248779296875,-0.74835205078125,-0.244140625,-0.1220703125,0.0,0.4429931640625,-0.80126953125,0.3975830078125,-295.0,147.0,-150.0,101691.0,-3.0490002632141113,0,0
0.8358312000054866,0.372894287109375,-0.451629638671875,0.311248779296875,-0.74835205078125,-0.1220703125,-0.1220703125,-0.06103515625,0.4437255859375,-0.80224609375,0.398193359375,-295.0,147.0,-150.0,101691.0,-3.0490002632141113,0,0
0.8358851000084542,0.372894287109375,-0.451629638671875,0.311248779296875,-0.74835205078125,0.0,-0.1220703125,-0.1220703125,0.44384765625,-0.8023681640625,0.3983154296875,-295.0,147.0,-150.0,101691.0,-3.0490002632141113,0,0
0.835940600009053,0.372894287109375,-0.451629638671875,0.311248779296875,-0.74835205078125,0.0,-0.1220703125,-0.1220703125,0.44384765625,-0.8023681640625,0.3983154296875,-295.0,147.0,-150.0,101691.0,-3.0490002632141113,0,0
0.8359984000126133,0.372894287109375,-0.451629638671875,0.311248779296875,-0.74835205078125,0.0,0.06103515625,-0.06103515625,0.445068359375,-0.8035888671875,0.398193359375,-295.0,147.0,-150.0,101691.0,-3.0490002632141113,0,0
0.8973014000075636,0.372894287109375,-0.451629638671875,0.311248779296875,-0.74835205078125,0.18310546875,-0.18310546875,0.06103515625,0.4429931640625,-0.8021240234375,0.398193359375,-293.0,149.0,-149.0,101691.0,-3.0490002632141113,0,0
0.8973783000110416,0.372894287109375,-0.451629638671875,0.311248779296875,-0.74835205078125,-0.42724609375,-0.18310546875,-0.18310546875,0.4427490234375,-0.8021240234375,0.399169921875,-293.0,149.0,-149.0,101691.0,-3.0490002632141113,0,0
0.8974386000045342,0.372894287109375,-0.451629638671875,0.311248779296875,-0.74835205078125,0.0,0.0,-0.06103515625,0.4447021484375,-0.8021240234375,0.398681640625,-293.0,149.0,-149.0,101691.0,-3.0490002632141113,0,0
0.89749760000268,0.3729248046875,-0.451629638671875,0.311248779296875,-0.74835205078125,0.06103515625,0.0,-0.06103515625,0.4432373046875,-0.802490234375,0.4002685546875,-293.0,149.0,-149.0,101691.0,-3.0490002632141113,0,0
0.8975548000016715,0.3729248046875,-0.45159912109375,0.311248779296875,-0.74835205078125,0.06103515625,0.1220703125,-0.06103515625,0.4432373046875,-0.8031005859375,0.4010009765625,-293.0,149.0,-149.0,101691.0,-3.0490002632141113,0,0
0.8992311000038171,0.3729248046875,-0.45159912109375,0.311248779296875,-0.74835205078125,0.06103515625,0.1220703125,-0.06103515625,0.4432373046875,-0.8031005859375,0.4010009765625,-293.0,149.0,-149.0,101691.0,-3.0490002632141113,0,0
0.8992961000039941,0.3729248046875,-0.45159912109375,0.311248779296875,-0.748382568359375,-0.18310546875,-0.06103515625,0.06103515625,0.443115234375,-0.799560546875,0.3980712890625,-293.0,149.0,-149.0,101691.0,-3.0490002632141113,0,0
0.8996519000065746,0.3729248046875,-0.45159912109375,0.31121826171875,-0.748382568359375,-0.06103515625,-0.18310546875,-0.1220703125,0.444091796875,-0.8037109375,0.3995361328125,-293.0,149.0,-149.0,101691.0,-3.0490002632141113,0,0
0.8997260000032838,0.3729248046875,-0.45159912109375,0.31121826171875,-0.748382568359375,0.0,0.06103515625,-0.244140625,0.4449462890625,-0.80029296875,0.4007568359375,-293.0,149.0,-149.0,101691.0,-3.0490002632141113,0,0
0.899786200010567,0.3729248046875,-0.45159912109375,0.31121826171875,-0.748382568359375,0.06103515625,0.0,-0.1220703125,0.4443359375,-0.7998046875,0.3990478515625,-293.0,149.0,-149.0,101691.0,-3.0480000972747803,0,0
0.8998447000049055,0.372894287109375,-0.45159912109375,0.31121826171875,-0.748382568359375,0.244140625,-0.18310546875,-0.1220703125,0.4422607421875,-0.8018798828125,0.3968505859375,-293.0,149.0,-149.0,101691.0,-3.0480000972747803,0,0
0.9623516999999993,0.3729248046875,-0.45159912109375,0.311248779296875,-0.748382568359375,-0.1220703125,-0.1220703125,-0.06103515625,0.444091796875,-0.80322265625,0.3966064453125,-293.0,149.0,-149.0,101691.0,-3.0480000972747803,0,0
0.9624230000044918,0.3729248046875,-0.45159912109375,0.311248779296875,-0.748382568359375,-0.1220703125,0.1220703125,-0.06103515625,0.442626953125,-0.8035888671875,0.3983154296875,-293.0,149.0,-149.0,101691.0,-3.0480000972747803,0,0
0.9624898000038229,0.3729248046875,-0.45159912109375,0.311248779296875,-0.748382568359375,-0.1220703125,0.1220703125,-0.06103515625,0.442626953125,-0.8035888671875,0.3983154296875,-293.0,149.0,-149.0,101691.0,-3.0480000972747803,0,0
0.962552400000277,0.3729248046875,-0.45159912109375,0.31121826171875,-0.748382568359375,-0.244140625,0.18310546875,0.06103515625,0.4437255859375,-0.8018798828125,0.3984375,-293.0,149.0,-149.0,101691.0,-3.0480000972747803,0,0
0.962615199998254,0.372894287109375,-0.45159912109375,0.31121826171875,-0.748382568359375,0.06103515625,0.06103515625,-0.06103515625,0.4451904296875,-0.8026123046875,0.3985595703125,-293.0,149.0,-149.0,101691.0,-3.0480000972747803,0,0
0.9628756000020076,0.3729248046875,-0.45159912109375,0.31121826171875,-0.748382568359375,-0.06103515625,0.0,0.06103515625,0.44287109375,-0.802490234375,0.3985595703125,-293.0,149.0,-149.0,101691.0,-3.0480000972747803,0,0
0.962942700003623,0.3729248046875,-0.45159912109375,0.31121826171875,-0.748382568359375,0.1220703125,-0.06103515625,-0.06103515625,0.44189453125,-0.80224609375,0.3990478515625,-293.0,149.0,-149.0,101691.0,-3.0480000972747803,0,0
0.9630018000025302,0.372833251953125,-0.4515380859375,0.311279296875,-0.748443603515625,0.06103515625,0.06103515625,-0.1220703125,0.4422607421875,-0.8009033203125,0.400146484375,-293.0,149.0,-147.0,101691.0,-3.0480000972747803,0,0
0.9630596000060905,0.372833251953125,-0.4515380859375,0.311279296875,-0.748443603515625,0.0,-0.18310546875,0.18310546875,0.443603515625,-0.801025390625,0.3988037109375,-293.0,149.0,-147.0,101691.0,-3.0480000972747803,0,0
0.9631188000057591,0.372833251953125,-0.4515380859375,0.311279296875,-0.748443603515625,-0.18310546875,0.0,-0.244140625,0.4412841796875,-0.801513671875,0.3984375,-293.0,149.0,-147.0,101691.0,-3.0480000972747803,0,0
0.9631799000053434,0.372833251953125,-0.4515380859375,0.311279296875,-0.748443603515625,0.0,-0.06103515625,-0.18310546875,0.4434814453125,-0.80126953125,0.3988037109375,-293.0,149.0,-147.0,101691.0,-3.0480000972747803,0,0
0.9632399000111036,0.372833251953125,-0.4515380859375,0.311279296875,-0.748443603515625,0.0,-0.06103515625,-0.18310546875,0.4434814453125,-0.80126953125,0.3988037109375,-293.0,149.0,-147.0,101691.0,-3.0480000972747803,0,0
1.032304300009855,0.372833251953125,-0.4515380859375,0.311279296875,-0.748443603515625,0.0,0.06103515625,0.0,0.4437255859375,-0.80126953125,0.3992919921875,-293.0,149.0,-147.0,101691.0,-3.0480000972747803,0,0
1.0323777000012342,0.372833251953125,-0.4515380859375,0.311279296875,-0.748443603515625,-0.244140625,-0.1220703125,-0.244140625,0.4429931640625,-0.8037109375,0.400390625,-293.0,149.0,-147.0,101691.0,-3.0480000972747803,0,0
1.0324530000070808,0.372833251953125,-0.4515380859375,0.311279296875,-0.748443603515625,0.0,0.06103515625,-0.1220703125,0.443603515625,-0.8028564453125,0.4005126953125,-293.0,149.0,-147.0,101691.0,-3.0480000972747803,0,0
1.0325140000059037,0.372833251953125,-0.4515380859375,0.311279296875,-0.748443603515625,0.0,0.06103515625,0.06103515625,0.4449462890625,-0.8045654296875,0.3990478515625,-293.0,149.0,-147.0,101691.0,-3.0480000972747803,0,0
1.032575800010818,0.372833251953125,-0.4515380859375,0.311279296875,-0.748443603515625,-0.06103515625,-0.06103515625,0.06103515625,0.4447021484375,-0.80322265625,0.3975830078125,-293.0,149.0,-147.0,101691.0,-3.0480000972747803,0,0
1.032661500008544,0.372833251953125,-0.4515380859375,0.311279296875,-0.748443603515625,0.30517578125,0.06103515625,-0.1220703125,0.4444580078125,-0.80322265625,0.3995361328125,-293.0,149.0,-147.0,101691.0,-3.0480000972747803,0,0
1.0327499999984866,0.372833251953125,-0.4515380859375,0.311279296875,-0.748443603515625,0.30517578125,-0.18310546875,0.0,0.44091796875,-0.80322265625,0.39892578125,-293.0,149.0,-147.0,101691.0,-3.0480000972747803,0,0
1.0328080000035698,0.372833251953125,-0.4515380859375,0.311279296875,-0.748443603515625,-0.244140625,-0.06103515625,-0.1220703125,0.443359375,-0.801513671875,0.3994140625,-293.0,149.0,-147.0,101691.0,-3.0480000972747803,0,0
1.0328653000033228,0.372833251953125,-0.4515380859375,0.311279296875,-0.748443603515625,0.42724609375,-0.3662109375,-0.30517578125,0.443115234375,-0.8013916015625,0.397216796875,-293.0,149.0,-147.0,101691.0,-3.0480000972747803,0,0
1.032921999998507,0.372833251953125,-0.4515380859375,0.311279296875,-0.748443603515625,0.42724609375,-0.3662109375,-0.30517578125,0.443115234375,-0.8013916015625,0.397216796875,-293.0,149.0,-147.0,101691.0,-3.0480000972747803,0,0
1.032979700001306,0.372833251953125,-0.451507568359375,0.311279296875,-0.748443603515625,0.0,0.18310546875,-0.06103515625,0.442138671875,-0.801025390625,0.400634765625,-293.0,149.0,-147.0,101691.0,-3.0480000972747803,0,0
1.0330373000033433,0.372833251953125,-0.451507568359375,0.311279296875,-0.748443603515625,-0.18310546875,0.06103515625,0.1220703125,0.444091796875,-0.80224609375,0.3990478515625,-293.0,149.0,-147.0,101691.0,-3.0480000972747803,0,0
1.091739499999676,0.372833251953125,-0.451507568359375,0.311248779296875,-0.74847412109375,0.18310546875,0.1220703125,-0.06103515625,0.4444580078125,-0.802490234375,0.3978271484375,-293.0,149.0,-147.0,101691.0,-3.0480000972747803,0,0
1.0918142000009539,0.372833251953125,-0.451507568359375,0.311248779296875,-0.74847412109375,0.1220703125,-0.1220703125,0.06103515625,0.44287109375,-0.8017578125,0.3975830078125,-294.0,150.0,-148.0,101691.0,-3.0480000972747803,0,0
1.0918749000120442,0.372833251953125,-0.451507568359375,0.311248779296875,-0.74847412109375,0.0,0.0,0.0,0.444091796875,-0.8021240234375,0.3994140625,-294.0,150.0,-148.0,101691.0,-3.0480000972747803,0,0
1.09193390001019,0.372833251953125,-0.451507568359375,0.311248779296875,-0.74847412109375,0.06103515625,0.1220703125,-0.1220703125,0.4439697265625,-0.8018798828125,0.3994140625,-294.0,150.0,-148.0,101691.0,-3.0480000972747803,0,0
1.0919929000083357,0.372833251953125,-0.451507568359375,0.311248779296875,-0.74847412109375,0.06103515625,0.1220703125,-0.1220703125,0.4439697265625,-0.8018798828125,0.3994140625,-294.0,150.0,-148.0,101691.0,-3.0480000972747803,0,0
1.0923595000058413,0.372833251953125,-0.451507568359375,0.311248779296875,-0.74847412109375,0.06103515625,-0.06103515625,0.06103515625,0.443115234375,-0.8009033203125,0.3988037109375,-294.0,150.0,-148.0,101691.0,-3.0480000972747803,0,0
1.0924244000052568,0.372833251953125,-0.451507568359375,0.311248779296875,-0.74847412109375,-0.244140625,-0.1220703125,0.0,0.444091796875,-0.80224609375,0.39892578125,-294.0,150.0,-148.0,101691.0,-3.0480000972747803,0,0
1.092483500004164,0.372833251953125,-0.451507568359375,0.311248779296875,-0.74847412109375,0.1220703125,-0.1220703125,-0.06103515625,0.4439697265625,-0.8057861328125,0.3990478515625,-294.0,150.0,-148.0,101691.0,-3.0480000972747803,0,0
1.092540800003917,0.372833251953125,-0.451507568359375,0.311248779296875,-0.74847412109375,0.06103515625,-0.06103515625,0.0,0.4442138671875,-0.8026123046875,0.3984375,-294.0,150.0,-148.0,101691.0,-3.0480000972747803,0,0
1.0925986000074772,0.372833251953125,-0.451507568359375,0.311248779296875,-0.74847412109375,-0.1220703125,-0.1220703125,0.18310546875,0.444091796875,-0.8045654296875,0.3984375,-294.0,150.0,-148.0,101691.0,-3.0480000972747803,0,0
1.0926553000026615,0.372833251953125,-0.451507568359375,0.311248779296875,-0.74847412109375,0.0,-0.06103515625,-0.06103515625,0.44189453125,-0.8013916015625,0.3990478515625,-294.0,150.0,-148.0,101691.0,-3.0480000972747803,0,0
1.092713600010029,0.372833251953125,-0.451507568359375,0.311248779296875,-0.74847412109375,-0.06103515625,-0.244140625,0.06103515625,0.444091796875,-0.8023681640625,0.399169921875,-294.0,150.0,-148.0,101691.0,-3.0480000972747803,0,0
1.1590698000072734,0.372833251953125,-0.451507568359375,0.311279296875,-0.74847412109375,-0.06103515625,0.1220703125,-0.30517578125,0.441650390625,-0.803955078125,0.399169921875,-294.0,150.0,-148.0,101691.0,-3.0480000972747803,0,0
1.1591384000057587,0.372833251953125,-0.451507568359375,0.311279296875,-0.74847412109375,0.1220703125,0.0,0.06103515625,0.444580078125,-0.802978515625,0.3992919921875,-294.0,150.0,-148.0,101691.0,-3.0480000972747803,0,0
1.15919859999849,0.372833251953125,-0.451507568359375,0.311279296875,-0.74847412109375,0.0,-0.1220703125,-0.06103515625,0.4437255859375,-0.802490234375,0.398193359375,-294.0,150.0,-148.0,101691.0,-3.0480000972747803,0,0
1.1592572000081418,0.372833251953125,-0.451507568359375,0.311279296875,-0.74847412109375,0.18310546875,-0.06103515625,-0.18310546875,0.44287109375,-0.8033447265625,0.3984375,-294.0,150.0,-148.0,101691.0,-3.0480000972747803,0,0
1.1745309000107227,0.372833251953125,-0.451507568359375,0.311279296875,-0.74847412109375,0.18310546875,-0.06103515625,0.0,0.44384765625,-0.802490234375,0.3974609375,-294.0,150.0,-148.0,101691.0,-3.0480000972747803,0,0
1.1746096999995643,0.372833251953125,-0.451507568359375,0.311279296875,-0.74847412109375,0.1220703125,-0.06103515625,0.06103515625,0.442626953125,-0.8018798828125,0.3990478515625,-294.0,150.0,-148.0,101691.0,-3.0480000972747803,0,0
1.174672000008286,0.372833251953125,-0.451507568359375,0.311279296875,-0.74847412109375,0.244140625,-0.06103515625,0.06103515625,0.442138671875,-0.8006591796875,0.3956298828125,-294.0,150.0,-148.0,101691.0,-3.0500001907348633,0,0
1.1747311000071932,0.372833251953125,-0.451507568359375,0.311279296875,-0.748443603515625,0.0,-0.244140625,-0.244140625,0.444091796875,-0.8013916015625,0.39599609375,-294.0,150.0,-148.0,101691.0,-3.0500001907348633,0,0
1.1747884000069462,0.37274169921875,-0.45147705078125,0.31134033203125,-0.748504638671875,0.30517578125,-0.06103515625,0.0,0.4434814453125,-0.802001953125,0.3983154296875,-294.0,152.0,-150.0,101691.0,-3.0500001907348633,0,0
1.1748861000087345,0.37274169921875,-0.45147705078125,0.31134033203125,-0.748504638671875,0.30517578125,-0.06103515625,0.0,0.4434814453125,-0.802001953125,0.3983154296875,-294.0,152.0,-150.0,101691.0,-3.0500001907348633,0,0
1.1749529000080656,0.37274169921875,-0.45147705078125,0.31134033203125,-0.748504638671875,-0.18310546875,0.0,-0.18310546875,0.4444580078125,-0.801025390625,0.3985595703125,-294.0,152.0,-150.0,101691.0,-3.0500001907348633,0,0
1.2196970000077272,0.37274169921875,-0.45147705078125,0.31134033203125,-0.748504638671875,0.06103515625,0.1220703125,-0.06103515625,0.444580078125,-0.8018798828125,0.3983154296875,-294.0,152.0,-150.0,101691.0,-3.0500001907348633,0,0
1.2197639000078198,0.37274169921875,-0.45147705078125,0.31134033203125,-0.748504638671875,0.244140625,0.30517578125,0.0,0.443115234375,-0.80224609375,0.3995361328125,-294.0,152.0,-150.0,101691.0,-3.0500001907348633,0,0
1.219825200008927,0.37274169921875,-0.45147705078125,0.31134033203125,-0.748504638671875,-0.1220703125,0.06103515625,-0.1220703125,0.44384765625,-0.802978515625,0.396484375,-294.0,152.0,-150.0,101691.0,-3.0500001907348633,0,0
1.2198826000094414,0.37274169921875,-0.45147705078125,0.31134033203125,-0.748504638671875,0.06103515625,0.1220703125,0.0,0.443115234375,-0.8031005859375,0.3968505859375,-294.0,152.0,-150.0,101691.0,-3.0500001907348633,0,0
1.2199415000068257,0.37274169921875,-0.45147705078125,0.31134033203125,-0.748504638671875,-0.06103515625,-0.06103515625,0.0,0.4432373046875,-0.8016357421875,0.3973388671875,-294.0,152.0,-150.0,101691.0,-3.0500001907348633,0,0
1.2200439000007464,0.37274169921875,-0.45147705078125,0.31134033203125,-0.748504638671875,-0.1220703125,0.06103515625,-0.244140625,0.441162109375,-0.8011474609375,0.3975830078125,-294.0,152.0,-150.0,101691.0,-3.0500001907348633,0,0
1.2210550000017975,0.37274169921875,-0.45147705078125,0.31134033203125,-0.748504638671875,0.0,-0.1220703125,0.06103515625,0.442138671875,-0.8021240234375,0.3984375,-294.0,152.0,-150.0,101691.0,-3.0500001907348633,0,0
1.2211218000011286,0.37274169921875,-0.45147705078125,0.31134033203125,-0.748504638671875,0.0,-0.1220703125,0.06103515625,0.442138671875,-0.8021240234375,0.3984375,-294.0,152.0,-150.0,101691.0,-3.0500001907348633,0,0
1.2211821000091732,0.37274169921875,-0.45147705078125,0.31134033203125,-0.748504638671875,0.06103515625,0.1220703125,-0.18310546875,0.44140625,-0.802978515625,0.3975830078125,-294.0,152.0,-150.0,101691.0,-3.0500001907348633,0,0
1.2212406000035116,0.37274169921875,-0.45147705078125,0.31134033203125,-0.748504638671875,-0.06103515625,0.0,-0.06103515625,0.4443359375,-0.8043212890625,0.396484375,-294.0,152.0,-150.0,101691.0,-3.0500001907348633,0,0
1.2213005000085104,0.37274169921875,-0.45147705078125,0.31134033203125,-0.748504638671875,0.0,-0.244140625,0.06103515625,0.4454345703125,-0.8021240234375,0.3975830078125,-294.0,152.0,-150.0,101691.0,-3.0500001907348633,0,0
1.2213569000014104,0.37274169921875,-0.45147705078125,0.31134033203125,-0.748504638671875,0.18310546875,-0.244140625,-0.3662109375,0.44384765625,-0.80322265625,0.3968505859375,-294.0,152.0,-150.0,101691.0,-3.0500001907348633,0,0
1.2214146000042092,0.37274169921875,-0.45147705078125,0.31134033203125,-0.748504638671875,0.06103515625,0.0,0.06103515625,0.443603515625,-0.8006591796875,0.39892578125,-294.0,152.0,-150.0,101691.0,-3.0500001907348633,0,0
1.2842378000059398,0.372711181640625,-0.451507568359375,0.311370849609375,-0.74847412109375,-0.1220703125,0.06103515625,0.0,0.4439697265625,-0.8017578125,0.39697265625,-294.0,151.0,-150.0,101691.0,-3.0500001907348633,0,0
1.2843095999996876,0.372711181640625,-0.451507568359375,0.311370849609375,-0.74847412109375,-0.1220703125,-0.06103515625,0.0,0.443115234375,-0.80126953125,0.39599609375,-294.0,151.0,-150.0,101691.0,-3.0500001907348633,0,0
1.284370300010778,0.372711181640625,-0.451507568359375,0.311370849609375,-0.74847412109375,0.1220703125,-0.1220703125,0.1220703125,0.4449462890625,-0.8033447265625,0.3973388671875,-294.0,151.0,-150.0,101691.0,-3.0500001907348633,0,0
1.2844285000028322,0.372711181640625,-0.4515380859375,0.311370849609375,-0.74847412109375,-0.1220703125,0.06103515625,0.1220703125,0.445068359375,-0.8028564453125,0.3956298828125,-294.0,151.0,-150.0,101691.0,-3.0500001907348633,0,0
1.2844850000110455,0.372711181640625,-0.4515380859375,0.311370849609375,-0.74847412109375,0.1220703125,0.06103515625,0.18310546875,0.4466552734375,-0.8033447265625,0.3985595703125,-294.0,151.0,-150.0,101691.0,-3.0500001907348633,0,0
1.2845430000015767,0.372711181640625,-0.4515380859375,0.311370849609375,-0.74847412109375,0.1220703125,0.1220703125,-0.18310546875,0.4442138671875,-0.8026123046875,0.3975830078125,-294.0,151.0,-150.0,101691.0,-3.0500001907348633,0,0
1.2845998000120744,0.372711181640625,-0.451507568359375,0.311370849609375,-0.74847412109375,-0.30517578125,-0.06103515625,0.1220703125,0.441650390625,-0.8048095703125,0.39794921875,-294.0,151.0,-150.0,101691.0,-3.0500001907348633,0,0
1.3478572000021813,0.372711181640625,-0.4515380859375,0.311370849609375,-0.748443603515625,-0.1220703125,-0.244140625,-0.06103515625,0.4447021484375,-0.803466796875,0.3968505859375,-294.0,151.0,-150.0,101691.0,-3.0500001907348633,0,0
1.347934500008705,0.372711181640625,-0.4515380859375,0.3114013671875,-0.748443603515625,0.06103515625,0.1220703125,-0.06103515625,0.4432373046875,-0.802978515625,0.39599609375,-294.0,151.0,-150.0,101691.0,-3.0500001907348633,0,0
1.3479971000051592,0.372711181640625,-0.4515380859375,0.3114013671875,-0.748443603515625,-0.06103515625,-0.1220703125,-0.1220703125,0.4439697265625,-0.8018798828125,0.3958740234375,-294.0,151.0,-150.0,101691.0,-3.0500001907348633,0,0
1.348053900001105,0.372711181640625,-0.4515380859375,0.3114013671875,-0.748443603515625,0.1220703125,0.1220703125,-0.30517578125,0.4451904296875,-0.8021240234375,0.39794921875,-294.0,151.0,-150.0,101691.0,-3.0500001907348633,0,0
1.348110999999335,0.372711181640625,-0.4515380859375,0.311370849609375,-0.748443603515625,0.18310546875,0.1220703125,-0.06103515625,0.444091796875,-0.8011474609375,0.3966064453125,-294.0,151.0,-150.0,101691.0,-3.0500001907348633,0,0
1.3482806000101846,0.372711181640625,-0.4515380859375,0.3114013671875,-0.748443603515625,0.1220703125,0.1220703125,-0.1220703125,0.4432373046875,-0.8035888671875,0.397216796875,-294.0,151.0,-150.0,101691.0,-3.0500001907348633,0,0
1.348346800004947,0.372711181640625,-0.4515380859375,0.3114013671875,-0.748443603515625,0.0,-0.06103515625,-0.06103515625,0.443359375,-0.802490234375,0.3973388671875,-294.0,151.0,-150.0,101691.0,-3.0500001907348633,0,0
1.3484037000016542,0.372711181640625,-0.4515380859375,0.3114013671875,-0.748443603515625,-0.1220703125,-0.244140625,0.06103515625,0.44287109375,-0.8011474609375,0.3975830078125,-294.0,151.0,-150.0,101691.0,-3.0500001907348633,0,0
1.348462300011306,0.372711181640625,-0.4515380859375,0.3114013671875,-0.748443603515625,-0.1220703125,-0.244140625,0.06103515625,0.44287109375,-0.8011474609375,0.3975830078125,-294.0,151.0,-150.0,101691.0,-3.0500001907348633,0,0
1.3485182000003988,0.372711181640625,-0.4515380859375,0.3114013671875,-0.748443603515625,0.0,-0.06103515625,-0.18310546875,0.4447021484375,-0.8016357421875,0.3980712890625,-296.0,152.0,-151.0,101691.0,-3.0490002632141113,0,0
1.3485809000121662,0.372589111328125,-0.451507568359375,0.31146240234375,-0.748504638671875,0.06103515625,0.18310546875,-0.06103515625,0.4451904296875,-0.80078125,0.3958740234375,-296.0,152.0,-151.0,101691.0,-3.0490002632141113,0,0
1.408241100012674,0.372589111328125,-0.4515380859375,0.31146240234375,-0.74847412109375,0.1220703125,0.1220703125,0.06103515625,0.444091796875,-0.8018798828125,0.3951416015625,-296.0,152.0,-151.0,101691.0,-3.0490002632141113,0,0
1.4083217000006698,0.372589111328125,-0.4515380859375,0.31146240234375,-0.74847412109375,0.0,0.18310546875,0.06103515625,0.4417724609375,-0.8035888671875,0.3961181640625,-296.0,152.0,-151.0,101691.0,-3.0490002632141113,0,0
1.4083863000123529,0.372589111328125,-0.451507568359375,0.31146240234375,-0.74847412109375,0.91552734375,0.1220703125,0.0,0.4405517578125,-0.8016357421875,0.3975830078125,-296.0,152.0,-151.0,101691.0,-3.0490002632141113,0,0
1.4084514999995008,0.37261962890625,-0.451507568359375,0.31146240234375,-0.74847412109375,0.30517578125,-0.18310546875,-0.06103515625,0.442626953125,-0.802490234375,0.3966064453125,-296.0,152.0,-151.0,101691.0,-3.0490002632141113,0,0
1.4085133000044152,0.37261962890625,-0.451507568359375,0.31146240234375,-0.74847412109375,0.6103515625,0.244140625,-0.244140625,0.44287109375,-0.8037109375,0.3973388671875,-296.0,152.0,-151.0,101691.0,-3.0490002632141113,0,0
1.4085762000031536,0.37261962890625,-0.451507568359375,0.311492919921875,-0.74847412109375,-0.48828125,0.0,-0.1220703125,0.4422607421875,-0.802490234375,0.3974609375,-296.0,152.0,-151.0,101691.0,-3.0490002632141113,0,0
1.409095700000762,0.37261962890625,-0.451507568359375,0.311492919921875,-0.74847412109375,-0.48828125,0.0,-0.1220703125,0.4422607421875,-0.802490234375,0.3974609375,-296.0,152.0,-151.0,101691.0,-3.0490002632141113,0,0
1.409167100006016,0.37261962890625,-0.4515380859375,0.311492919921875,-0.74847412109375,-0.06103515625,0.18310546875,0.0,0.442138671875,-0.804443359375,0.3973388671875,-296.0,152.0,-151.0,101691.0,-3.0490002632141113,0,0
1.409228800010169,0.37261962890625,-0.4515380859375,0.311492919921875,-0.74847412109375,-0.06103515625,0.18310546875,0.0,0.442138671875,-0.804443359375,0.3973388671875,-296.0,152.0,-151.0,101691.0,-3.0490002632141113,0,0
1.409290100011276,0.37261962890625,-0.4515380859375,0.311492919921875,-0.74847412109375,0.48828125,0.0,0.1220703125,0.4437255859375,-0.8031005859375,0.3963623046875,-296.0,152.0,-151.0,101691.0,-3.0490002632141113,0,0
1.4093512000108603,0.37261962890625,-0.451507568359375,0.311492919921875,-0.74847412109375,0.54931640625,-0.244140625,-0.1220703125,0.4398193359375,-0.8040771484375,0.3968505859375,-296.0,152.0,-151.0,101691.0,-3.0490002632141113,0,0
1.4094132000027457,0.37261962890625,-0.451507568359375,0.311492919921875,-0.74847412109375,0.06103515625,0.0,0.0,0.441650390625,-0.8011474609375,0.3975830078125,-296.0,152.0,-151.0,101691.0,-3.0490002632141113,0,0
1.4094725000031758,0.37261962890625,-0.451507568359375,0.311492919921875,-0.74847412109375,0.6103515625,-0.18310546875,0.0,0.44140625,-0.80322265625,0.3974609375,-296.0,152.0,-151.0,101691.0,-3.0490002632141113,0,0
1.474947400012752,0.37261962890625,-0.451507568359375,0.311492919921875,-0.74847412109375,0.30517578125,0.3662109375,-0.18310546875,0.4432373046875,-0.802490234375,0.396728515625,-296.0,152.0,-151.0,101691.0,-3.0490002632141113,0,0
1.4750154000066686,0.37261962890625,-0.451507568359375,0.311492919921875,-0.74847412109375,0.30517578125,0.3662109375,-0.18310546875,0.4432373046875,-0.802490234375,0.396728515625,-296.0,152.0,-151.0,101691.0,-3.0490002632141113,0,0
1.4750759000016842,0.37261962890625,-0.451507568359375,0.311492919921875,-0.74847412109375,0.1220703125,-0.1220703125,-0.1220703125,0.444091796875,-0.8026123046875,0.3975830078125,-296.0,152.0,-151.0,101691.0,-3.0490002632141113,0,0
1.4751365000120131,0.37261962890625,-0.451507568359375,0.311492919921875,-0.74847412109375,0.06103515625,0.244140625,0.18310546875,0.445556640625,-0.8038330078125,0.3983154296875,-296.0,152.0,-151.0,101692.0,-3.0510001182556152,0,0
1.4751939999987371,0.37261962890625,-0.4515380859375,0.311492919921875,-0.74847412109375,-0.1220703125,0.06103515625,-0.1220703125,0.44482421875,-0.803466796875,0.3966064453125,-296.0,152.0,-151.0,101692.0,-3.0510001182556152,0,0
1.4756760000018403,0.37249755859375,-0.45147705078125,0.311553955078125,-0.748504638671875,-0.1220703125,0.06103515625,-0.1220703125,0.44482421875,-0.803466796875,0.3966064453125,-296.0,152.0,-151.0,101692.0,-3.0510001182556152,0,0
1.4757338000054006,0.37249755859375,-0.45147705078125,0.311553955078125,-0.748504638671875,-0.06103515625,-0.06103515625,-0.06103515625,0.443603515625,-0.80078125,0.3970947265625,-296.0,152.0,-151.0,101692.0,-3.0510001182556152,0,0
1.4757907000021078,0.37249755859375,-0.451507568359375,0.311553955078125,-0.748504638671875,0.06103515625,0.18310546875,0.0,0.4459228515625,-0.802490234375,0.397216796875,-296.0,152.0,-151.0,101692.0,-3.0510001182556152,0,0
1.4758480000018608,0.37249755859375,-0.451507568359375,0.311553955078125,-0.748504638671875,-0.06103515625,0.1220703125,-0.1220703125,0.4423828125,-0.803466796875,0.39892578125,-296.0,152.0,-151.0,101692.0,-3.0510001182556152,0,0
1.4759029999986524,0.37249755859375,-0.451507568359375,0.311553955078125,-0.748504638671875,-0.18310546875,0.18310546875,-0.18310546875,0.4432373046875,-0.804443359375,0.3990478515625,-296.0,152.0,-151.0,101692.0,-3.0510001182556152,0,0
1.47595910000382,0.37249755859375,-0.451507568359375,0.311553955078125,-0.748504638671875,-0.18310546875,0.18310546875,-0.18310546875,0.4432373046875,-0.804443359375,0.3990478515625,-296.0,152.0,-151.0,101692.0,-3.0510001182556152,0,0
1.5356472999992548,0.37249755859375,-0.451507568359375,0.311553955078125,-0.748504638671875,-0.06103515625,0.0,-0.06103515625,0.4434814453125,-0.802001953125,0.39697265625,-296.0,152.0,-151.0,101692.0,-3.0510001182556152,0,0
1.5357087000011234,0.37249755859375,-0.451507568359375,0.311553955078125,-0.748504638671875,-0.1220703125,0.18310546875,0.0,0.4447021484375,-0.8043212890625,0.3966064453125,-296.0,152.0,-151.0,101692.0,-3.0510001182556152,0,0
1.5357678000000305,0.37249755859375,-0.451507568359375,0.31158447265625,-0.748504638671875,-0.3662109375,-0.18310546875,-0.1220703125,0.443115234375,-0.8040771484375,0.397216796875,-296.0,152.0,-151.0,101692.0,-3.0510001182556152,0,0
1.5366297000000486,0.37249755859375,-0.451507568359375,0.31158447265625,-0.748504638671875,0.0,-0.1220703125,-0.244140625,0.4439697265625,-0.802978515625,0.396728515625,-296.0,152.0,-151.0,101692.0,-3.0510001182556152,0,0
1.5367017000098713,0.37249755859375,-0.451507568359375,0.31158447265625,-0.748504638671875,0.30517578125,-0.1220703125,-0.18310546875,0.443603515625,-0.7999267578125,0.3968505859375,-296.0,152.0,-151.0,101692.0,-3.0510001182556152,0,0
1.5367748999997275,0.37249755859375,-0.451507568359375,0.31158447265625,-0.748504638671875,0.244140625,-0.18310546875,-0.18310546875,0.4427490234375,-0.802978515625,0.3966064453125,-296.0,152.0,-151.0,101692.0,-3.0510001182556152,0,0
1.536991200002376,0.37249755859375,-0.451507568359375,0.31158447265625,-0.748504638671875,0.244140625,-0.244140625,-0.18310546875,0.4453125,-0.8028564453125,0.3975830078125,-296.0,152.0,-151.0,101692.0,-3.0510001182556152,0,0
1.537064600008307,0.37249755859375,-0.451507568359375,0.31158447265625,-0.748504638671875,0.244140625,-0.244140625,-0.18310546875,0.4453125,-0.8028564453125,0.3975830078125,-296.0,152.0,-151.0,101692.0,-3.0510001182556152,0,0
1.5371769000048516,0.37249755859375,-0.451507568359375,0.31158447265625,-0.748504638671875,-0.1220703125,-0.30517578125,-0.06103515625,0.442626953125,-0.8011474609375,0.3966064453125,-296.0,152.0,-151.0,101692.0,-3.0510001182556152,0,0
1.5379329999996116,0.37249755859375,-0.451507568359375,0.31158447265625,-0.748504638671875,-0.30517578125,0.06103515625,-0.1220703125,0.4437255859375,-0.8006591796875,0.3984375,-296.0,152.0,-151.0,101692.0,-3.0510001182556152,0,0
1.5380024000041885,0.37249755859375,-0.451507568359375,0.31158447265625,-0.748504638671875,-0.244140625,-0.1220703125,0.244140625,0.4437255859375,-0.7999267578125,0.3980712890625,-296.0,152.0,-151.0,101692.0,-3.0510001182556152,0,0
1.601279100010288,0.37249755859375,-0.451507568359375,0.31158447265625,-0.748504638671875,0.0,-0.06103515625,0.0,0.442626953125,-0.801025390625,0.3966064453125,-296.0,152.0,-150.0,101691.0,-3.0480000972747803,0,0
1.601340400011395,0.37249755859375,-0.451507568359375,0.31158447265625,-0.748504638671875,0.1220703125,-0.1220703125,-0.06103515625,0.4425048828125,-0.8031005859375,0.3970947265625,-296.0,152.0,-150.0,101691.0,-3.0480000972747803,0,0
1.6019196000124793,0.37249755859375,-0.451507568359375,0.31158447265625,-0.748504638671875,-0.06103515625,0.30517578125,0.0,0.4447021484375,-0.8023681640625,0.397216796875,-296.0,152.0,-150.0,101691.0,-3.0480000972747803,0,0
1.6019998000119813,0.37249755859375,-0.451507568359375,0.31158447265625,-0.748504638671875,0.244140625,0.18310546875,0.06103515625,0.4423828125,-0.8004150390625,0.3984375,-296.0,152.0,-150.0,101691.0,-3.0480000972747803,0,0
1.6020602000062354,0.37249755859375,-0.451507568359375,0.31158447265625,-0.74847412109375,-0.42724609375,-0.3662109375,0.1220703125,0.442138671875,-0.80419921875,0.3956298828125,-296.0,152.0,-150.0,101691.0,-3.0480000972747803,0,0
1.6021213000058196,0.37249755859375,-0.451507568359375,0.31158447265625,-0.74847412109375,-0.42724609375,-0.3662109375,0.1220703125,0.442138671875,-0.80419921875,0.3956298828125,-296.0,152.0,-150.0,101691.0,-3.0480000972747803,0,0
1.6023463000019547,0.37249755859375,-0.451507568359375,0.31158447265625,-0.74847412109375,0.3662109375,0.06103515625,0.06103515625,0.443359375,-0.8023681640625,0.3963623046875,-296.0,152.0,-150.0,101691.0,-3.0480000972747803,0,0
1.602403900003992,0.37249755859375,-0.451507568359375,0.31158447265625,-0.74847412109375,0.06103515625,0.30517578125,-0.48828125,0.443359375,-0.80322265625,0.397216796875,-296.0,152.0,-150.0,101691.0,-3.0480000972747803,0,0
1.6024584000115283,0.37249755859375,-0.451507568359375,0.31158447265625,-0.74847412109375,0.1220703125,-0.3662109375,-0.18310546875,0.4439697265625,-0.8013916015625,0.39794921875,-296.0,152.0,-150.0,101691.0,-3.0480000972747803,0,0
1.6025106000015512,0.37249755859375,-0.451507568359375,0.31158447265625,-0.74847412109375,-0.1220703125,-0.06103515625,-0.244140625,0.4443359375,-0.8037109375,0.396728515625,-296.0,152.0,-150.0,101691.0,-3.0480000972747803,0,0
1.6025671000097645,0.37249755859375,-0.4515380859375,0.31158447265625,-0.74847412109375,0.0,-0.1220703125,0.0,0.445068359375,-0.801513671875,0.3953857421875,-296.0,152.0,-150.0,101691.0,-3.0480000972747803,0,0
1.602619400000549,0.37249755859375,-0.4515380859375,0.31158447265625,-0.74847412109375,-0.18310546875,0.06103515625,-0.06103515625,0.4405517578125,-0.8033447265625,0.39794921875,-296.0,152.0,-150.0,101691.0,-3.0480000972747803,0,0
1.6026706000120612,0.37249755859375,-0.4515380859375,0.31158447265625,-0.74847412109375,0.244140625,0.06103515625,0.0,0.444580078125,-0.802001953125,0.396728515625,-296.0,152.0,-150.0,101691.0,-3.0480000972747803,0,0
1.6621452000108548,0.37249755859375,-0.4515380859375,0.31158447265625,-0.74847412109375,0.0,-0.06103515625,0.1220703125,0.4442138671875,-0.802734375,0.3973388671875,-296.0,152.0,-150.0,101691.0,-3.0480000972747803,0,0
1.6622180999984266,0.37249755859375,-0.4515380859375,0.31158447265625,-0.74847412109375,-0.244140625,0.0,0.1220703125,0.4427490234375,-0.8033447265625,0.39794921875,-296.0,152.0,-150.0,101691.0,-3.0480000972747803,0,0
1.6622760000027483,0.37249755859375,-0.4515380859375,0.31158447265625,-0.74847412109375,-0.1220703125,0.06103515625,-0.244140625,0.443115234375,-0.8037109375,0.3988037109375,-296.0,152.0,-150.0,101691.0,-3.0480000972747803,0,0
1.6623422000120627,0.37249755859375,-0.4515380859375,0.31158447265625,-0.74847412109375,0.06103515625,0.0,-0.1220703125,0.4442138671875,-0.80126953125,0.398681640625,-296.0,152.0,-150.0,101691.0,-3.0480000972747803,0,0
1.6623985000042012,0.37249755859375,-0.4515380859375,0.31158447265625,-0.74847412109375,-0.18310546875,-0.06103515625,0.1220703125,0.44189453125,-0.8026123046875,0.3975830078125,-296.0,152.0,-150.0,101691.0,-3.0480000972747803,0,0
1.6656878000067081,0.37249755859375,-0.4515380859375,0.31158447265625,-0.74847412109375,-0.18310546875,-0.06103515625,0.1220703125,0.44189453125,-0.8026123046875,0.3975830078125,-297.0,153.0,-149.0,101692.0,-3.0510001182556152,0,0
1.6657448000041768,0.37249755859375,-0.4515380859375,0.31158447265625,-0.74847412109375,0.0,0.0,-0.1220703125,0.4434814453125,-0.8023681640625,0.3984375,-297.0,153.0,-149.0,101692.0,-3.0510001182556152,0,0
1.6657989000086673,0.372589111328125,-0.451568603515625,0.3115234375,-0.7484130859375,-0.244140625,0.18310546875,0.1220703125,0.445068359375,-0.80224609375,0.3970947265625,-297.0,153.0,-149.0,101692.0,-3.0510001182556152,0,0
1.6658525000093505,0.372589111328125,-0.45159912109375,0.3115234375,-0.7484130859375,-0.48828125,-0.1220703125,-0.42724609375,0.444091796875,-0.8040771484375,0.39599609375,-297.0,153.0,-149.0,101692.0,-3.0510001182556152,0,0
1.665906800000812,0.372589111328125,-0.45159912109375,0.3115234375,-0.7484130859375,-0.48828125,-0.1220703125,-0.42724609375,0.444091796875,-0.8040771484375,0.39599609375,-297.0,153.0,-149.0,101692.0,-3.0510001182556152,0,0
1.6659611000068253,0.372589111328125,-0.45159912109375,0.3115234375,-0.7484130859375,-0.244140625,-0.06103515625,0.1220703125,0.445556640625,-0.8033447265625,0.39697265625,-297.0,153.0,-149.0,101692.0,-3.0510001182556152,0,0
1.726176399999531,0.372589111328125,-0.45159912109375,0.311553955078125,-0.7484130859375,-0.06103515625,-0.06103515625,-0.06103515625,0.4410400390625,-0.801513671875,0.3975830078125,-297.0,153.0,-149.0,101692.0,-3.0510001182556152,0,0
1.726247600003262,0.372589111328125,-0.45159912109375,0.311553955078125,-0.7484130859375,0.30517578125,0.0,0.18310546875,0.4432373046875,-0.80126953125,0.3973388671875,-297.0,153.0,-149.0,101692.0,-3.0510001182556152,0,0
1.7263079000113066,0.372589111328125,-0.45159912109375,0.311553955078125,-0.7484130859375,0.0,0.06103515625,0.0,0.4434814453125,-0.8013916015625,0.3997802734375,-297.0,153.0,-149.0,101692.0,-3.0510001182556152,0,0
1.7263655999995535,0.372589111328125,-0.45159912109375,0.311553955078125,-0.7484130859375,0.0,-0.06103515625,-0.244140625,0.4439697265625,-0.802490234375,0.39697265625,-297.0,153.0,-149.0,101692.0,-3.0510001182556152,0,0
1.7264213000016753,0.372589111328125,-0.45159912109375,0.311553955078125,-0.7484130859375,0.0,-0.06103515625,0.06103515625,0.44482421875,-0.8026123046875,0.3963623046875,-297.0,153.0,-149.0,101692.0,-3.0510001182556152,0,0
1.7267372000060277,0.372589111328125,-0.45159912109375,0.311553955078125,-0.7484130859375,0.0,0.0,-0.06103515625,0.443603515625,-0.8033447265625,0.397216796875,-297.0,153.0,-149.0,101692.0,-3.0510001182556152,0,0
1.726799000010942,0.372589111328125,-0.45159912109375,0.311553955078125,-0.7484130859375,0.0,0.0,-0.06103515625,0.443603515625,-0.8033447265625,0.397216796875,-297.0,153.0,-149.0,101692.0,-3.0510001182556152,0,0
1.7268570000014734,0.372589111328125,-0.45159912109375,0.311553955078125,-0.7484130859375,-0.1220703125,0.1220703125,-0.06103515625,0.44287109375,-0.802490234375,0.396240234375,-297.0,153.0,-149.0,101692.0,-3.0510001182556152,0,0
1.7269110000052024,0.372589111328125,-0.451629638671875,0.311553955078125,-0.7484130859375,0.06103515625,-0.244140625,0.0,0.4432373046875,-0.802001953125,0.3970947265625,-297.0,153.0,-149.0,101692.0,-3.0510001182556152,0,0
1.7269648000074085,0.372589111328125,-0.45159912109375,0.311553955078125,-0.7484130859375,-0.18310546875,0.06103515625,-0.18310546875,0.4423828125,-0.8031005859375,0.3978271484375,-297.0,153.0,-149.0,101692.0,-3.0510001182556152,0,0
1.7270185000088532,0.372589111328125,-0.451629638671875,0.311553955078125,-0.7484130859375,0.18310546875,0.18310546875,-0.18310546875,0.444091796875,-0.802490234375,0.3958740234375,-297.0,153.0,-149.0,101692.0,-3.0510001182556152,0,0
1.7956884000013815,0.372589111328125,-0.451629638671875,0.311553955078125,-0.7484130859375,-0.244140625,-0.18310546875,-0.06103515625,0.443359375,-0.8016357421875,0.396240234375,-297.0,153.0,-149.0,101692.0,-3.0510001182556152,0,0
1.7957569999998668,0.372589111328125,-0.451629638671875,0.311553955078125,-0.7484130859375,0.18310546875,-0.1220703125,-0.244140625,0.4427490234375,-0.80224609375,0.3963623046875,-297.0,153.0,-149.0,101691.0,-3.0490002632141113,0,0
1.7958157000102801,0.37255859375,-0.451629638671875,0.311553955078125,-0.7484130859375,0.18310546875,0.0,-0.1220703125,0.445068359375,-0.8031005859375,0.3980712890625,-297.0,153.0,-149.0,101691.0,-3.0490002632141113,0,0
1.795871200010879,0.3726806640625,-0.45166015625,0.311492919921875,-0.74835205078125,0.18310546875,-0.06103515625,0.1220703125,0.44482421875,-0.803466796875,0.3975830078125,-297.0,153.0,-149.0,101691.0,-3.0490002632141113,0,0
1.7959410000039497,0.3726806640625,-0.45166015625,0.311492919921875,-0.74835205078125,0.18310546875,-0.06103515625,0.1220703125,0.44482421875,-0.803466796875,0.3975830078125,-297.0,153.0,-149.0,101691.0,-3.0490002632141113,0,0
1.7960038000019267,0.3726806640625,-0.45166015625,0.311492919921875,-0.74835205078125,-0.30517578125,0.06103515625,-0.18310546875,0.4427490234375,-0.802490234375,0.3966064453125,-297.0,153.0,-149.0,101691.0,-3.0490002632141113,0,0
1.7961260000010952,0.3726806640625,-0.45166015625,0.311492919921875,-0.74835205078125,0.1220703125,0.18310546875,-0.06103515625,0.444091796875,-0.8028564453125,0.3951416015625,-297.0,153.0,-149.0,101691.0,-3.0490002632141113,0,0
1.7989769999985583,0.3726806640625,-0.45166015625,0.311492919921875,-0.74835205078125,-0.30517578125,-0.244140625,-0.06103515625,0.4423828125,-0.8031005859375,0.3966064453125,-297.0,153.0,-149.0,101691.0,-3.0490002632141113,0,0
1.7990382999996655,0.3726806640625,-0.451690673828125,0.3115234375,-0.74835205078125,0.30517578125,-0.06103515625,-0.30517578125,0.443359375,-0.803466796875,0.3958740234375,-297.0,153.0,-149.0,101691.0,-3.0490002632141113,0,0
1.7990950000094017,0.3726806640625,-0.451690673828125,0.3115234375,-0.748321533203125,-0.18310546875,-0.3662109375,-0.244140625,0.4443359375,-0.8038330078125,0.3958740234375,-297.0,153.0,-149.0,101691.0,-3.0490002632141113,0,0
1.7991490999993403,0.3726806640625,-0.451690673828125,0.3115234375,-0.748321533203125,0.0,-0.1220703125,0.244140625,0.4439697265625,-0.80224609375,0.397216796875,-297.0,153.0,-149.0,101691.0,-3.0490002632141113,0,0
1.7992043999984162,0.372650146484375,-0.451690673828125,0.3115234375,-0.748321533203125,0.1220703125,-0.18310546875,-0.06103515625,0.4461669921875,-0.802490234375,0.3980712890625,-297.0,153.0,-149.0,101691.0,-3.0490002632141113,0,0
1.7992574000090826,0.372650146484375,-0.451690673828125,0.3115234375,-0.748321533203125,-0.06103515625,-0.18310546875,-0.244140625,0.4442138671875,-0.802490234375,0.398681640625,-297.0,153.0,-149.0,101691.0,-3.0490002632141113,0,0
1.8567069999990053,0.372650146484375,-0.451690673828125,0.3115234375,-0.748321533203125,0.0,0.1220703125,-0.18310546875,0.44482421875,-0.8048095703125,0.398193359375,-297.0,153.0,-149.0,101691.0,-3.0490002632141113,0,0
1.8567809000087436,0.372650146484375,-0.451690673828125,0.3115234375,-0.748321533203125,0.06103515625,0.06103515625,0.1220703125,0.4439697265625,-0.8046875,0.3956298828125,-297.0,153.0,-149.0,101691.0,-3.0490002632141113,0,0
1.8568419000075664,0.372650146484375,-0.451690673828125,0.3115234375,-0.748321533203125,0.1220703125,0.0,0.0,0.4442138671875,-0.80419921875,0.3973388671875,-297.0,153.0,-149.0,101691.0,-3.0490002632141113,0,0
1.8568992000073195,0.372650146484375,-0.451690673828125,0.3115234375,-0.748321533203125,0.18310546875,0.18310546875,-0.1220703125,0.4442138671875,-0.8028564453125,0.3974609375,-297.0,153.0,-149.0,101691.0,-3.0490002632141113,0,0
1.8569538000010652,0.372650146484375,-0.451690673828125,0.3115234375,-0.748321533203125,-0.18310546875,-0.244140625,-0.1220703125,0.4443359375,-0.802001953125,0.398193359375,-297.0,153.0,-149.0,101691.0,-3.0490002632141113,0,0
1.857543900012388,0.372650146484375,-0.451690673828125,0.3115234375,-0.748321533203125,0.18310546875,0.0,0.06103515625,0.4434814453125,-0.8017578125,0.39794921875,-297.0,153.0,-149.0,101691.0,-3.0490002632141113,0,0
1.8576040000043577,0.372650146484375,-0.451690673828125,0.3115234375,-0.748321533203125,-0.1220703125,0.06103515625,-0.06103515625,0.4403076171875,-0.802001953125,0.3963623046875,-297.0,153.0,-149.0,101691.0,-3.0490002632141113,0,0
1.8576966000109678,0.372650146484375,-0.451690673828125,0.3115234375,-0.748321533203125,-0.1220703125,0.06103515625,-0.06103515625,0.4403076171875,-0.802001953125,0.3963623046875,-298.0,152.0,-149.0,101691.0,-3.0490002632141113,0,0
1.8577713999984553,0.372650146484375,-0.451690673828125,0.3115234375,-0.748321533203125,-0.1220703125,0.06103515625,-0.06103515625,0.4403076171875,-0.802001953125,0.3963623046875,-298.0,152.0,-149.0,101691.0,-3.0490002632141113,0,0
1.8578340000094613,0.37286376953125,-0.4517822265625,0.3114013671875,-0.74822998046875,0.3662109375,-0.06103515625,-0.3662109375,0.44287109375,-0.8033447265625,0.3966064453125,-298.0,152.0,-149.0,101691.0,-3.0490002632141113,0,0
1.8582060000044294,0.37286376953125,-0.4517822265625,0.3114013671875,-0.74822998046875,0.06103515625,-0.244140625,-0.244140625,0.441650390625,-0.8028564453125,0.3984375,-298.0,152.0,-149.0,101691.0,-3.0490002632141113,0,0
1.9194572999986121,0.37286376953125,-0.451751708984375,0.3114013671875,-0.74822998046875,-0.18310546875,0.06103515625,-0.06103515625,0.44384765625,-0.8026123046875,0.3992919921875,-298.0,152.0,-149.0,101691.0,-3.0490002632141113,0,0
1.919520300012664,0.37286376953125,-0.451751708984375,0.3114013671875,-0.74822998046875,0.06103515625,0.06103515625,0.18310546875,0.4434814453125,-0.8021240234375,0.3990478515625,-298.0,152.0,-149.0,101691.0,-3.0490002632141113,0,0
1.919576300002518,0.37286376953125,-0.451751708984375,0.3114013671875,-0.74822998046875,-0.1220703125,0.06103515625,-0.1220703125,0.4434814453125,-0.802001953125,0.39892578125,-298.0,152.0,-149.0,101691.0,-3.0490002632141113,0,0
1.91963490001217,0.37286376953125,-0.451751708984375,0.3114013671875,-0.74822998046875,0.1220703125,0.1220703125,-0.244140625,0.44482421875,-0.801513671875,0.398681640625,-298.0,152.0,-149.0,101691.0,-3.0490002632141113,0,0
1.919692399998894,0.37286376953125,-0.451751708984375,0.3114013671875,-0.74822998046875,0.244140625,0.06103515625,0.18310546875,0.444580078125,-0.802734375,0.398681640625,-298.0,152.0,-149.0,101691.0,-3.0490002632141113,0,0
1.920044800004689,0.37286376953125,-0.451751708984375,0.3114013671875,-0.74822998046875,0.244140625,0.06103515625,0.18310546875,0.444580078125,-0.802734375,0.398681640625,-298.0,152.0,-149.0,101691.0,-3.0490002632141113,0,0
1.9201012999983504,0.37286376953125,-0.451751708984375,0.3114013671875,-0.74822998046875,-0.06103515625,0.0,-0.244140625,0.442138671875,-0.8037109375,0.39697265625,-298.0,152.0,-149.0,101691.0,-3.0490002632141113,0,0
1.9201560000074096,0.37286376953125,-0.451751708984375,0.3114013671875,-0.74822998046875,-0.42724609375,0.0,0.06103515625,0.440185546875,-0.8033447265625,0.397216796875,-298.0,152.0,-149.0,101691.0,-3.0490002632141113,0,0
1.9202101000119,0.37286376953125,-0.451751708984375,0.3114013671875,-0.74822998046875,0.0,0.0,-0.244140625,0.443115234375,-0.802734375,0.3974609375,-298.0,152.0,-149.0,101691.0,-3.0490002632141113,0,0
1.9202640000003157,0.37286376953125,-0.451751708984375,0.3114013671875,-0.74822998046875,0.42724609375,0.06103515625,-0.18310546875,0.4449462890625,-0.80126953125,0.396728515625,-298.0,152.0,-149.0,101691.0,-3.0490002632141113,0,0
1.9203170000109822,0.37286376953125,-0.451751708984375,0.3114013671875,-0.74822998046875,-0.06103515625,0.0,-0.06103515625,0.4449462890625,-0.8023681640625,0.39599609375,-298.0,152.0,-149.0,101691.0,-3.0490002632141113,0,0
1.9846764000103576,0.37286376953125,-0.451751708984375,0.3114013671875,-0.74822998046875,0.0,0.06103515625,-0.1220703125,0.44384765625,-0.8013916015625,0.39794921875,-298.0,152.0,-149.0,101691.0,-3.0490002632141113,0,0
1.984741500011296,0.37286376953125,-0.451751708984375,0.3114013671875,-0.74822998046875,0.30517578125,0.1220703125,-0.06103515625,0.44287109375,-0.8018798828125,0.39697265625,-298.0,152.0,-149.0,101691.0,-3.0490002632141113,0,0
1.984799199999543,0.37286376953125,-0.451751708984375,0.3114013671875,-0.74822998046875,-0.06103515625,-0.1220703125,0.06103515625,0.44189453125,-0.8016357421875,0.39599609375,-298.0,152.0,-149.0,101691.0,-3.0490002632141113,0,0
1.9848503000102937,0.37286376953125,-0.451751708984375,0.3114013671875,-0.74822998046875,-0.06103515625,-0.1220703125,0.06103515625,0.44189453125,-0.8016357421875,0.39599609375,-298.0,152.0,-149.0,101691.0,-3.0490002632141113,0,0
1.9849021000118228,0.37286376953125,-0.451751708984375,0.3114013671875,-0.74822998046875,0.18310546875,-0.06103515625,-0.06103515625,0.4427490234375,-0.8009033203125,0.3966064453125,-298.0,153.0,-150.0,101691.0,-3.0500001907348633,0,0
1.9849538999988,0.37286376953125,-0.451751708984375,0.3114013671875,-0.74822998046875,0.0,-0.30517578125,0.0,0.4434814453125,-0.8028564453125,0.39794921875,-298.0,153.0,-150.0,101691.0,-3.0500001907348633,0,0
1.9850059000018518,0.37286376953125,-0.451751708984375,0.3114013671875,-0.74822998046875,0.1220703125,-0.244140625,0.1220703125,0.4442138671875,-0.8011474609375,0.3983154296875,-298.0,153.0,-150.0,101691.0,-3.0500001907348633,0,0
1.985578700012411,0.37286376953125,-0.451751708984375,0.3114013671875,-0.74822998046875,0.18310546875,0.1220703125,-0.1220703125,0.4443359375,-0.8013916015625,0.3980712890625,-298.0,153.0,-150.0,101691.0,-3.0500001907348633,0,0
1.9856355000083568,0.37286376953125,-0.451751708984375,0.3114013671875,-0.74822998046875,0.18310546875,-0.06103515625,-0.1220703125,0.4422607421875,-0.8037109375,0.3992919921875,-298.0,153.0,-150.0,101691.0,-3.0500001907348633,0,0
1.9858011000033002,0.37286376953125,-0.451751708984375,0.3114013671875,-0.74822998046875,0.18310546875,-0.06103515625,-0.1220703125,0.4422607421875,-0.8037109375,0.3992919921875,-298.0,153.0,-150.0,101691.0,-3.0500001907348633,0,0
1.9858648000081303,0.37286376953125,-0.451751708984375,0.3114013671875,-0.74822998046875,0.6103515625,0.30517578125,-0.18310546875,0.4434814453125,-0.8018798828125,0.39794921875,-298.0,153.0,-150.0,101691.0,-3.0500001907348633,0,0
1.9859212000010302,0.37286376953125,-0.451751708984375,0.3114013671875,-0.748260498046875,0.18310546875,0.0,-0.1220703125,0.4454345703125,-0.8013916015625,0.3980712890625,-298.0,153.0,-150.0,101691.0,-3.0500001907348633,0,0
1.9861105000018142,0.37286376953125,-0.451751708984375,0.311370849609375,-0.748260498046875,-0.06103515625,0.1220703125,-0.1220703125,0.4439697265625,-0.801513671875,0.398193359375,-298.0,153.0,-150.0,101691.0,-3.0500001907348633,0,0
2.050656400009757,0.372894287109375,-0.45172119140625,0.3114013671875,-0.748260498046875,0.0,-0.06103515625,0.0,0.442138671875,-0.802734375,0.3983154296875,-298.0,153.0,-150.0,101691.0,-3.0500001907348633,0,0
2.050719700011541,0.372894287109375,-0.45172119140625,0.3114013671875,-0.748260498046875,0.18310546875,0.1220703125,-0.18310546875,0.443603515625,-0.8035888671875,0.3985595703125,-298.0,153.0,-150.0,101691.0,-3.0500001907348633,0,0
2.0507757000013953,0.372894287109375,-0.45172119140625,0.3114013671875,-0.748260498046875,0.0,-0.18310546875,0.0,0.443115234375,-0.8031005859375,0.3995361328125,-298.0,153.0,-150.0,101691.0,-3.0500001907348633,0,0
2.0508298000058858,0.372894287109375,-0.45172119140625,0.3114013671875,-0.748260498046875,-0.18310546875,-0.18310546875,-0.18310546875,0.443603515625,-0.8045654296875,0.39892578125,-298.0,153.0,-150.0,101691.0,-3.0500001907348633,0,0
2.0508831000042846,0.372894287109375,-0.45172119140625,0.3114013671875,-0.748260498046875,0.0,-0.06103515625,-0.06103515625,0.4462890625,-0.801513671875,0.39794921875,-298.0,153.0,-150.0,101691.0,-3.0500001907348633,0,0
2.0509538000042085,0.372894287109375,-0.45172119140625,0.3114013671875,-0.748260498046875,-0.18310546875,0.06103515625,-0.1220703125,0.4453125,-0.80126953125,0.3988037109375,-298.0,153.0,-150.0,101691.0,-3.0500001907348633,0,0
2.05101170000853,0.37286376953125,-0.45172119140625,0.311370849609375,-0.748260498046875,-0.1220703125,-0.1220703125,-0.06103515625,0.44580078125,-0.8023681640625,0.399658203125,-298.0,153.0,-150.0,101691.0,-3.0500001907348633,0,0
2.0510664000030374,0.37286376953125,-0.45172119140625,0.311370849609375,-0.748260498046875,-0.1220703125,-0.1220703125,-0.06103515625,0.44580078125,-0.8023681640625,0.399658203125,-298.0,153.0,-150.0,101691.0,-3.0500001907348633,0,0
2.051121000011335,0.372894287109375,-0.45172119140625,0.311370849609375,-0.748260498046875,0.0,-0.06103515625,0.06103515625,0.4429931640625,-0.8028564453125,0.3984375,-298.0,153.0,-150.0,101691.0,-3.0500001907348633,0,0
2.051174899999751,0.372894287109375,-0.45172119140625,0.311370849609375,-0.748260498046875,0.0,-0.06103515625,0.06103515625,0.4429931640625,-0.8028564453125,0.3984375,-297.0,153.0,-150.0,101691.0,-3.0490002632141113,0,0
2.051228299998911,0.372894287109375,-0.45172119140625,0.311370849609375,-0.748260498046875,0.06103515625,0.1220703125,-0.06103515625,0.442626953125,-0.8013916015625,0.3970947265625,-297.0,153.0,-150.0,101691.0,-3.0490002632141113,0,0
2.1098502000095323,0.372894287109375,-0.45172119140625,0.311370849609375,-0.748260498046875,0.06103515625,-0.1220703125,-0.06103515625,0.4407958984375,-0.8031005859375,0.3983154296875,-297.0,153.0,-150.0,101691.0,-3.0490002632141113,0,0
2.109912500003702,0.372894287109375,-0.45172119140625,0.311370849609375,-0.748260498046875,0.30517578125,0.06103515625,-0.244140625,0.443603515625,-0.8011474609375,0.3984375,-297.0,153.0,-150.0,101691.0,-3.0490002632141113,0,0
2.1099695000011707,0.372894287109375,-0.45172119140625,0.311370849609375,-0.748260498046875,-0.1220703125,-0.06103515625,0.06103515625,0.4461669921875,-0.801025390625,0.3983154296875,-297.0,153.0,-150.0,101691.0,-3.0490002632141113,0,0
2.110026900001685,0.372894287109375,-0.45172119140625,0.311370849609375,-0.748260498046875,0.1220703125,0.06103515625,-0.06103515625,0.44287109375,-0.8031005859375,0.3974609375,-297.0,153.0,-150.0,101691.0,-3.0490002632141113,0,0
2.110084600004484,0.372894287109375,-0.45172119140625,0.311370849609375,-0.748260498046875,0.1220703125,0.06103515625,-0.06103515625,0.44287109375,-0.8031005859375,0.3974609375,-297.0,153.0,-150.0,101691.0,-3.0490002632141113,0,0
2.110488300008001,0.372894287109375,-0.45172119140625,0.311370849609375,-0.748260498046875,-0.1220703125,-0.1220703125,-0.18310546875,0.4422607421875,-0.8016357421875,0.3973388671875,-297.0,153.0,-150.0,101691.0,-3.0490002632141113,0,0
2.110548900003778,0.372894287109375,-0.45172119140625,0.311370849609375,-0.748260498046875,-0.18310546875,-0.244140625,0.06103515625,0.4432373046875,-0.80126953125,0.3990478515625,-297.0,153.0,-150.0,101691.0,-3.0490002632141113,0,0
2.1106015000113985,0.372894287109375,-0.45172119140625,0.311370849609375,-0.748260498046875,0.18310546875,-0.1220703125,-0.244140625,0.4442138671875,-0.8001708984375,0.399169921875,-297.0,153.0,-150.0,101691.0,-3.0490002632141113,0,0
2.1106537000014214,0.37286376953125,-0.45172119140625,0.311370849609375,-0.748260498046875,-0.244140625,-0.1220703125,0.0,0.443115234375,-0.8023681640625,0.396484375,-297.0,153.0,-150.0,101691.0,-3.0490002632141113,0,0
2.110706899999059,0.372894287109375,-0.45172119140625,0.311370849609375,-0.748260498046875,0.06103515625,-0.244140625,-0.1220703125,0.44921875,-0.8050537109375,0.3970947265625,-297.0,153.0,-150.0,101691.0,-3.0490002632141113,0,0
2.1107595000066794,0.372894287109375,-0.45172119140625,0.311370849609375,-0.748260498046875,-0.244140625,0.06103515625,-0.06103515625,0.4427490234375,-0.803955078125,0.3983154296875,-297.0,153.0,-150.0,101691.0,-3.0490002632141113,0,0
2.173561300005531,0.372894287109375,-0.45172119140625,0.311370849609375,-0.748260498046875,-0.18310546875,0.06103515625,0.0,0.4415283203125,-0.800537109375,0.399169921875,-297.0,153.0,-150.0,101691.0,-3.0490002632141113,0,0
2.1736436000064714,0.372894287109375,-0.45172119140625,0.311370849609375,-0.748260498046875,0.06103515625,0.06103515625,0.0,0.4427490234375,-0.8031005859375,0.3966064453125,-297.0,153.0,-150.0,101691.0,-3.0490002632141113,0,0
2.173702600004617,0.372894287109375,-0.45172119140625,0.311370849609375,-0.748260498046875,0.06103515625,0.06103515625,0.0,0.4427490234375,-0.8031005859375,0.3966064453125,-297.0,153.0,-150.0,101691.0,-3.0490002632141113,0,0
2.1737957000004826,0.372894287109375,-0.45172119140625,0.311370849609375,-0.748260498046875,-0.244140625,-0.1220703125,-0.1220703125,0.4417724609375,-0.8017578125,0.3974609375,-297.0,153.0,-150.0,101691.0,-3.0490002632141113,0,0
2.1738702000002377,0.372894287109375,-0.45172119140625,0.311370849609375,-0.748260498046875,0.18310546875,-0.1220703125,-0.1220703125,0.44287109375,-0.8023681640625,0.3970947265625,-297.0,153.0,-150.0,101691.0,-3.0490002632141113,0,0
2.1747883000061847,0.372894287109375,-0.451690673828125,0.311370849609375,-0.748260498046875,0.06103515625,0.06103515625,-0.3662109375,0.441650390625,-0.7994384765625,0.399169921875,-297.0,153.0,-150.0,101691.0,-3.0490002632141113,0,0
2.174862400002894,0.372894287109375,-0.451690673828125,0.311370849609375,-0.748260498046875,0.18310546875,-0.244140625,-0.54931640625,0.4434814453125,-0.8017578125,0.398193359375,-296.0,151.0,-149.0,101691.0,-3.0490002632141113,0,0
2.1751746000081766,0.372894287109375,-0.451690673828125,0.311370849609375,-0.748260498046875,0.0,0.0,-0.1220703125,0.44482421875,-0.802490234375,0.39501953125,-296.0,151.0,-149.0,101691.0,-3.0490002632141113,0,0
2.1752290000003995,0.372894287109375,-0.45172119140625,0.311370849609375,-0.748260498046875,-0.18310546875,-0.18310546875,0.18310546875,0.44677734375,-0.8026123046875,0.3983154296875,-296.0,151.0,-149.0,101691.0,-3.0490002632141113,0,0
2.1752817000087816,0.372894287109375,-0.451690673828125,0.311370849609375,-0.748291015625,0.30517578125,0.06103515625,0.18310546875,0.443359375,-0.802734375,0.4007568359375,-296.0,151.0,-149.0,101691.0,-3.0490002632141113,0,0
2.175334900006419,0.372894287109375,-0.451690673828125,0.31134033203125,-0.748291015625,0.1220703125,-0.06103515625,-0.06103515625,0.4439697265625,-0.8028564453125,0.39990234375,-296.0,151.0,-149.0,101691.0,-3.0490002632141113,0,0
2.175389100011671,0.372894287109375,-0.451690673828125,0.31134033203125,-0.748291015625,0.06103515625,0.06103515625,0.0,0.4442138671875,-0.802734375,0.400390625,-296.0,151.0,-149.0,101691.0,-3.0490002632141113,0,0
2.1754423000093084,0.372894287109375,-0.451690673828125,0.31134033203125,-0.748291015625,0.06103515625,0.06103515625,0.0,0.4442138671875,-0.802734375,0.400390625,-296.0,151.0,-149.0,101691.0,-3.0490002632141113,0,0
2.238313800000469,0.372894287109375,-0.451690673828125,0.31134033203125,-0.748291015625,-0.06103515625,0.0,0.244140625,0.445068359375,-0.806396484375,0.39990234375,-296.0,151.0,-149.0,101691.0,-3.0490002632141113,0,0
2.2383760000084294,0.372894287109375,-0.451690673828125,0.31134033203125,-0.748291015625,0.06103515625,0.244140625,0.0,0.4459228515625,-0.8057861328125,0.3997802734375,-296.0,151.0,-149.0,101691.0,-3.0490002632141113,0,0
2.2384304000006523,0.372894287109375,-0.451690673828125,0.31134033203125,-0.748291015625,0.06103515625,0.0,0.06103515625,0.4443359375,-0.8045654296875,0.39892578125,-296.0,151.0,-149.0,101691.0,-3.0490002632141113,0,0
2.2384834000113187,0.372894287109375,-0.451690673828125,0.31134033203125,-0.748291015625,0.244140625,0.06103515625,-0.3662109375,0.4422607421875,-0.802734375,0.398193359375,-296.0,151.0,-149.0,101691.0,-3.0490002632141113,0,0
2.2385378000035416,0.372894287109375,-0.451690673828125,0.31134033203125,-0.748291015625,0.48828125,-0.18310546875,-0.54931640625,0.4427490234375,-0.80419921875,0.3975830078125,-296.0,151.0,-149.0,101691.0,-3.0490002632141113,0,0
2.2391570000036154,0.372894287109375,-0.451690673828125,0.31134033203125,-0.748291015625,-0.06103515625,-0.1220703125,-0.48828125,0.4420166015625,-0.8006591796875,0.396484375,-296.0,151.0,-149.0,101691.0,-3.0490002632141113,0,0
2.239222600008361,0.372894287109375,-0.451690673828125,0.31134033203125,-0.748291015625,-0.06103515625,-0.1220703125,-0.48828125,0.4420166015625,-0.8006591796875,0.396484375,-296.0,151.0,-149.0,101691.0,-3.0490002632141113,0,0
2.2392800000088755,0.372894287109375,-0.451690673828125,0.31134033203125,-0.748291015625,0.1220703125,-0.30517578125,-0.30517578125,0.4462890625,-0.801025390625,0.3975830078125,-296.0,151.0,-149.0,101691.0,-3.0490002632141113,0,0
2.239334800004144,0.372894287109375,-0.451690673828125,0.31134033203125,-0.748291015625,-0.1220703125,-0.244140625,-0.06103515625,0.4459228515625,-0.8011474609375,0.3985595703125,-296.0,151.0,-149.0,101691.0,-3.0490002632141113,0,0
2.2393875000125263,0.372894287109375,-0.451690673828125,0.31134033203125,-0.748291015625,0.30517578125,0.0,0.0,0.4447021484375,-0.803955078125,0.3985595703125,-296.0,151.0,-149.0,101691.0,-3.0490002632141113,0,0
2.2394396000017878,0.372894287109375,-0.451690673828125,0.31134033203125,-0.748291015625,-0.18310546875,0.0,0.732421875,0.4456787109375,-0.8052978515625,0.399169921875,-296.0,151.0,-149.0,101691.0,-3.0490002632141113,0,0
2.299567100009881,0.372894287109375,-0.45166015625,0.31134033203125,-0.748291015625,0.0,-0.18310546875,0.1220703125,0.4412841796875,-0.802978515625,0.39990234375,-295.0,150.0,-148.0,101691.0,-3.0490002632141113,0,0
2.299631000001682,0.372894287109375,-0.45166015625,0.31134033203125,-0.748291015625,0.0,-0.06103515625,-0.06103515625,0.443359375,-0.804443359375,0.3995361328125,-295.0,150.0,-148.0,101691.0,-3.0490002632141113,0,0
2.2996871000068495,0.372894287109375,-0.45166015625,0.31134033203125,-0.748291015625,-0.1220703125,-0.06103515625,-0.18310546875,0.44482421875,-0.8052978515625,0.400390625,-295.0,150.0,-148.0,101691.0,-3.0490002632141113,0,0
2.2997404000052484,0.372894287109375,-0.45166015625,0.31134033203125,-0.748291015625,-0.1220703125,-0.06103515625,-0.18310546875,0.44482421875,-0.8052978515625,0.400390625,-295.0,150.0,-148.0,101691.0,-3.0490002632141113,0,0
2.29979610000737,0.372894287109375,-0.45166015625,0.31134033203125,-0.748291015625,-0.06103515625,0.1220703125,0.1220703125,0.4453125,-0.8067626953125,0.3985595703125,-295.0,150.0,-148.0,101691.0,-3.0490002632141113,0,0
2.299865300010424,0.3729248046875,-0.45166015625,0.31134033203125,-0.748291015625,0.18310546875,0.0,0.0,0.4466552734375,-0.8067626953125,0.400146484375,-295.0,150.0,-148.0,101691.0,-3.0490002632141113,0,0
2.2999210999987554,0.3729248046875,-0.451629638671875,0.31134033203125,-0.748291015625,-0.244140625,0.18310546875,0.0,0.439697265625,-0.8017578125,0.4002685546875,-295.0,150.0,-148.0,101691.0,-3.0490002632141113,0,0
2.299974100009422,0.3729248046875,-0.451629638671875,0.31134033203125,-0.748321533203125,0.1220703125,-0.1220703125,-0.30517578125,0.4398193359375,-0.8033447265625,0.3997802734375,-295.0,150.0,-148.0,101691.0,-3.0490002632141113,0,0
2.3000269000040134,0.3729248046875,-0.451629638671875,0.31134033203125,-0.748321533203125,-0.18310546875,0.0,-0.54931640625,0.442138671875,-0.799560546875,0.3974609375,-295.0,150.0,-148.0,101691.0,-3.0490002632141113,0,0
2.3000794000108726,0.3729248046875,-0.451629638671875,0.31134033203125,-0.748321533203125,0.30517578125,-0.1220703125,-0.6103515625,0.4429931640625,-0.8023681640625,0.39794921875,-295.0,150.0,-148.0,101691.0,-3.0490002632141113,0,0
2.300132100004703,0.3729248046875,-0.451629638671875,0.311309814453125,-0.748321533203125,0.6103515625,0.0,-0.48828125,0.4466552734375,-0.801513671875,0.3974609375,-295.0,150.0,-148.0,101691.0,-3.0490002632141113,0,0
2.300185900006909,0.3729248046875,-0.451629638671875,0.311309814453125,-0.748321533203125,-0.06103515625,0.06103515625,0.1220703125,0.4429931640625,-0.7987060546875,0.3970947265625,-295.0,150.0,-148.0,101691.0,-3.0490002632141113,0,0
2.3671761000005063,0.3729248046875,-0.451629638671875,0.311309814453125,-0.748321533203125,-0.06103515625,0.06103515625,0.1220703125,0.4429931640625,-0.7987060546875,0.3970947265625,-295.0,150.0,-148.0,101691.0,-3.0490002632141113,0,0
2.367241300002206,0.3729248046875,-0.451629638671875,0.311309814453125,-0.748321533203125,-0.1220703125,-0.06103515625,-0.1220703125,0.4400634765625,-0.79736328125,0.3966064453125,-295.0,150.0,-148.0,101691.0,-3.0490002632141113,0,0
2.367297700009658,0.3729248046875,-0.451629638671875,0.311309814453125,-0.748321533203125,-0.1220703125,0.06103515625,-0.06103515625,0.44384765625,-0.7991943359375,0.3988037109375,-295.0,150.0,-148.0,101691.0,-3.0490002632141113,0,0
2.3673549000086496,0.372894287109375,-0.451629638671875,0.311309814453125,-0.748321533203125,0.06103515625,0.18310546875,0.18310546875,0.447509765625,-0.80322265625,0.3988037109375,-295.0,150.0,-148.0,101691.0,-3.0490002632141113,0,0
2.3674076000024797,0.372894287109375,-0.451629638671875,0.311309814453125,-0.748321533203125,-0.06103515625,0.06103515625,0.48828125,0.4468994140625,-0.80712890625,0.3995361328125,-295.0,150.0,-148.0,101691.0,-3.0490002632141113,0,0
2.367560600003344,0.372894287109375,-0.451629638671875,0.311309814453125,-0.748321533203125,0.244140625,0.06103515625,0.48828125,0.4468994140625,-0.80615234375,0.4005126953125,-295.0,150.0,-148.0,101691.0,-3.0490002632141113,0,0
2.367632500012405,0.372894287109375,-0.451629638671875,0.311309814453125,-0.748321533203125,-0.42724609375,0.244140625,0.42724609375,0.4464111328125,-0.8079833984375,0.4005126953125,-295.0,150.0,-149.0,101691.0,-3.0490002632141113,0,0
2.3676850000047125,0.372802734375,-0.45159912109375,0.311370849609375,-0.748382568359375,0.1220703125,0.06103515625,0.0,0.4422607421875,-0.8084716796875,0.400390625,-295.0,150.0,-149.0,101691.0,-3.0490002632141113,0,0
2.3677395999984583,0.372833251953125,-0.451568603515625,0.311370849609375,-0.748382568359375,0.3662109375,0.06103515625,-0.30517578125,0.44287109375,-0.8094482421875,0.3983154296875,-295.0,150.0,-149.0,101691.0,-3.0490002632141113,0,0
2.3677923000068404,0.372833251953125,-0.451568603515625,0.3114013671875,-0.748382568359375,-0.244140625,-0.18310546875,-0.244140625,0.442626953125,-0.8038330078125,0.399658203125,-295.0,150.0,-149.0,101691.0,-3.0490002632141113,0,0
2.3678461000090465,0.372833251953125,-0.451568603515625,0.3114013671875,-0.748382568359375,-0.244140625,-0.18310546875,-0.244140625,0.442626953125,-0.8038330078125,0.399658203125,-295.0,150.0,-149.0,101691.0,-3.0490002632141113,0,0
2.367898700002115,0.372833251953125,-0.451568603515625,0.3114013671875,-0.748382568359375,0.06103515625,-0.3662109375,-0.6103515625,0.4422607421875,-0.8026123046875,0.398193359375,-295.0,150.0,-149.0,101691.0,-3.0490002632141113,0,0
2.4306733999983408,0.372833251953125,-0.451568603515625,0.311370849609375,-0.748382568359375,0.18310546875,0.0,-0.42724609375,0.4471435546875,-0.800537109375,0.39599609375,-295.0,150.0,-149.0,101691.0,-3.0490002632141113,0,0
2.430736900001648,0.372802734375,-0.451568603515625,0.311370849609375,-0.748382568359375,-0.244140625,0.18310546875,0.18310546875,0.4456787109375,-0.800537109375,0.39794921875,-295.0,150.0,-149.0,101691.0,-3.0490002632141113,0,0
2.4307924000022467,0.372802734375,-0.451568603515625,0.311370849609375,-0.748382568359375,-0.244140625,0.0,0.48828125,0.4442138671875,-0.8017578125,0.3980712890625,-295.0,150.0,-149.0,101692.0,-3.0510001182556152,0,0
2.4308474999997998,0.372802734375,-0.451568603515625,0.311370849609375,-0.748382568359375,-0.18310546875,-0.06103515625,0.48828125,0.4420166015625,-0.801513671875,0.3968505859375,-295.0,150.0,-149.0,101692.0,-3.0510001182556152,0,0
2.4309006000112277,0.372802734375,-0.451568603515625,0.311370849609375,-0.748382568359375,0.42724609375,-0.06103515625,0.3662109375,0.4404296875,-0.800048828125,0.3956298828125,-295.0,150.0,-149.0,101692.0,-3.0510001182556152,0,0
2.431355699998676,0.372802734375,-0.451568603515625,0.311370849609375,-0.748382568359375,0.42724609375,-0.06103515625,0.3662109375,0.4404296875,-0.800048828125,0.3956298828125,-295.0,150.0,-149.0,101692.0,-3.0510001182556152,0,0
2.4314066000079038,0.372833251953125,-0.451568603515625,0.311370849609375,-0.748382568359375,-0.1220703125,0.1220703125,0.244140625,0.445068359375,-0.8048095703125,0.4012451171875,-295.0,150.0,-149.0,101692.0,-3.0510001182556152,0,0
2.431458899998688,0.372802734375,-0.451568603515625,0.311370849609375,-0.748382568359375,0.18310546875,0.1220703125,0.244140625,0.4461669921875,-0.80517578125,0.3988037109375,-295.0,150.0,-149.0,101692.0,-3.0510001182556152,0,0
2.43151090000174,0.372802734375,-0.451568603515625,0.311370849609375,-0.748382568359375,-0.244140625,0.0,0.30517578125,0.4453125,-0.803955078125,0.3995361328125,-295.0,150.0,-149.0,101692.0,-3.0510001182556152,0,0
2.43173100000422,0.372833251953125,-0.451568603515625,0.311370849609375,-0.748382568359375,0.0,-0.06103515625,0.0,0.4461669921875,-0.8087158203125,0.39990234375,-295.0,150.0,-149.0,101692.0,-3.0510001182556152,0,0
2.43178590000025,0.372833251953125,-0.451568603515625,0.311370849609375,-0.748382568359375,0.18310546875,-0.244140625,-0.1220703125,0.4443359375,-0.8057861328125,0.3975830078125,-295.0,150.0,-149.0,101692.0,-3.0510001182556152,0,0
2.4901236000005156,0.372711181640625,-0.4515380859375,0.311431884765625,-0.748443603515625,0.30517578125,-0.30517578125,-0.42724609375,0.444091796875,-0.8052978515625,0.398681640625,-295.0,150.0,-149.0,101692.0,-3.0510001182556152,0,0
2.4901848000008613,0.372711181640625,-0.4515380859375,0.311431884765625,-0.748443603515625,0.30517578125,-0.30517578125,-0.42724609375,0.444091796875,-0.8052978515625,0.398681640625,-295.0,150.0,-149.0,101692.0,-3.0510001182556152,0,0
2.490239600010682,0.372711181640625,-0.4515380859375,0.311431884765625,-0.748443603515625,-0.30517578125,-0.54931640625,-0.8544921875,0.4366455078125,-0.7911376953125,0.3948974609375,-295.0,150.0,-149.0,101692.0,-3.0510001182556152,0,0
2.4902944000059506,0.372711181640625,-0.4515380859375,0.311431884765625,-0.748443603515625,0.18310546875,-0.18310546875,-0.9765625,0.44140625,-0.795654296875,0.39306640625,-295.0,150.0,-149.0,101692.0,-3.0510001182556152,0,0
2.4903486000112025,0.372711181640625,-0.451568603515625,0.3114013671875,-0.748443603515625,0.18310546875,0.0,-0.1220703125,0.4483642578125,-0.7999267578125,0.3970947265625,-295.0,150.0,-149.0,101692.0,-3.0510001182556152,0,0
2.490933400011272,0.372711181640625,-0.4515380859375,0.311431884765625,-0.748443603515625,0.18310546875,0.18310546875,0.54931640625,0.451171875,-0.8021240234375,0.3978271484375,-295.0,150.0,-149.0,101692.0,-3.0510001182556152,0,0
2.4909884000080638,0.37274169921875,-0.4515380859375,0.311431884765625,-0.7484130859375,0.06103515625,0.3662109375,1.220703125,0.4500732421875,-0.80712890625,0.399658203125,-295.0,150.0,-149.0,101692.0,-3.0510001182556152,0,0
2.491042699999525,0.372772216796875,-0.451507568359375,0.311492919921875,-0.7484130859375,-0.244140625,0.3662109375,1.28173828125,0.444091796875,-0.8079833984375,0.40283203125,-295.0,150.0,-149.0,101692.0,-3.0510001182556152,0,0
2.491096199999447,0.372802734375,-0.45147705078125,0.3115234375,-0.748382568359375,0.0,0.18310546875,0.244140625,0.440673828125,-0.8092041015625,0.3985595703125,-295.0,150.0,-149.0,101692.0,-3.0510001182556152,0,0
2.491148900007829,0.372802734375,-0.45147705078125,0.311553955078125,-0.748382568359375,0.30517578125,-0.1220703125,-0.1220703125,0.4393310546875,-0.80712890625,0.3955078125,-295.0,150.0,-149.0,101692.0,-3.0510001182556152,0,0
2.4912149000010686,0.372802734375,-0.45147705078125,0.311553955078125,-0.74835205078125,0.30517578125,-0.1220703125,-0.1220703125,0.4393310546875,-0.80712890625,0.3955078125,-295.0,150.0,-149.0,101691.0,-3.0490002632141113,0,0
2.491270300000906,0.372802734375,-0.45147705078125,0.311553955078125,-0.74835205078125,0.30517578125,-0.1220703125,-0.1220703125,0.4393310546875,-0.80712890625,0.3955078125,-295.0,150.0,-149.0,101691.0,-3.0490002632141113,0,0
2.558361400006106,0.372802734375,-0.451507568359375,0.31158447265625,-0.74835205078125,0.0,-0.48828125,-0.8544921875,0.440673828125,-0.801513671875,0.3955078125,-295.0,150.0,-149.0,101691.0,-3.0490002632141113,0,0
2.558425900002476,0.372772216796875,-0.4515380859375,0.311553955078125,-0.74835205078125,0.06103515625,-0.30517578125,-1.0986328125,0.4384765625,-0.8016357421875,0.3951416015625,-295.0,150.0,-149.0,101691.0,-3.0490002632141113,0,0
2.558482799999183,0.372772216796875,-0.4515380859375,0.311553955078125,-0.74835205078125,0.06103515625,-0.18310546875,-1.220703125,0.44140625,-0.7994384765625,0.39306640625,-295.0,150.0,-149.0,101691.0,-3.0490002632141113,0,0
2.558538500001305,0.37274169921875,-0.4515380859375,0.311553955078125,-0.74835205078125,0.732421875,-0.06103515625,-0.91552734375,0.44677734375,-0.8006591796875,0.3935546875,-295.0,150.0,-149.0,101691.0,-3.0490002632141113,0,0
2.5585931000096025,0.37274169921875,-0.451568603515625,0.3115234375,-0.74835205078125,0.3662109375,-0.18310546875,-0.67138671875,0.4471435546875,-0.7999267578125,0.3929443359375,-295.0,150.0,-149.0,101691.0,-3.0490002632141113,0,0
2.5586469000118086,0.37274169921875,-0.451568603515625,0.3115234375,-0.74835205078125,0.30517578125,0.244140625,0.0,0.447021484375,-0.7994384765625,0.3983154296875,-295.0,150.0,-149.0,101691.0,-3.0490002632141113,0,0
2.5593966000014916,0.37274169921875,-0.451568603515625,0.3115234375,-0.74835205078125,-0.244140625,-0.06103515625,0.42724609375,0.445556640625,-0.80126953125,0.39697265625,-295.0,150.0,-149.0,101691.0,-3.0490002632141113,0,0
2.5594561000034446,0.372711181640625,-0.451568603515625,0.3115234375,-0.74835205078125,-0.244140625,-0.06103515625,0.8544921875,0.4449462890625,-0.7996826171875,0.3958740234375,-295.0,150.0,-149.0,101691.0,-3.0490002632141113,0,0
2.5595098000048893,0.372711181640625,-0.451568603515625,0.3115234375,-0.74835205078125,-0.244140625,-0.06103515625,0.8544921875,0.4449462890625,-0.7996826171875,0.3958740234375,-295.0,150.0,-149.0,101691.0,-3.0490002632141113,0,0
2.559563500006334,0.37261962890625,-0.4515380859375,0.31158447265625,-0.7484130859375,-0.244140625,0.6103515625,0.54931640625,0.4447021484375,-0.80322265625,0.3955078125,-295.0,150.0,-150.0,101691.0,-3.0490002632141113,0,0
2.5596160999994026,0.37261962890625,-0.451568603515625,0.31158447265625,-0.7484130859375,0.1220703125,0.30517578125,0.6103515625,0.4439697265625,-0.8045654296875,0.3929443359375,-295.0,150.0,-150.0,101691.0,-3.0490002632141113,0,0
2.559669300011592,0.37261962890625,-0.451568603515625,0.311614990234375,-0.7484130859375,0.1220703125,0.06103515625,0.06103515625,0.4393310546875,-0.80029296875,0.393798828125,-295.0,150.0,-150.0,101691.0,-3.0490002632141113,0,0
2.6213440999999875,0.37261962890625,-0.451568603515625,0.311614990234375,-0.748382568359375,0.3662109375,0.0,-0.3662109375,0.444091796875,-0.8046875,0.400390625,-295.0,150.0,-150.0,101691.0,-3.0490002632141113,0,0
2.621450899998308,0.37261962890625,-0.451568603515625,0.311614990234375,-0.748382568359375,0.06103515625,-0.18310546875,-0.732421875,0.4449462890625,-0.803466796875,0.3939208984375,-295.0,150.0,-150.0,101691.0,-3.0490002632141113,0,0
2.6215056000073673,0.37261962890625,-0.451568603515625,0.311614990234375,-0.748382568359375,0.30517578125,-0.1220703125,-0.54931640625,0.445556640625,-0.8050537109375,0.3973388671875,-295.0,150.0,-150.0,101691.0,-3.0490002632141113,0,0
2.621558900005766,0.37261962890625,-0.45159912109375,0.311614990234375,-0.748382568359375,0.0,0.1220703125,-0.18310546875,0.4471435546875,-0.8037109375,0.3975830078125,-295.0,150.0,-150.0,101691.0,-3.0490002632141113,0,0
2.621609800000442,0.37261962890625,-0.45159912109375,0.311614990234375,-0.748382568359375,0.0,0.1220703125,-0.18310546875,0.4471435546875,-0.8037109375,0.3975830078125,-295.0,150.0,-150.0,101691.0,-3.0490002632141113,0,0
2.6239296999992803,0.372589111328125,-0.45159912109375,0.311614990234375,-0.748382568359375,0.0,-0.06103515625,0.06103515625,0.4425048828125,-0.8037109375,0.3927001953125,-295.0,150.0,-150.0,101692.0,-3.0510001182556152,0,0
2.623985800004448,0.372589111328125,-0.45159912109375,0.311614990234375,-0.748382568359375,0.30517578125,0.30517578125,0.18310546875,0.4439697265625,-0.8057861328125,0.39501953125,-295.0,150.0,-150.0,101692.0,-3.0510001182556152,0,0
2.6249353000021074,0.372589111328125,-0.45159912109375,0.311614990234375,-0.748382568359375,0.0,-0.06103515625,0.30517578125,0.440185546875,-0.798095703125,0.3975830078125,-295.0,150.0,-150.0,101692.0,-3.0510001182556152,0,0
2.624995400008629,0.372589111328125,-0.45159912109375,0.311614990234375,-0.748382568359375,-0.1220703125,0.18310546875,-0.1220703125,0.4385986328125,-0.800048828125,0.3946533203125,-295.0,150.0,-150.0,101692.0,-3.0510001182556152,0,0
2.6250971000117715,0.372589111328125,-0.45159912109375,0.3116455078125,-0.74835205078125,0.18310546875,-0.30517578125,-0.48828125,0.441162109375,-0.80126953125,0.3912353515625,-295.0,150.0,-150.0,101692.0,-3.0510001182556152,0,0
2.625229600002058,0.372589111328125,-0.45159912109375,0.3116455078125,-0.74835205078125,0.244140625,-0.1220703125,-0.30517578125,0.442138671875,-0.8013916015625,0.3953857421875,-295.0,150.0,-150.0,101692.0,-3.0510001182556152,0,0
2.6253276000061305,0.372589111328125,-0.45159912109375,0.3116455078125,-0.74835205078125,0.244140625,0.18310546875,0.0,0.443603515625,-0.8016357421875,0.3944091796875,-295.0,150.0,-150.0,101692.0,-3.0510001182556152,0,0
2.681468599999789,0.372589111328125,-0.451629638671875,0.3116455078125,-0.74835205078125,0.244140625,0.1220703125,0.0,0.443115234375,-0.80322265625,0.3970947265625,-295.0,150.0,-150.0,101692.0,-3.0510001182556152,0,0
2.6815386000089347,0.37249755859375,-0.45159912109375,0.31170654296875,-0.7484130859375,0.0,0.0,0.0,0.442138671875,-0.802490234375,0.3975830078125,-295.0,149.0,-150.0,101692.0,-3.0510001182556152,0,0
2.6815956000064034,0.37249755859375,-0.45159912109375,0.31170654296875,-0.748382568359375,0.1220703125,-0.18310546875,0.06103515625,0.4462890625,-0.8033447265625,0.3951416015625,-295.0,149.0,-150.0,101692.0,-3.0510001182556152,0,0
2.681649700010894,0.37249755859375,-0.45159912109375,0.31170654296875,-0.748382568359375,0.30517578125,-0.244140625,-0.1220703125,0.44482421875,-0.8037109375,0.39599609375,-295.0,149.0,-150.0,101692.0,-3.0510001182556152,0,0
2.6817203000100562,0.37249755859375,-0.45159912109375,0.311737060546875,-0.748382568359375,-0.1220703125,0.0,0.18310546875,0.443603515625,-0.803466796875,0.3946533203125,-295.0,149.0,-150.0,101692.0,-3.0510001182556152,0,0
2.681967900003656,0.37249755859375,-0.45159912109375,0.311737060546875,-0.748382568359375,0.1220703125,0.06103515625,0.18310546875,0.4427490234375,-0.804931640625,0.3951416015625,-295.0,149.0,-150.0,101692.0,-3.0510001182556152,0,0
2.682041600011871,0.37249755859375,-0.45159912109375,0.311737060546875,-0.748382568359375,0.244140625,-0.06103515625,0.30517578125,0.44580078125,-0.803955078125,0.3975830078125,-295.0,149.0,-150.0,101692.0,-3.0510001182556152,0,0
2.6821033000014722,0.37249755859375,-0.45159912109375,0.311737060546875,-0.748382568359375,-0.18310546875,0.0,0.06103515625,0.4451904296875,-0.8031005859375,0.3966064453125,-295.0,149.0,-150.0,101692.0,-3.0510001182556152,0,0
2.6821613000065554,0.37249755859375,-0.451629638671875,0.311737060546875,-0.74835205078125,0.06103515625,0.06103515625,0.0,0.445068359375,-0.8050537109375,0.3953857421875,-295.0,149.0,-150.0,101692.0,-3.0510001182556152,0,0
2.682218500005547,0.37249755859375,-0.451629638671875,0.311737060546875,-0.74835205078125,0.06103515625,0.06103515625,0.0,0.445068359375,-0.8050537109375,0.3953857421875,-295.0,149.0,-150.0,101692.0,-3.0510001182556152,0,0
2.682272300007753,0.37249755859375,-0.451629638671875,0.311737060546875,-0.74835205078125,0.06103515625,-0.30517578125,-0.6103515625,0.4415283203125,-0.8001708984375,0.39501953125,-295.0,149.0,-150.0,101691.0,-3.0490002632141113,0,0
2.7490492000069935,0.37249755859375,-0.451629638671875,0.311737060546875,-0.74835205078125,0.30517578125,-0.18310546875,-0.42724609375,0.44189453125,-0.796875,0.3948974609375,-295.0,149.0,-150.0,101691.0,-3.0490002632141113,0,0
2.749110100005055,0.372467041015625,-0.451629638671875,0.311737060546875,-0.74835205078125,-0.06103515625,-0.1220703125,-0.6103515625,0.4439697265625,-0.79736328125,0.3944091796875,-295.0,149.0,-150.0,101691.0,-3.0490002632141113,0,0
2.7491671000025235,0.372467041015625,-0.451629638671875,0.311737060546875,-0.74835205078125,0.42724609375,0.1220703125,0.244140625,0.44775390625,-0.805908203125,0.397216796875,-295.0,149.0,-150.0,101691.0,-3.0490002632141113,0,0
2.749222500002361,0.372467041015625,-0.45166015625,0.311737060546875,-0.74835205078125,-0.244140625,-0.06103515625,0.6103515625,0.44580078125,-0.806396484375,0.401123046875,-295.0,149.0,-150.0,101691.0,-3.0490002632141113,0,0
2.749277599999914,0.372467041015625,-0.451629638671875,0.311737060546875,-0.74835205078125,-0.48828125,0.1220703125,0.91552734375,0.4468994140625,-0.8065185546875,0.3984375,-295.0,149.0,-150.0,101691.0,-3.0490002632141113,0,0
2.7493352000019513,0.372467041015625,-0.45166015625,0.311767578125,-0.74835205078125,-0.18310546875,0.54931640625,0.8544921875,0.4437255859375,-0.8076171875,0.398193359375,-295.0,149.0,-150.0,101691.0,-3.0490002632141113,0,0
2.7529966000001878,0.372467041015625,-0.45166015625,0.311767578125,-0.74835205078125,-0.06103515625,0.06103515625,0.0,0.4417724609375,-0.804931640625,0.396240234375,-295.0,149.0,-150.0,101691.0,-3.0490002632141113,0,0
2.7530589000089094,0.372467041015625,-0.45166015625,0.311767578125,-0.74835205078125,-0.06103515625,0.06103515625,0.0,0.4417724609375,-0.804931640625,0.396240234375,-295.0,149.0,-150.0,101691.0,-3.0490002632141113,0,0
2.7531134000018938,0.372467041015625,-0.45166015625,0.311767578125,-0.74835205078125,0.1220703125,-0.18310546875,-0.1220703125,0.4434814453125,-0.8033447265625,0.3974609375,-295.0,149.0,-150.0,101691.0,-3.0490002632141113,0,0
2.75316640001256,0.372467041015625,-0.45166015625,0.311767578125,-0.74835205078125,-0.244140625,0.0,-0.3662109375,0.44287109375,-0.802978515625,0.39404296875,-295.0,149.0,-150.0,101691.0,-3.0490002632141113,0,0
2.7532189000048675,0.372467041015625,-0.45166015625,0.311767578125,-0.74835205078125,0.244140625,0.18310546875,-0.18310546875,0.4442138671875,-0.801513671875,0.3958740234375,-296.0,150.0,-150.0,101691.0,-3.0490002632141113,0,0
2.753272800007835,0.372467041015625,-0.45166015625,0.311767578125,-0.748321533203125,0.244140625,0.18310546875,-0.18310546875,0.4442138671875,-0.801513671875,0.3958740234375,-296.0,150.0,-150.0,101691.0,-3.0490002632141113,0,0
2.7533234000002267,0.372467041015625,-0.45166015625,0.311767578125,-0.748321533203125,0.0,-0.18310546875,-0.67138671875,0.4405517578125,-0.798583984375,0.393798828125,-296.0,150.0,-150.0,101691.0,-3.0490002632141113,0,0
2.812827000001562,0.3724365234375,-0.451690673828125,0.311767578125,-0.748321533203125,0.06103515625,-0.06103515625,0.1220703125,0.4495849609375,-0.802001953125,0.3966064453125,-296.0,150.0,-150.0,101691.0,-3.0490002632141113,0,0
2.8128876000118908,0.3724365234375,-0.45172119140625,0.311767578125,-0.748321533203125,0.1220703125,0.1220703125,0.18310546875,0.447509765625,-0.802001953125,0.396484375,-296.0,150.0,-150.0,101691.0,-3.0490002632141113,0,0
2.812941900003352,0.3724365234375,-0.45172119140625,0.311767578125,-0.748321533203125,0.1220703125,0.1220703125,0.18310546875,0.447509765625,-0.802001953125,0.396484375,-296.0,150.0,-150.0,101691.0,-3.0490002632141113,0,0
2.8129953000025125,0.3724365234375,-0.45172119140625,0.311767578125,-0.748321533203125,-0.06103515625,0.30517578125,0.67138671875,0.443359375,-0.8031005859375,0.3963623046875,-296.0,150.0,-150.0,101691.0,-3.0490002632141113,0,0
2.813743600010639,0.3724365234375,-0.45172119140625,0.311767578125,-0.748321533203125,-0.18310546875,0.06103515625,0.30517578125,0.4453125,-0.8013916015625,0.3963623046875,-296.0,150.0,-150.0,101691.0,-3.0490002632141113,0,0
2.8137966000067536,0.3724365234375,-0.45172119140625,0.311767578125,-0.748321533203125,-0.18310546875,0.06103515625,0.30517578125,0.4453125,-0.8013916015625,0.3963623046875,-296.0,150.0,-150.0,101692.0,-3.052000045776367,0,0
2.8138484000082826,0.3724365234375,-0.45172119140625,0.311767578125,-0.748321533203125,-0.30517578125,0.06103515625,0.54931640625,0.4410400390625,-0.802001953125,0.3978271484375,-296.0,150.0,-150.0,101692.0,-3.052000045776367,0,0
2.8148381000064546,0.3724365234375,-0.45172119140625,0.311798095703125,-0.748321533203125,0.1220703125,0.06103515625,0.18310546875,0.4412841796875,-0.8048095703125,0.3983154296875,-296.0,150.0,-150.0,101692.0,-3.052000045776367,0,0
2.8149128000077326,0.3724365234375,-0.45172119140625,0.311798095703125,-0.748321533203125,-0.06103515625,0.06103515625,-0.06103515625,0.443115234375,-0.8040771484375,0.3983154296875,-296.0,150.0,-150.0,101692.0,-3.052000045776367,0,0
2.8149686000106158,0.3724365234375,-0.45172119140625,0.311798095703125,-0.748321533203125,-0.244140625,-0.1220703125,-0.30517578125,0.4385986328125,-0.8045654296875,0.3974609375,-296.0,150.0,-150.0,101692.0,-3.052000045776367,0,0
2.8150224999990314,0.3724365234375,-0.45172119140625,0.311767578125,-0.748321533203125,0.1220703125,-0.244140625,-1.03759765625,0.4410400390625,-0.7989501953125,0.3973388671875,-296.0,150.0,-150.0,101692.0,-3.052000045776367,0,0
2.875801300004241,0.372406005859375,-0.451751708984375,0.311767578125,-0.748321533203125,0.1220703125,-0.48828125,-1.0986328125,0.4427490234375,-0.79736328125,0.393310546875,-296.0,150.0,-150.0,101692.0,-3.052000045776367,0,0
2.8758633000106784,0.37237548828125,-0.4517822265625,0.311737060546875,-0.748321533203125,0.244140625,0.06103515625,-0.6103515625,0.4442138671875,-0.798828125,0.3946533203125,-296.0,150.0,-150.0,101692.0,-3.052000045776367,0,0
2.8759180000051856,0.37237548828125,-0.4517822265625,0.311737060546875,-0.748321533203125,0.0,-0.06103515625,0.3662109375,0.4481201171875,-0.80322265625,0.3974609375,-295.0,150.0,-150.0,101692.0,-3.052000045776367,0,0
2.875974300011876,0.37237548828125,-0.4517822265625,0.311737060546875,-0.748321533203125,0.06103515625,0.244140625,0.79345703125,0.4495849609375,-0.806640625,0.3980712890625,-295.0,150.0,-150.0,101692.0,-3.052000045776367,0,0
2.876032000000123,0.372406005859375,-0.4517822265625,0.311767578125,-0.748291015625,-0.18310546875,0.244140625,1.0986328125,0.446533203125,-0.8096923828125,0.3984375,-295.0,150.0,-150.0,101692.0,-3.052000045776367,0,0
