Time stamp(sec),quaternion_0,quaternion_1,quaternion_2,quaternion_3,roll_angular_rate,pitch_angular_rate,yaw_angular_rate,acc_X,acc_Y,acc_Z,mag_X,mag_Y,mag_Z,pressure,altitude
191.330995,-0.025162244215607643,-0.01440060418099165,-0.016677863895893097,0.999434769153595,-0.244140625,0.0,0.0,-0.0518798828125,-0.0955810546875,-0.9718017578125,-264.0,-240.0,473.0,102078.0,-6.25100040435791,0,0
191.33802,-0.025162244215607643,-0.01440060418099165,-0.016677863895893097,0.999434769153595,-0.06103515625,0.0,0.0,-0.05029296875,-0.09521484375,-0.9705810546875,-264.0,-240.0,473.0,102078.0,-6.25100040435791,0,0
191.345004,-0.025162244215607643,-0.01440060418099165,-0.016677863895893097,0.999434769153595,-0.06103515625,-0.1220703125,0.0,-0.0484619140625,-0.0958251953125,-0.970947265625,-264.0,-240.0,473.0,102078.0,-6.25100040435791,0,0
191.352019,-0.025162572041153908,-0.01438820455223322,-0.01665000058710575,0.9994337558746338,-0.1220703125,0.06103515625,0.06103515625,-0.05029296875,-0.0947265625,-0.97021484375,-264.0,-240.0,473.0,102078.0,-6.25100040435791,0,0
191.358994,-0.025162244215607643,-0.01440060418099165,-0.016677863895893097,0.999434769153595,0.0,0.06103515625,-0.06103515625,-0.05126953125,-0.0958251953125,-0.9713134765625,-264.0,-240.0,473.0,102078.0,-6.25100040435791,0,0
191.365025,-0.025162244215607643,-0.01440060418099165,-0.016677863895893097,0.999434769153595,0.0,0.06103515625,-0.06103515625,-0.05126953125,-0.0958251953125,-0.9713134765625,-264.0,-240.0,473.0,102078.0,-6.25100040435791,0,0
191.372015,-0.025162244215607643,-0.01440060418099165,-0.016677863895893097,0.999434769153595,-0.06103515625,0.18310546875,-0.1220703125,-0.0516357421875,-0.0947265625,-0.9698486328125,-264.0,-240.0,473.0,102078.0,-6.25100040435791,0,0
191.378995,-0.025162244215607643,-0.01440060418099165,-0.016677863895893097,0.999434769153595,-0.18310546875,0.0,-0.1220703125,-0.050537109375,-0.094482421875,-0.968994140625,-264.0,-240.0,473.0,102078.0,-6.25100040435791,0,0
191.385994,-0.025162244215607643,-0.01440060418099165,-0.016677863895893097,0.999434769153595,-0.06103515625,0.0,-0.1220703125,-0.05126953125,-0.0950927734375,-0.970703125,-264.0,-240.0,473.0,102078.0,-6.25100040435791,0,0
191.393019,-0.025162244215607643,-0.01440060418099165,-0.016677863895893097,0.999434769153595,0.0,0.0,0.1220703125,-0.049560546875,-0.0970458984375,-0.97021484375,-264.0,-240.0,473.0,102078.0,-6.25100040435791,0,0
191.400003,-0.025162244215607643,-0.01440060418099165,-0.016677863895893097,0.999434769153595,0.1220703125,0.18310546875,-0.06103515625,-0.0517578125,-0.094970703125,-0.97119140625,-264.0,-240.0,473.0,102078.0,-6.25100040435791,0,0
191.407018,-0.025162244215607643,-0.01440060418099165,-0.016677863895893097,0.999434769153595,0.0,0.1220703125,-0.18310546875,-0.05126953125,-0.0953369140625,-0.9722900390625,-264.0,-240.0,473.0,102078.0,-6.25100040435791,0,0
191.413996,-0.025162244215607643,-0.01440060418099165,-0.016677863895893097,0.999434769153595,0.1220703125,0.06103515625,-0.06103515625,-0.0504150390625,-0.0927734375,-0.9715576171875,-264.0,-240.0,473.0,102078.0,-6.25100040435791,0,0
191.420996,-0.025162244215607643,-0.01440060418099165,-0.016677863895893097,0.999434769153595,-0.244140625,0.1220703125,0.0,-0.051025390625,-0.093505859375,-0.9698486328125,-264.0,-240.0,473.0,102078.0,-6.25100040435791,0,0
191.428021,-0.025162244215607643,-0.01440060418099165,-0.016677863895893097,0.999434769153595,-0.06103515625,0.244140625,-0.244140625,-0.05078125,-0.0960693359375,-0.9696044921875,-264.0,-240.0,473.0,102078.0,-6.252000331878662,0,0
191.435004,-0.025162244215607643,-0.01440060418099165,-0.016677863895893097,0.999434769153595,-0.244140625,-0.30517578125,-0.18310546875,-0.0498046875,-0.0946044921875,-0.9705810546875,-264.0,-240.0,473.0,102078.0,-6.252000331878662,0,0
191.442019,-0.025162572041153908,-0.01438820455223322,-0.01665000058710575,0.9994337558746338,0.0,0.244140625,-0.244140625,-0.051025390625,-0.0955810546875,-0.970947265625,-264.0,-240.0,473.0,102078.0,-6.252000331878662,0,0
191.448998,-0.025162572041153908,-0.01438820455223322,-0.01665000058710575,0.9994337558746338,0.1220703125,0.0,0.0,-0.0513916015625,-0.095947265625,-0.9696044921875,-264.0,-240.0,473.0,102078.0,-6.252000331878662,0,0
191.455998,-0.025162572041153908,-0.01438820455223322,-0.01665000058710575,0.9994337558746338,0.0,-0.06103515625,-0.244140625,-0.052001953125,-0.0943603515625,-0.971435546875,-264.0,-240.0,473.0,102078.0,-6.252000331878662,0,0
191.462032,-0.025162572041153908,-0.01438820455223322,-0.01665000058710575,0.9994337558746338,0.0,-0.06103515625,-0.244140625,-0.052001953125,-0.0943603515625,-0.971435546875,-264.0,-240.0,473.0,102078.0,-6.252000331878662,0,0
191.468995,-0.025162572041153908,-0.01438820455223322,-0.01665000058710575,0.9994337558746338,-0.1220703125,0.1220703125,-0.244140625,-0.0496826171875,-0.0963134765625,-0.97021484375,-264.0,-240.0,473.0,102078.0,-6.252000331878662,0,0
191.475998,-0.025162572041153908,-0.01438820455223322,-0.01665000058710575,0.9994337558746338,0.1220703125,-0.06103515625,-0.06103515625,-0.049560546875,-0.09619140625,-0.970947265625,-264.0,-240.0,473.0,102078.0,-6.252000331878662,0,0
191.483024,-0.025162572041153908,-0.01438820455223322,-0.01665000058710575,0.9994337558746338,-0.06103515625,0.06103515625,-0.30517578125,-0.050048828125,-0.0955810546875,-0.97021484375,-264.0,-240.0,473.0,102078.0,-6.252000331878662,0,0
191.503996,-0.025162572041153908,-0.01438820455223322,-0.01665000058710575,0.9994337558746338,-0.06103515625,0.0,-0.1220703125,-0.049560546875,-0.0933837890625,-0.9700927734375,-264.0,-240.0,473.0,102078.0,-6.252000331878662,0,0
191.510996,-0.025162572041153908,-0.01438820455223322,-0.01665000058710575,0.9994337558746338,-0.30517578125,-0.06103515625,-0.18310546875,-0.0517578125,-0.0955810546875,-0.9716796875,-264.0,-240.0,473.0,102078.0,-6.252000331878662,0,0
191.51802,-0.025163615122437477,-0.014360340312123299,-0.016662398353219032,0.9994340538978577,-0.1220703125,-0.1220703125,0.0,-0.05224609375,-0.0946044921875,-0.9713134765625,-264.0,-240.0,473.0,102078.0,-6.252000331878662,0,0
191.525004,-0.025163615122437477,-0.014360340312123299,-0.016662398353219032,0.9994340538978577,-0.18310546875,0.0,0.0,-0.053466796875,-0.095947265625,-0.97021484375,-264.0,-240.0,473.0,102078.0,-6.252000331878662,0,0
191.532018,-0.025163615122437477,-0.014360340312123299,-0.016662398353219032,0.9994340538978577,-0.1220703125,0.06103515625,-0.1220703125,-0.0499267578125,-0.09423828125,-0.9710693359375,-264.0,-240.0,473.0,102078.0,-6.25100040435791,0,0
191.538995,-0.025162572041153908,-0.01438820455223322,-0.01665000058710575,0.9994337558746338,-0.244140625,0.30517578125,-0.1220703125,-0.0499267578125,-0.0965576171875,-0.9686279296875,-264.0,-240.0,473.0,102078.0,-6.25100040435791,0,0
191.545998,-0.025162572041153908,-0.01438820455223322,-0.01665000058710575,0.9994337558746338,0.06103515625,0.1220703125,-0.06103515625,-0.050048828125,-0.097412109375,-0.97021484375,-264.0,-240.0,473.0,102078.0,-6.25100040435791,0,0
191.55203,-0.025162572041153908,-0.01438820455223322,-0.01665000058710575,0.9994337558746338,0.06103515625,0.1220703125,-0.06103515625,-0.050048828125,-0.097412109375,-0.97021484375,-264.0,-240.0,473.0,102078.0,-6.25100040435791,0,0
191.558994,-0.025162572041153908,-0.01438820455223322,-0.01665000058710575,0.9994337558746338,-0.244140625,0.0,-0.30517578125,-0.0496826171875,-0.0950927734375,-0.970458984375,-264.0,-240.0,473.0,102078.0,-6.25100040435791,0,0
191.565994,-0.025162572041153908,-0.01438820455223322,-0.01665000058710575,0.9994337558746338,-0.30517578125,0.0,-0.42724609375,-0.05078125,-0.0943603515625,-0.9698486328125,-264.0,-240.0,473.0,102078.0,-6.25100040435791,0,0
191.573019,-0.025162572041153908,-0.01438820455223322,-0.01665000058710575,0.9994337558746338,0.06103515625,-0.06103515625,-0.1220703125,-0.05029296875,-0.0948486328125,-0.9683837890625,-264.0,-240.0,473.0,102078.0,-6.25100040435791,0,0
191.593996,-0.02516152895987034,-0.014416067861020565,-0.01663760095834732,0.9994333982467651,-0.06103515625,0.244140625,-0.3662109375,-0.050048828125,-0.0941162109375,-0.972412109375,-264.0,-240.0,473.0,102078.0,-6.25100040435791,0,0
191.600996,-0.02516152895987034,-0.014416067861020565,-0.01663760095834732,0.9994333982467651,-0.18310546875,-0.06103515625,-0.06103515625,-0.0513916015625,-0.093017578125,-0.9696044921875,-264.0,-240.0,473.0,102078.0,-6.25100040435791,0,0
191.60802,-0.02516152895987034,-0.014416067861020565,-0.01663760095834732,0.9994333982467651,-0.3662109375,0.1220703125,-0.18310546875,-0.0504150390625,-0.094482421875,-0.9715576171875,-264.0,-240.0,473.0,102078.0,-6.25100040435791,0,0
191.615005,-0.02516152895987034,-0.014416067861020565,-0.01663760095834732,0.9994333982467651,-0.06103515625,0.18310546875,-0.18310546875,-0.05126953125,-0.0955810546875,-0.970703125,-264.0,-240.0,473.0,102078.0,-6.25100040435791,0,0
191.622018,-0.02516152895987034,-0.014416067861020565,-0.01663760095834732,0.9994333982467651,-0.1220703125,0.06103515625,-0.30517578125,-0.0511474609375,-0.0947265625,-0.9705810546875,-264.0,-240.0,473.0,102078.0,-6.25100040435791,0,0
191.628994,-0.025162572041153908,-0.01438820455223322,-0.01665000058710575,0.9994337558746338,0.06103515625,0.06103515625,0.18310546875,-0.0518798828125,-0.0941162109375,-0.9710693359375,-264.0,-240.0,473.0,102078.0,-6.253000259399414,0,0
191.635997,-0.025162572041153908,-0.01438820455223322,-0.01665000058710575,0.9994337558746338,-0.18310546875,0.0,-0.244140625,-0.0509033203125,-0.09375,-0.9696044921875,-265.0,-240.0,474.0,102078.0,-6.253000259399414,0,0
191.643019,-0.02516292966902256,-0.014375805854797363,-0.016622137278318405,0.9994326829910278,-0.244140625,-0.1220703125,0.0,-0.05126953125,-0.093994140625,-0.971435546875,-265.0,-240.0,474.0,102078.0,-6.253000259399414,0,0
191.64905,-0.02516292966902256,-0.014375805854797363,-0.016622137278318405,0.9994326829910278,-0.244140625,-0.1220703125,0.0,-0.05126953125,-0.093994140625,-0.971435546875,-265.0,-240.0,474.0,102078.0,-6.253000259399414,0,0
191.655994,-0.025162572041153908,-0.01438820455223322,-0.01665000058710575,0.9994337558746338,-0.18310546875,0.0,0.06103515625,-0.0496826171875,-0.0948486328125,-0.9700927734375,-265.0,-240.0,474.0,102078.0,-6.253000259399414,0,0
191.66302,-0.025162572041153908,-0.01438820455223322,-0.01665000058710575,0.9994337558746338,0.18310546875,0.0,0.0,-0.050048828125,-0.0950927734375,-0.969482421875,-265.0,-240.0,474.0,102078.0,-6.253000259399414,0,0
191.670002,-0.025162572041153908,-0.01438820455223322,-0.01665000058710575,0.9994337558746338,0.1220703125,0.42724609375,-0.18310546875,-0.0506591796875,-0.0958251953125,-0.9698486328125,-265.0,-240.0,474.0,102078.0,-6.253000259399414,0,0
191.677018,-0.025162572041153908,-0.01438820455223322,-0.01665000058710575,0.9994337558746338,0.06103515625,0.18310546875,-0.244140625,-0.052734375,-0.094482421875,-0.9691162109375,-265.0,-240.0,474.0,102078.0,-6.253000259399414,0,0
191.683996,-0.025162572041153908,-0.01438820455223322,-0.01665000058710575,0.9994337558746338,-0.244140625,-0.06103515625,-0.1220703125,-0.05126953125,-0.0938720703125,-0.9705810546875,-265.0,-240.0,474.0,102078.0,-6.253000259399414,0,0
191.690995,-0.025162572041153908,-0.01438820455223322,-0.01665000058710575,0.9994337558746338,-0.1220703125,0.30517578125,0.06103515625,-0.05126953125,-0.0955810546875,-0.971435546875,-265.0,-240.0,474.0,102078.0,-6.253000259399414,0,0
191.69802,-0.025162572041153908,-0.01438820455223322,-0.01665000058710575,0.9994337558746338,-0.18310546875,-0.06103515625,0.1220703125,-0.0489501953125,-0.0958251953125,-0.9700927734375,-265.0,-240.0,474.0,102078.0,-6.253000259399414,0,0
191.705004,-0.025162572041153908,-0.01438820455223322,-0.01665000058710575,0.9994337558746338,-0.30517578125,0.1220703125,0.244140625,-0.0504150390625,-0.0963134765625,-0.970703125,-265.0,-240.0,474.0,102078.0,-6.253000259399414,0,0
191.712019,-0.02516152895987034,-0.014416067861020565,-0.01663760095834732,0.9994333982467651,0.18310546875,0.244140625,-0.06103515625,-0.0496826171875,-0.09521484375,-0.97216796875,-265.0,-240.0,474.0,102078.0,-6.253000259399414,0,0
191.718999,-0.025162572041153908,-0.01438820455223322,-0.01665000058710575,0.9994337558746338,-0.1220703125,-0.06103515625,-0.06103515625,-0.0513916015625,-0.093505859375,-0.971435546875,-265.0,-240.0,474.0,102078.0,-6.253000259399414,0,0
191.725998,-0.02516152895987034,-0.014416067861020565,-0.01663760095834732,0.9994333982467651,-0.1220703125,0.18310546875,-0.06103515625,-0.049072265625,-0.095947265625,-0.97119140625,-265.0,-240.0,474.0,102078.0,-6.253000259399414,0,0
191.733019,-0.02516152895987034,-0.014416067861020565,-0.01663760095834732,0.9994333982467651,-0.1220703125,0.18310546875,-0.06103515625,-0.049072265625,-0.095947265625,-0.97119140625,-264.0,-240.0,474.0,102078.0,-6.252000331878662,0,0
191.739052,-0.02516152895987034,-0.014416067861020565,-0.01663760095834732,0.9994333982467651,-0.1220703125,0.18310546875,-0.06103515625,-0.049072265625,-0.095947265625,-0.97119140625,-264.0,-240.0,474.0,102078.0,-6.252000331878662,0,0
191.745998,-0.02516152895987034,-0.014416067861020565,-0.01663760095834732,0.9994333982467651,-0.1220703125,0.06103515625,-0.244140625,-0.048828125,-0.0943603515625,-0.970703125,-264.0,-240.0,474.0,102078.0,-6.252000331878662,0,0
191.767018,-0.02516152895987034,-0.014416067861020565,-0.01663760095834732,0.9994333982467651,0.06103515625,-0.06103515625,-0.06103515625,-0.0511474609375,-0.0941162109375,-0.9691162109375,-264.0,-240.0,474.0,102078.0,-6.252000331878662,0,0
191.773997,-0.025162572041153908,-0.01438820455223322,-0.01665000058710575,0.9994337558746338,-0.1220703125,0.0,0.0,-0.052490234375,-0.0938720703125,-0.9727783203125,-264.0,-240.0,474.0,102078.0,-6.252000331878662,0,0
191.780997,-0.025162244215607643,-0.01440060418099165,-0.016677863895893097,0.999434769153595,-0.18310546875,0.18310546875,-0.1220703125,-0.05322265625,-0.093994140625,-0.9710693359375,-264.0,-240.0,474.0,102078.0,-6.252000331878662,0,0
191.78802,-0.025163287296891212,-0.014372739940881729,-0.016690263524651527,0.9994351267814636,-0.1220703125,-0.06103515625,-0.42724609375,-0.053466796875,-0.0933837890625,-0.9703369140625,-264.0,-240.0,474.0,102078.0,-6.252000331878662,0,0
191.795004,-0.025163287296891212,-0.014372739940881729,-0.016690263524651527,0.9994351267814636,-0.18310546875,0.244140625,-0.1220703125,-0.0528564453125,-0.0947265625,-0.96923828125,-264.0,-240.0,474.0,102078.0,-6.252000331878662,0,0
191.802019,-0.025163287296891212,-0.014372739940881729,-0.016690263524651527,0.9994351267814636,0.06103515625,0.18310546875,-0.244140625,-0.05322265625,-0.096923828125,-0.9688720703125,-264.0,-240.0,474.0,102078.0,-6.252000331878662,0,0
191.808998,-0.025164330378174782,-0.014344876632094383,-0.01670266129076481,0.9994354248046875,-0.244140625,0.18310546875,0.0,-0.0518798828125,-0.09326171875,-0.9708251953125,-264.0,-240.0,474.0,102078.0,-6.252000331878662,0,0
191.815998,-0.025164330378174782,-0.014344876632094383,-0.01670266129076481,0.9994354248046875,-0.18310546875,0.1220703125,0.06103515625,-0.051513671875,-0.093505859375,-0.971435546875,-264.0,-240.0,474.0,102078.0,-6.252000331878662,0,0
191.823018,-0.025164330378174782,-0.014344876632094383,-0.01670266129076481,0.9994354248046875,-0.06103515625,0.0,0.06103515625,-0.0531005859375,-0.093017578125,-0.969482421875,-264.0,-240.0,474.0,102078.0,-6.252000331878662,0,0
191.830001,-0.025164330378174782,-0.014344876632094383,-0.01670266129076481,0.9994354248046875,-0.48828125,0.06103515625,-0.18310546875,-0.0511474609375,-0.0931396484375,-0.9698486328125,-264.0,-240.0,474.0,102078.0,-6.25100040435791,0,0
191.836034,-0.025164330378174782,-0.014344876632094383,-0.01670266129076481,0.9994354248046875,-0.48828125,0.06103515625,-0.18310546875,-0.0511474609375,-0.0931396484375,-0.9698486328125,-264.0,-240.0,474.0,102078.0,-6.25100040435791,0,0
191.857019,-0.025164330378174782,-0.014344876632094383,-0.01670266129076481,0.9994354248046875,-0.06103515625,0.244140625,-0.1220703125,-0.0513916015625,-0.0958251953125,-0.972412109375,-264.0,-240.0,474.0,102078.0,-6.25100040435791,0,0
191.863996,-0.025164658203721046,-0.014332477003335953,-0.016674797981977463,0.9994344115257263,-0.1220703125,0.18310546875,0.0,-0.0489501953125,-0.0941162109375,-0.971923828125,-264.0,-240.0,474.0,102078.0,-6.25100040435791,0,0
191.870996,-0.025164658203721046,-0.014332477003335953,-0.016674797981977463,0.9994344115257263,0.06103515625,0.1220703125,-0.06103515625,-0.0482177734375,-0.0921630859375,-0.9718017578125,-264.0,-240.0,474.0,102078.0,-6.25100040435791,0,0
191.87802,-0.025164658203721046,-0.014332477003335953,-0.016674797981977463,0.9994344115257263,-0.244140625,0.244140625,0.0,-0.05078125,-0.09521484375,-0.96875,-264.0,-240.0,474.0,102078.0,-6.25100040435791,0,0
191.885004,-0.025164658203721046,-0.014332477003335953,-0.016674797981977463,0.9994344115257263,0.1220703125,0.06103515625,0.0,-0.0498046875,-0.093017578125,-0.970458984375,-264.0,-240.0,474.0,102078.0,-6.25100040435791,0,0
191.892018,-0.025163615122437477,-0.014360340312123299,-0.016662398353219032,0.9994340538978577,0.1220703125,-0.1220703125,-0.30517578125,-0.0491943359375,-0.094970703125,-0.970703125,-264.0,-240.0,474.0,102078.0,-6.25100040435791,0,0
191.898994,-0.025163615122437477,-0.014360340312123299,-0.016662398353219032,0.9994340538978577,0.0,0.1220703125,0.0,-0.049072265625,-0.09619140625,-0.969482421875,-264.0,-240.0,474.0,102078.0,-6.25100040435791,0,0
191.905998,-0.025163615122437477,-0.014360340312123299,-0.016662398353219032,0.9994340538978577,0.06103515625,0.06103515625,-0.06103515625,-0.0501708984375,-0.0955810546875,-0.970947265625,-264.0,-240.0,474.0,102078.0,-6.25100040435791,0,0
191.913018,-0.025163615122437477,-0.014360340312123299,-0.016662398353219032,0.9994340538978577,0.18310546875,0.06103515625,-0.244140625,-0.05029296875,-0.0946044921875,-0.97021484375,-264.0,-240.0,474.0,102078.0,-6.25100040435791,0,0
191.920002,-0.025163615122437477,-0.014360340312123299,-0.016662398353219032,0.9994340538978577,-0.1220703125,-0.244140625,0.0,-0.0487060546875,-0.0965576171875,-0.9700927734375,-264.0,-240.0,474.0,102078.0,-6.25100040435791,0,0
191.926034,-0.025163615122437477,-0.014360340312123299,-0.016662398353219032,0.9994340538978577,-0.1220703125,-0.244140625,0.0,-0.0487060546875,-0.0965576171875,-0.9700927734375,-264.0,-240.0,474.0,102078.0,-6.25100040435791,0,0
191.933019,-0.025219345465302467,-0.014362426474690437,-0.01666305772960186,0.9994092583656311,-0.1220703125,-0.06103515625,0.06103515625,-0.0523681640625,-0.0953369140625,-0.97119140625,-265.0,-241.0,475.0,102078.0,-6.252000331878662,0,0
191.940002,-0.025219345465302467,-0.014362426474690437,-0.01666305772960186,0.9994092583656311,-0.06103515625,-0.06103515625,-0.1220703125,-0.0540771484375,-0.0948486328125,-0.9693603515625,-265.0,-241.0,475.0,102078.0,-6.252000331878662,0,0
191.947019,-0.0252207163721323,-0.014322164468467236,-0.016647594049572945,0.9994085431098938,-0.30517578125,0.0,-0.244140625,-0.05029296875,-0.0933837890625,-0.9715576171875,-265.0,-241.0,475.0,102078.0,-6.252000331878662,0,0
191.953996,-0.0252207163721323,-0.014322164468467236,-0.016647594049572945,0.9994085431098938,0.0,0.18310546875,0.0,-0.0526123046875,-0.095703125,-0.9718017578125,-265.0,-241.0,475.0,102078.0,-6.252000331878662,0,0
191.960995,-0.025220388546586037,-0.014334563165903091,-0.01667545735836029,0.9994096159934998,-0.1220703125,-0.1220703125,-0.06103515625,-0.052001953125,-0.0946044921875,-0.9716796875,-265.0,-241.0,475.0,102078.0,-6.252000331878662,0,0
191.96802,-0.025220388546586037,-0.014334563165903091,-0.01667545735836029,0.9994096159934998,-0.18310546875,0.06103515625,-0.1220703125,-0.0517578125,-0.0955810546875,-0.9710693359375,-265.0,-241.0,475.0,102078.0,-6.252000331878662,0,0
191.975004,-0.025221431627869606,-0.014306698925793171,-0.01668785698711872,0.9994099140167236,-0.06103515625,0.18310546875,0.0,-0.0511474609375,-0.0926513671875,-0.970703125,-265.0,-241.0,475.0,102078.0,-6.252000331878662,0,0
191.982018,-0.025221431627869606,-0.014306698925793171,-0.01668785698711872,0.9994099140167236,0.1220703125,0.3662109375,-0.244140625,-0.0528564453125,-0.09326171875,-0.9696044921875,-265.0,-241.0,475.0,102078.0,-6.252000331878662,0,0
191.988994,-0.025221431627869606,-0.014306698925793171,-0.01668785698711872,0.9994099140167236,-0.18310546875,0.244140625,-0.06103515625,-0.0511474609375,-0.0946044921875,-0.9722900390625,-265.0,-241.0,475.0,102078.0,-6.252000331878662,0,0
191.995997,-0.025221431627869606,-0.014306698925793171,-0.01668785698711872,0.9994099140167236,0.244140625,0.1220703125,-0.3662109375,-0.051513671875,-0.0958251953125,-0.970458984375,-265.0,-241.0,475.0,102078.0,-6.252000331878662,0,0
192.003018,-0.025221431627869606,-0.014306698925793171,-0.01668785698711872,0.9994099140167236,-0.1220703125,0.0,-0.06103515625,-0.0518798828125,-0.0946044921875,-0.97119140625,-265.0,-241.0,475.0,102078.0,-6.252000331878662,0,0
192.010001,-0.025221431627869606,-0.014306698925793171,-0.01668785698711872,0.9994099140167236,0.0,0.06103515625,0.06103515625,-0.0498046875,-0.0953369140625,-0.9698486328125,-265.0,-241.0,475.0,102078.0,-6.252000331878662,0,0
192.030002,-0.02522175945341587,-0.014294300228357315,-0.016659993678331375,0.9994089007377625,0.0,0.3662109375,-0.18310546875,-0.0498046875,-0.092041015625,-0.970703125,-265.0,-241.0,475.0,102078.0,-6.252000331878662,0,0
192.037018,-0.025288844481110573,-0.014324581250548363,-0.0166472177952528,0.9994116425514221,0.06103515625,-0.06103515625,-0.244140625,-0.04931640625,-0.0946044921875,-0.96875,-265.0,-241.0,475.0,102078.0,-6.252000331878662,0,0
192.043996,-0.025288844481110573,-0.014324581250548363,-0.0166472177952528,0.9994116425514221,-0.06103515625,0.0,0.06103515625,-0.050537109375,-0.0943603515625,-0.97216796875,-265.0,-241.0,475.0,102078.0,-6.252000331878662,0,0
192.050997,-0.025290215387940407,-0.014284318313002586,-0.016631752252578735,0.9994109272956848,-0.18310546875,0.1220703125,0.0,-0.0506591796875,-0.0933837890625,-0.97216796875,-265.0,-241.0,475.0,102078.0,-6.252000331878662,0,0
192.058021,-0.025289887562394142,-0.014296717010438442,-0.01665961742401123,0.999411940574646,-0.1220703125,0.1220703125,-0.18310546875,-0.0517578125,-0.0960693359375,-0.9691162109375,-265.0,-241.0,475.0,102078.0,-6.252000331878662,0,0
192.065004,-0.025289887562394142,-0.014296717010438442,-0.01665961742401123,0.999411940574646,-0.06103515625,-0.06103515625,0.0,-0.0499267578125,-0.096435546875,-0.9718017578125,-265.0,-241.0,475.0,102078.0,-6.252000331878662,0,0
192.072019,-0.025289887562394142,-0.014296717010438442,-0.01665961742401123,0.999411940574646,-0.06103515625,0.06103515625,-0.06103515625,-0.05224609375,-0.095703125,-0.9710693359375,-265.0,-241.0,475.0,102078.0,-6.252000331878662,0,0
192.078998,-0.025289887562394142,-0.014296717010438442,-0.01665961742401123,0.999411940574646,0.1220703125,-0.06103515625,0.0,-0.051513671875,-0.095458984375,-0.9705810546875,-265.0,-241.0,475.0,102078.0,-6.252000331878662,0,0
192.085998,-0.025289887562394142,-0.014296717010438442,-0.01665961742401123,0.999411940574646,0.1220703125,0.06103515625,0.0,-0.052490234375,-0.0938720703125,-0.9691162109375,-265.0,-241.0,475.0,102078.0,-6.252000331878662,0,0
192.093018,-0.025289887562394142,-0.014296717010438442,-0.01665961742401123,0.999411940574646,0.06103515625,0.244140625,-0.06103515625,-0.0504150390625,-0.0946044921875,-0.9703369140625,-265.0,-241.0,475.0,102078.0,-6.252000331878662,0,0
192.100001,-0.025289887562394142,-0.014296717010438442,-0.01665961742401123,0.999411940574646,-0.18310546875,-0.1220703125,-0.1220703125,-0.049560546875,-0.0947265625,-0.9697265625,-265.0,-241.0,475.0,102078.0,-6.252000331878662,0,0
192.120002,-0.02529093064367771,-0.014268853701651096,-0.01667201519012451,0.9994122982025146,0.06103515625,0.0,0.06103515625,-0.05078125,-0.0946044921875,-0.970947265625,-265.0,-241.0,475.0,102078.0,-6.252000331878662,0,0
192.127018,-0.025289887562394142,-0.014296717010438442,-0.01665961742401123,0.999411940574646,-0.06103515625,0.30517578125,-0.06103515625,-0.0513916015625,-0.096923828125,-0.97021484375,-266.0,-241.0,475.0,102078.0,-6.252000331878662,0,0
192.133997,-0.025289887562394142,-0.014296717010438442,-0.01665961742401123,0.999411940574646,-0.244140625,0.42724609375,0.18310546875,-0.0518798828125,-0.0965576171875,-0.971435546875,-266.0,-241.0,475.0,102078.0,-6.252000331878662,0,0
192.140995,-0.025289887562394142,-0.014296717010438442,-0.01665961742401123,0.999411940574646,-0.06103515625,0.30517578125,0.06103515625,-0.0482177734375,-0.095947265625,-0.9698486328125,-266.0,-241.0,475.0,102078.0,-6.252000331878662,0,0
192.14802,-0.025288516655564308,-0.014336979947984219,-0.016675081104040146,0.9994126558303833,0.0,0.18310546875,-0.18310546875,-0.051025390625,-0.096923828125,-0.97119140625,-266.0,-241.0,475.0,102078.0,-6.252000331878662,0,0
192.155004,-0.025288516655564308,-0.014336979947984219,-0.016675081104040146,0.9994126558303833,-0.06103515625,-0.06103515625,-0.06103515625,-0.0506591796875,-0.095703125,-0.9715576171875,-266.0,-241.0,475.0,102078.0,-6.252000331878662,0,0
192.162019,-0.025288516655564308,-0.014336979947984219,-0.016675081104040146,0.9994126558303833,-0.06103515625,-0.06103515625,-0.06103515625,-0.0506591796875,-0.095703125,-0.9715576171875,-266.0,-241.0,475.0,102078.0,-6.252000331878662,0,0
192.168994,-0.025288516655564308,-0.014336979947984219,-0.016675081104040146,0.9994126558303833,-0.244140625,0.18310546875,0.06103515625,-0.0516357421875,-0.094482421875,-0.9718017578125,-266.0,-241.0,475.0,102078.0,-6.252000331878662,0,0
192.175997,-0.025288516655564308,-0.014336979947984219,-0.016675081104040146,0.9994126558303833,0.0,0.1220703125,0.06103515625,-0.0498046875,-0.0955810546875,-0.9735107421875,-266.0,-241.0,475.0,102078.0,-6.252000331878662,0,0
192.183018,-0.025288844481110573,-0.014324581250548363,-0.0166472177952528,0.9994116425514221,0.0,0.1220703125,0.06103515625,-0.0498046875,-0.0955810546875,-0.9735107421875,-266.0,-241.0,475.0,102078.0,-6.252000331878662,0,0
192.190001,-0.025288844481110573,-0.014324581250548363,-0.0166472177952528,0.9994116425514221,0.06103515625,0.0,0.0,-0.048828125,-0.09375,-0.9716796875,-266.0,-241.0,475.0,102078.0,-6.252000331878662,0,0
192.197018,-0.025288844481110573,-0.014324581250548363,-0.0166472177952528,0.9994116425514221,0.0,-0.1220703125,0.0,-0.0482177734375,-0.095947265625,-0.9710693359375,-266.0,-241.0,475.0,102078.0,-6.252000331878662,0,0
192.203996,-0.025287801399827003,-0.014352444559335709,-0.01663481816649437,0.9994112849235535,0.0,0.30517578125,-0.18310546875,-0.0501708984375,-0.09521484375,-0.97119140625,-266.0,-241.0,475.0,102078.0,-6.252000331878662,0,0
192.210029,-0.025287801399827003,-0.014352444559335709,-0.01663481816649437,0.9994112849235535,0.0,0.30517578125,-0.18310546875,-0.0501708984375,-0.09521484375,-0.97119140625,-266.0,-241.0,475.0,102078.0,-6.252000331878662,0,0
192.217019,-0.025287801399827003,-0.014352444559335709,-0.01663481816649437,0.9994112849235535,0.18310546875,0.18310546875,-0.06103515625,-0.0526123046875,-0.0953369140625,-0.9700927734375,-266.0,-241.0,475.0,102078.0,-6.252000331878662,0,0
192.223996,-0.025287801399827003,-0.014352444559335709,-0.01663481816649437,0.9994112849235535,-0.244140625,0.0,-0.1220703125,-0.050537109375,-0.0936279296875,-0.9732666015625,-266.0,-241.0,475.0,102078.0,-6.252000331878662,0,0
192.230995,-0.02516397275030613,-0.014347941614687443,-0.016634535044431686,0.9994330406188965,-0.06103515625,-0.06103515625,-0.18310546875,-0.0504150390625,-0.094482421875,-0.9705810546875,-266.0,-240.0,474.0,102078.0,-6.25100040435791,0,0
192.23802,-0.02516397275030613,-0.014347941614687443,-0.016634535044431686,0.9994330406188965,-0.18310546875,0.06103515625,0.0,-0.0517578125,-0.0965576171875,-0.970703125,-266.0,-240.0,474.0,102078.0,-6.25100040435791,0,0
192.245004,-0.025163615122437477,-0.014360340312123299,-0.016662398353219032,0.9994340538978577,0.0,0.244140625,0.06103515625,-0.053466796875,-0.0953369140625,-0.9700927734375,-266.0,-240.0,474.0,102078.0,-6.25100040435791,0,0
192.252018,-0.025163615122437477,-0.014360340312123299,-0.016662398353219032,0.9994340538978577,0.0,0.18310546875,-0.1220703125,-0.0516357421875,-0.09521484375,-0.9708251953125,-266.0,-240.0,474.0,102078.0,-6.25100040435791,0,0
192.258995,-0.0251650158315897,-0.014320078305900097,-0.016646934673190117,0.9994333386421204,-0.42724609375,0.0,-0.06103515625,-0.0498046875,-0.0941162109375,-0.9698486328125,-266.0,-240.0,474.0,102078.0,-6.25100040435791,0,0
192.265997,-0.0251650158315897,-0.014320078305900097,-0.016646934673190117,0.9994333386421204,-0.1220703125,0.18310546875,-0.1220703125,-0.05078125,-0.0963134765625,-0.9713134765625,-266.0,-240.0,474.0,102078.0,-6.25100040435791,0,0
192.273019,-0.025164658203721046,-0.014332477003335953,-0.016674797981977463,0.9994344115257263,-0.18310546875,0.18310546875,0.18310546875,-0.050537109375,-0.0970458984375,-0.9698486328125,-266.0,-240.0,474.0,102078.0,-6.25100040435791,0,0
192.293995,-0.025164658203721046,-0.014332477003335953,-0.016674797981977463,0.9994344115257263,0.06103515625,0.06103515625,-0.18310546875,-0.05029296875,-0.0953369140625,-0.970703125,-266.0,-240.0,474.0,102078.0,-6.25100040435791,0,0
192.300028,-0.025164658203721046,-0.014332477003335953,-0.016674797981977463,0.9994344115257263,0.06103515625,0.06103515625,-0.18310546875,-0.05029296875,-0.0953369140625,-0.970703125,-266.0,-240.0,474.0,102078.0,-6.25100040435791,0,0
192.307018,-0.025165701285004616,-0.014304612763226032,-0.016687197610735893,0.9994347095489502,-0.30517578125,0.06103515625,-0.3662109375,-0.0498046875,-0.09423828125,-0.96826171875,-266.0,-240.0,474.0,102078.0,-6.25100040435791,0,0
192.313996,-0.025164658203721046,-0.014332477003335953,-0.016674797981977463,0.9994344115257263,-0.18310546875,0.1220703125,-0.06103515625,-0.0494384765625,-0.0947265625,-0.9710693359375,-266.0,-240.0,474.0,102078.0,-6.25100040435791,0,0
192.320996,-0.025165701285004616,-0.014304612763226032,-0.016687197610735893,0.9994347095489502,-0.42724609375,0.1220703125,0.06103515625,-0.051025390625,-0.0941162109375,-0.9686279296875,-266.0,-240.0,474.0,102078.0,-6.25100040435791,0,0
192.328021,-0.025165701285004616,-0.014304612763226032,-0.016687197610735893,0.9994347095489502,-0.1220703125,-0.06103515625,-0.30517578125,-0.0511474609375,-0.094482421875,-0.9696044921875,-266.0,-240.0,474.0,102078.0,-6.25100040435791,0,0
192.335004,-0.025164658203721046,-0.014332477003335953,-0.016674797981977463,0.9994344115257263,-0.732421875,0.1220703125,-0.06103515625,-0.0501708984375,-0.09521484375,-0.9708251953125,-266.0,-241.0,474.0,102078.0,-6.25100040435791,0,0
192.342018,-0.025164658203721046,-0.014332477003335953,-0.016674797981977463,0.9994344115257263,0.06103515625,-0.06103515625,0.18310546875,-0.0491943359375,-0.09423828125,-0.97216796875,-266.0,-241.0,474.0,102078.0,-6.25100040435791,0,0
192.348998,-0.025164658203721046,-0.014332477003335953,-0.016674797981977463,0.9994344115257263,0.18310546875,-0.18310546875,-0.1220703125,-0.0477294921875,-0.093994140625,-0.9716796875,-266.0,-241.0,474.0,102078.0,-6.25100040435791,0,0
192.355998,-0.025164658203721046,-0.014332477003335953,-0.016674797981977463,0.9994344115257263,0.06103515625,0.06103515625,-0.1220703125,-0.0494384765625,-0.0955810546875,-0.9703369140625,-266.0,-241.0,474.0,102078.0,-6.25100040435791,0,0
192.377019,-0.0251650158315897,-0.014320078305900097,-0.016646934673190117,0.9994333386421204,0.1220703125,0.1220703125,0.0,-0.0521240234375,-0.0926513671875,-0.9718017578125,-266.0,-241.0,474.0,102078.0,-6.25100040435791,0,0
192.383996,-0.0251650158315897,-0.014320078305900097,-0.016646934673190117,0.9994333386421204,0.18310546875,-0.244140625,0.18310546875,-0.050537109375,-0.095458984375,-0.968994140625,-266.0,-241.0,474.0,102078.0,-6.25100040435791,0,0
192.390029,-0.0251650158315897,-0.014320078305900097,-0.016646934673190117,0.9994333386421204,0.18310546875,-0.244140625,0.18310546875,-0.050537109375,-0.095458984375,-0.968994140625,-266.0,-241.0,474.0,102078.0,-6.25100040435791,0,0
192.397018,-0.0251650158315897,-0.014320078305900097,-0.016646934673190117,0.9994333386421204,-0.1220703125,-0.06103515625,0.06103515625,-0.0513916015625,-0.094482421875,-0.970947265625,-266.0,-241.0,474.0,102078.0,-6.25100040435791,0,0
192.403997,-0.0251650158315897,-0.014320078305900097,-0.016646934673190117,0.9994333386421204,-0.18310546875,0.18310546875,-0.1220703125,-0.049560546875,-0.094970703125,-0.9708251953125,-266.0,-241.0,474.0,102078.0,-6.25100040435791,0,0
192.410996,-0.0251650158315897,-0.014320078305900097,-0.016646934673190117,0.9994333386421204,-0.18310546875,0.18310546875,0.06103515625,-0.0523681640625,-0.0933837890625,-0.9696044921875,-266.0,-241.0,474.0,102078.0,-6.25100040435791,0,0
192.41802,-0.0251650158315897,-0.014320078305900097,-0.016646934673190117,0.9994333386421204,-0.244140625,0.18310546875,-0.244140625,-0.049560546875,-0.09619140625,-0.9713134765625,-266.0,-241.0,474.0,102078.0,-6.25100040435791,0,0
192.425004,-0.02516397275030613,-0.014347941614687443,-0.016634535044431686,0.9994330406188965,-0.06103515625,0.1220703125,0.06103515625,-0.0494384765625,-0.095947265625,-0.971923828125,-266.0,-241.0,474.0,102078.0,-6.25100040435791,0,0
192.432018,-0.02516397275030613,-0.014347941614687443,-0.016634535044431686,0.9994330406188965,-0.1220703125,0.18310546875,-0.18310546875,-0.0506591796875,-0.09423828125,-0.9708251953125,-266.0,-241.0,475.0,102078.0,-6.25100040435791,0,0
192.438994,-0.0251650158315897,-0.014320078305900097,-0.016646934673190117,0.9994333386421204,-0.30517578125,0.1220703125,-0.06103515625,-0.052001953125,-0.09423828125,-0.9710693359375,-266.0,-241.0,475.0,102078.0,-6.25100040435791,0,0
192.445997,-0.0251650158315897,-0.014320078305900097,-0.016646934673190117,0.9994333386421204,-0.1220703125,0.06103515625,-0.06103515625,-0.0504150390625,-0.0931396484375,-0.9713134765625,-266.0,-241.0,475.0,102078.0,-6.25100040435791,0,0
192.453018,-0.0251650158315897,-0.014320078305900097,-0.016646934673190117,0.9994333386421204,0.1220703125,0.0,0.0,-0.0509033203125,-0.0947265625,-0.9725341796875,-266.0,-241.0,475.0,102078.0,-6.25100040435791,0,0
192.460002,-0.0251650158315897,-0.014320078305900097,-0.016646934673190117,0.9994333386421204,0.18310546875,0.1220703125,0.0,-0.050537109375,-0.094482421875,-0.9737548828125,-266.0,-241.0,475.0,102078.0,-6.25100040435791,0,0
192.467019,-0.025165343657135963,-0.014307679608464241,-0.016619069501757622,0.9994323253631592,0.0,-0.1220703125,0.06103515625,-0.052734375,-0.0928955078125,-0.9691162109375,-266.0,-241.0,475.0,102078.0,-6.25100040435791,0,0
192.473995,-0.0251650158315897,-0.014320078305900097,-0.016646934673190117,0.9994333386421204,-0.18310546875,0.1220703125,-0.1220703125,-0.0501708984375,-0.0958251953125,-0.9718017578125,-266.0,-241.0,475.0,102078.0,-6.25100040435791,0,0
192.480996,-0.0251650158315897,-0.014320078305900097,-0.016646934673190117,0.9994333386421204,-0.244140625,0.0,-0.06103515625,-0.0491943359375,-0.0958251953125,-0.972900390625,-266.0,-241.0,475.0,102078.0,-6.252000331878662,0,0
192.487029,-0.0251650158315897,-0.014320078305900097,-0.016646934673190117,0.9994333386421204,-0.244140625,0.0,-0.06103515625,-0.0491943359375,-0.0958251953125,-0.972900390625,-266.0,-241.0,475.0,102078.0,-6.252000331878662,0,0
192.493996,-0.0251650158315897,-0.014320078305900097,-0.016646934673190117,0.9994333386421204,-0.18310546875,-0.06103515625,-0.06103515625,-0.0499267578125,-0.0946044921875,-0.97314453125,-266.0,-241.0,475.0,102078.0,-6.252000331878662,0,0
192.500996,-0.0251650158315897,-0.014320078305900097,-0.016646934673190117,0.9994333386421204,-0.1220703125,0.1220703125,-0.06103515625,-0.0496826171875,-0.09375,-0.9735107421875,-266.0,-241.0,475.0,102078.0,-6.252000331878662,0,0
192.50802,-0.0251650158315897,-0.014320078305900097,-0.016646934673190117,0.9994333386421204,0.1220703125,0.0,-0.1220703125,-0.0518798828125,-0.096435546875,-0.9710693359375,-266.0,-241.0,475.0,102078.0,-6.252000331878662,0,0
192.515004,-0.0251650158315897,-0.014320078305900097,-0.016646934673190117,0.9994333386421204,0.18310546875,-0.06103515625,-0.1220703125,-0.0499267578125,-0.0950927734375,-0.9710693359375,-266.0,-241.0,475.0,102078.0,-6.252000331878662,0,0
192.522019,-0.0251650158315897,-0.014320078305900097,-0.016646934673190117,0.9994333386421204,-0.1220703125,-0.06103515625,0.30517578125,-0.052978515625,-0.0958251953125,-0.9698486328125,-266.0,-241.0,475.0,102078.0,-6.252000331878662,0,0
192.528994,-0.0251650158315897,-0.014320078305900097,-0.016646934673190117,0.9994333386421204,0.06103515625,0.244140625,-0.3662109375,-0.0511474609375,-0.09423828125,-0.97021484375,-266.0,-239.0,475.0,102078.0,-6.252000331878662,0,0
192.535998,-0.025028755888342857,-0.014315245673060417,-0.0166476983577013,0.9994271993637085,0.1220703125,-0.18310546875,0.06103515625,-0.051513671875,-0.0936279296875,-0.9720458984375,-266.0,-239.0,475.0,102078.0,-6.252000331878662,0,0
192.557019,-0.025028755888342857,-0.014315245673060417,-0.0166476983577013,0.9994271993637085,-0.1220703125,0.0,-0.06103515625,-0.0498046875,-0.09423828125,-0.9688720703125,-266.0,-239.0,475.0,102078.0,-6.252000331878662,0,0
192.563995,-0.025028755888342857,-0.014315245673060417,-0.0166476983577013,0.9994271993637085,-0.244140625,0.1220703125,0.0,-0.0523681640625,-0.09521484375,-0.970947265625,-266.0,-239.0,475.0,102078.0,-6.252000331878662,0,0
192.570996,-0.025028755888342857,-0.014315245673060417,-0.0166476983577013,0.9994271993637085,-0.1220703125,0.244140625,-0.1220703125,-0.05126953125,-0.093994140625,-0.96875,-266.0,-239.0,475.0,102078.0,-6.252000331878662,0,0
192.577029,-0.025028755888342857,-0.014315245673060417,-0.0166476983577013,0.9994271993637085,-0.1220703125,0.244140625,-0.1220703125,-0.05126953125,-0.093994140625,-0.96875,-266.0,-239.0,475.0,102078.0,-6.252000331878662,0,0
192.583996,-0.025027712807059288,-0.014343109913170338,-0.01663529872894287,0.9994269013404846,-0.30517578125,0.244140625,-0.1220703125,-0.049560546875,-0.094482421875,-0.970947265625,-266.0,-239.0,475.0,102078.0,-6.252000331878662,0,0
192.590995,-0.025027712807059288,-0.014343109913170338,-0.01663529872894287,0.9994269013404846,0.06103515625,0.06103515625,0.1220703125,-0.0491943359375,-0.09375,-0.970458984375,-266.0,-239.0,475.0,102078.0,-6.252000331878662,0,0
192.598021,-0.025027712807059288,-0.014343109913170338,-0.01663529872894287,0.9994269013404846,0.0,-0.06103515625,-0.06103515625,-0.0501708984375,-0.094970703125,-0.9691162109375,-266.0,-239.0,475.0,102078.0,-6.252000331878662,0,0
192.605004,-0.025027712807059288,-0.014343109913170338,-0.01663529872894287,0.9994269013404846,-0.1220703125,0.244140625,-0.06103515625,-0.051513671875,-0.0906982421875,-0.9722900390625,-266.0,-239.0,475.0,102078.0,-6.252000331878662,0,0
192.612019,-0.025027712807059288,-0.014343109913170338,-0.01663529872894287,0.9994269013404846,0.0,0.0,-0.06103515625,-0.049560546875,-0.095703125,-0.971435546875,-266.0,-239.0,475.0,102078.0,-6.252000331878662,0,0
192.618998,-0.025027712807059288,-0.014343109913170338,-0.01663529872894287,0.9994269013404846,0.18310546875,0.1220703125,0.0,-0.0513916015625,-0.095947265625,-0.970458984375,-266.0,-239.0,475.0,102078.0,-6.252000331878662,0,0
192.640001,-0.025027712807059288,-0.014343109913170338,-0.01663529872894287,0.9994269013404846,0.06103515625,0.18310546875,0.06103515625,-0.0506591796875,-0.0955810546875,-0.969482421875,-266.0,-240.0,475.0,102078.0,-6.252000331878662,0,0
192.647019,-0.025027712807059288,-0.014343109913170338,-0.01663529872894287,0.9994269013404846,0.1220703125,-0.06103515625,0.0,-0.0494384765625,-0.09521484375,-0.9710693359375,-266.0,-240.0,475.0,102078.0,-6.252000331878662,0,0
192.653996,-0.025055577978491783,-0.014344152063131332,-0.016635630279779434,0.9994145035743713,-0.1220703125,0.18310546875,0.0,-0.0489501953125,-0.0960693359375,-0.9700927734375,-266.0,-240.0,475.0,102078.0,-6.252000331878662,0,0
192.661,-0.025027712807059288,-0.014343109913170338,-0.01663529872894287,0.9994269013404846,-0.1220703125,0.30517578125,0.18310546875,-0.052978515625,-0.094482421875,-0.9708251953125,-266.0,-240.0,475.0,102078.0,-6.252000331878662,0,0
192.668022,-0.025055577978491783,-0.014344152063131332,-0.016635630279779434,0.9994145035743713,0.0,0.18310546875,-0.244140625,-0.0491943359375,-0.095458984375,-0.9710693359375,-266.0,-240.0,475.0,102078.0,-6.252000331878662,0,0
192.674057,-0.025055577978491783,-0.014344152063131332,-0.016635630279779434,0.9994145035743713,0.0,0.18310546875,-0.244140625,-0.0491943359375,-0.095458984375,-0.9710693359375,-266.0,-240.0,475.0,102078.0,-6.252000331878662,0,0
192.680996,-0.025027712807059288,-0.014343109913170338,-0.01663529872894287,0.9994269013404846,0.0,-0.1220703125,-0.06103515625,-0.0517578125,-0.09619140625,-0.97216796875,-266.0,-240.0,475.0,102078.0,-6.25100040435791,0,0
192.68802,-0.025027712807059288,-0.014343109913170338,-0.01663529872894287,0.9994269013404846,-0.18310546875,-0.06103515625,-0.3662109375,-0.052001953125,-0.0928955078125,-0.970458984375,-266.0,-240.0,475.0,102078.0,-6.25100040435791,0,0
192.695004,-0.025027384981513023,-0.014355508610606194,-0.016663162037730217,0.9994279146194458,0.1220703125,0.1220703125,-0.06103515625,-0.0501708984375,-0.0948486328125,-0.9698486328125,-266.0,-240.0,475.0,102078.0,-6.25100040435791,0,0
192.702018,-0.025027712807059288,-0.014343109913170338,-0.01663529872894287,0.9994269013404846,-0.18310546875,0.0,-0.1220703125,-0.0499267578125,-0.092041015625,-0.9705810546875,-266.0,-240.0,475.0,102078.0,-6.25100040435791,0,0
192.708998,-0.025055577978491783,-0.014344152063131332,-0.016635630279779434,0.9994145035743713,-0.1220703125,0.18310546875,0.06103515625,-0.05078125,-0.0968017578125,-0.9693603515625,-266.0,-240.0,475.0,102078.0,-6.25100040435791,0,0
192.715998,-0.02505525015294552,-0.014356550760567188,-0.01666349358856678,0.9994155168533325,-0.244140625,0.1220703125,0.06103515625,-0.0504150390625,-0.0966796875,-0.9718017578125,-266.0,-240.0,475.0,102078.0,-6.25100040435791,0,0
192.723018,-0.02505525015294552,-0.014356550760567188,-0.01666349358856678,0.9994155168533325,0.0,0.06103515625,0.244140625,-0.0494384765625,-0.0970458984375,-0.971923828125,-266.0,-240.0,475.0,102078.0,-6.25100040435791,0,0
192.730001,-0.02505525015294552,-0.014356550760567188,-0.01666349358856678,0.9994155168533325,0.1220703125,0.06103515625,-0.06103515625,-0.0511474609375,-0.0958251953125,-0.9703369140625,-266.0,-239.0,475.0,102078.0,-6.25100040435791,0,0
192.737019,-0.024930348619818687,-0.014379912056028843,-0.016650816425681114,0.9994369149208069,0.0,0.1220703125,-0.30517578125,-0.05126953125,-0.0985107421875,-0.971923828125,-266.0,-239.0,475.0,102078.0,-6.25100040435791,0,0
192.743995,-0.024930348619818687,-0.014379912056028843,-0.016650816425681114,0.9994369149208069,-0.244140625,0.0,-0.06103515625,-0.0501708984375,-0.095458984375,-0.9725341796875,-266.0,-239.0,475.0,102078.0,-6.25100040435791,0,0
192.750996,-0.024930348619818687,-0.014379912056028843,-0.016650816425681114,0.9994369149208069,0.0,0.18310546875,-0.1220703125,-0.05078125,-0.094970703125,-0.9688720703125,-266.0,-239.0,475.0,102078.0,-6.25100040435791,0,0
192.75802,-0.024930348619818687,-0.014379912056028843,-0.016650816425681114,0.9994369149208069,-0.1220703125,0.06103515625,-0.18310546875,-0.0528564453125,-0.0924072265625,-0.9705810546875,-266.0,-239.0,475.0,102078.0,-6.25100040435791,0,0
192.764052,-0.024930348619818687,-0.014379912056028843,-0.016650816425681114,0.9994369149208069,-0.1220703125,0.06103515625,-0.18310546875,-0.0528564453125,-0.0924072265625,-0.9705810546875,-266.0,-239.0,475.0,102078.0,-6.25100040435791,0,0
192.770995,-0.024931391701102257,-0.014352048747241497,-0.016663214191794395,0.9994372725486755,-0.06103515625,0.0,0.1220703125,-0.05322265625,-0.0955810546875,-0.972412109375,-266.0,-239.0,475.0,102078.0,-6.25100040435791,0,0
192.77802,-0.024931391701102257,-0.014352048747241497,-0.016663214191794395,0.9994372725486755,0.06103515625,-0.06103515625,-0.18310546875,-0.051025390625,-0.096435546875,-0.9720458984375,-266.0,-239.0,475.0,102078.0,-6.252000331878662,0,0
192.785004,-0.024931391701102257,-0.014352048747241497,-0.016663214191794395,0.9994372725486755,-0.1220703125,-0.18310546875,-0.1220703125,-0.0523681640625,-0.09423828125,-0.9700927734375,-266.0,-239.0,475.0,102078.0,-6.252000331878662,0,0
192.792018,-0.024931391701102257,-0.014352048747241497,-0.016663214191794395,0.9994372725486755,-0.1220703125,0.06103515625,-0.244140625,-0.0516357421875,-0.093994140625,-0.968017578125,-266.0,-239.0,475.0,102078.0,-6.252000331878662,0,0
192.813018,-0.024920035153627396,-0.014323854818940163,-0.016676656901836395,0.9994097352027893,-0.1220703125,-0.06103515625,-0.244140625,-0.050537109375,-0.09423828125,-0.9708251953125,-266.0,-239.0,475.0,102078.0,-6.252000331878662,0,0
192.820001,-0.024932434782385826,-0.014324184507131577,-0.016675613820552826,0.9994375705718994,-0.06103515625,0.18310546875,0.1220703125,-0.0513916015625,-0.0938720703125,-0.9722900390625,-266.0,-239.0,475.0,102078.0,-6.252000331878662,0,0
192.827019,-0.024920035153627396,-0.014323854818940163,-0.016676656901836395,0.9994097352027893,-0.18310546875,0.06103515625,-0.18310546875,-0.050537109375,-0.0941162109375,-0.9705810546875,-267.0,-239.0,476.0,102078.0,-6.252000331878662,0,0
192.833996,-0.024728044867515564,-0.014316936023533344,-0.016676761209964752,0.9994284510612488,0.06103515625,0.18310546875,-0.1220703125,-0.050537109375,-0.0947265625,-0.9705810546875,-267.0,-239.0,476.0,102078.0,-6.252000331878662,0,0
192.840996,-0.024728044867515564,-0.014316936023533344,-0.016676761209964752,0.9994284510612488,-0.18310546875,-0.06103515625,0.06103515625,-0.0491943359375,-0.0926513671875,-0.970703125,-267.0,-239.0,476.0,102078.0,-6.252000331878662,0,0
192.84802,-0.024728044867515564,-0.014316936023533344,-0.016676761209964752,0.9994284510612488,-0.18310546875,0.1220703125,-0.1220703125,-0.05126953125,-0.094482421875,-0.970703125,-267.0,-239.0,476.0,102078.0,-6.252000331878662,0,0
192.855,-0.024728044867515564,-0.014316936023533344,-0.016676761209964752,0.9994284510612488,-0.244140625,-0.1220703125,0.06103515625,-0.0516357421875,-0.0936279296875,-0.970947265625,-267.0,-239.0,476.0,102078.0,-6.252000331878662,0,0
192.861031,-0.024728044867515564,-0.014316936023533344,-0.016676761209964752,0.9994284510612488,-0.244140625,-0.1220703125,0.06103515625,-0.0516357421875,-0.0936279296875,-0.970947265625,-267.0,-239.0,476.0,102078.0,-6.252000331878662,0,0
192.86802,-0.024728044867515564,-0.014316936023533344,-0.016676761209964752,0.9994284510612488,-0.1220703125,-0.06103515625,-0.18310546875,-0.05029296875,-0.09521484375,-0.97216796875,-267.0,-239.0,476.0,102078.0,-6.252000331878662,0,0
192.875004,-0.02472837269306183,-0.014304537326097488,-0.016648897901177406,0.9994273781776428,-0.48828125,0.0,-0.1220703125,-0.049072265625,-0.0941162109375,-0.9715576171875,-267.0,-239.0,476.0,102078.0,-6.25100040435791,0,0
192.882019,-0.024729415774345398,-0.014276673085987568,-0.016661297529935837,0.9994277358055115,0.0,0.1220703125,-0.1220703125,-0.05224609375,-0.094970703125,-0.970703125,-267.0,-239.0,476.0,102078.0,-6.25100040435791,0,0
192.903018,-0.024729087948799133,-0.014289071783423424,-0.016689160838723183,0.9994287490844727,-0.244140625,-0.18310546875,-0.06103515625,-0.05029296875,-0.0941162109375,-0.9703369140625,-267.0,-239.0,476.0,102078.0,-6.25100040435791,0,0
192.910002,-0.024729415774345398,-0.014276673085987568,-0.016661297529935837,0.9994277358055115,0.1220703125,0.06103515625,-0.244140625,-0.0528564453125,-0.0941162109375,-0.9703369140625,-267.0,-239.0,476.0,102078.0,-6.25100040435791,0,0
192.917019,-0.024729087948799133,-0.014289071783423424,-0.016689160838723183,0.9994287490844727,0.06103515625,0.1220703125,0.06103515625,-0.0516357421875,-0.095703125,-0.970947265625,-267.0,-239.0,476.0,102078.0,-6.25100040435791,0,0
192.923996,-0.024729087948799133,-0.014289071783423424,-0.016689160838723183,0.9994287490844727,-0.30517578125,0.18310546875,-0.18310546875,-0.0504150390625,-0.09716796875,-0.9696044921875,-267.0,-239.0,476.0,102078.0,-6.25100040435791,0,0
192.931001,-0.024729087948799133,-0.014289071783423424,-0.016689160838723183,0.9994287490844727,-0.06103515625,-0.06103515625,0.244140625,-0.04833984375,-0.0950927734375,-0.97119140625,-266.0,-238.0,476.0,102078.0,-6.25100040435791,0,0
192.938021,-0.024604186415672302,-0.014312433078885078,-0.016676481813192368,0.999450147151947,-0.1220703125,0.06103515625,-0.18310546875,-0.051025390625,-0.09130859375,-0.9700927734375,-266.0,-238.0,476.0,102078.0,-6.25100040435791,0,0
192.945,-0.02460522949695587,-0.014284569770097733,-0.016688881441950798,0.9994505047798157,0.0,0.1220703125,-0.1220703125,-0.0548095703125,-0.094970703125,-0.9722900390625,-266.0,-238.0,476.0,102078.0,-6.25100040435791,0,0
192.951032,-0.02460522949695587,-0.014284569770097733,-0.016688881441950798,0.9994505047798157,0.0,0.1220703125,-0.1220703125,-0.0548095703125,-0.094970703125,-0.9722900390625,-266.0,-238.0,476.0,102078.0,-6.25100040435791,0,0
192.95802,-0.02460522949695587,-0.014284569770097733,-0.016688881441950798,0.9994505047798157,-0.1220703125,0.244140625,-0.06103515625,-0.0517578125,-0.09423828125,-0.97119140625,-266.0,-238.0,476.0,102078.0,-6.25100040435791,0,0
192.965004,-0.02460522949695587,-0.014284569770097733,-0.016688881441950798,0.9994505047798157,0.0,0.0,-0.06103515625,-0.052490234375,-0.0966796875,-0.969482421875,-266.0,-238.0,476.0,102078.0,-6.25100040435791,0,0
192.972019,-0.02460522949695587,-0.014284569770097733,-0.016688881441950798,0.9994505047798157,0.06103515625,0.1220703125,-0.06103515625,-0.049560546875,-0.0955810546875,-0.9697265625,-266.0,-238.0,476.0,102078.0,-6.25100040435791,0,0
192.978999,-0.02460522949695587,-0.014284569770097733,-0.016688881441950798,0.9994505047798157,-0.18310546875,0.244140625,-0.18310546875,-0.0513916015625,-0.093505859375,-0.9708251953125,-266.0,-238.0,476.0,102078.0,-6.25100040435791,0,0
192.985999,-0.02460522949695587,-0.014284569770097733,-0.016688881441950798,0.9994505047798157,-0.1220703125,0.06103515625,0.06103515625,-0.05029296875,-0.0946044921875,-0.9705810546875,-266.0,-238.0,476.0,102078.0,-6.25100040435791,0,0
192.993018,-0.02460522949695587,-0.014284569770097733,-0.016688881441950798,0.9994505047798157,-0.06103515625,0.1220703125,0.0,-0.0513916015625,-0.0966796875,-0.9715576171875,-266.0,-238.0,476.0,102078.0,-6.25100040435791,0,0
193.000002,-0.024604901671409607,-0.014296969398856163,-0.016716744750738144,0.9994515776634216,-0.06103515625,0.1220703125,-0.244140625,-0.0498046875,-0.0943603515625,-0.9716796875,-266.0,-238.0,476.0,102078.0,-6.25100040435791,0,0
193.007018,-0.02460522949695587,-0.014284569770097733,-0.016688881441950798,0.9994505047798157,-0.244140625,0.0,-0.18310546875,-0.05029296875,-0.0948486328125,-0.9710693359375,-266.0,-238.0,476.0,102078.0,-6.25100040435791,0,0
193.013996,-0.02460522949695587,-0.014284569770097733,-0.016688881441950798,0.9994505047798157,0.06103515625,0.06103515625,-0.06103515625,-0.05029296875,-0.0947265625,-0.9715576171875,-266.0,-238.0,476.0,102078.0,-6.25100040435791,0,0
193.020997,-0.024604901671409607,-0.014296969398856163,-0.016716744750738144,0.9994515776634216,-0.18310546875,-0.06103515625,0.1220703125,-0.051513671875,-0.093994140625,-0.9710693359375,-266.0,-238.0,476.0,102078.0,-6.25100040435791,0,0
193.02802,-0.024604901671409607,-0.014296969398856163,-0.016716744750738144,0.9994515776634216,-0.1220703125,0.06103515625,-0.1220703125,-0.051025390625,-0.094970703125,-0.96728515625,-267.0,-239.0,476.0,102078.0,-6.25100040435791,0,0
193.034999,-0.02449650689959526,-0.014293179847300053,-0.01671783998608589,0.9994330406188965,0.30517578125,0.244140625,0.30517578125,-0.0528564453125,-0.09375,-0.9720458984375,-267.0,-239.0,476.0,102078.0,-6.25100040435791,0,0
193.042017,-0.02449650689959526,-0.014293179847300053,-0.01671783998608589,0.9994330406188965,0.1220703125,0.18310546875,0.244140625,-0.0521240234375,-0.0958251953125,-0.9708251953125,-267.0,-239.0,476.0,102078.0,-6.25100040435791,0,0
193.048052,-0.02449650689959526,-0.014293179847300053,-0.01671783998608589,0.9994330406188965,0.1220703125,0.18310546875,0.244140625,-0.0521240234375,-0.0958251953125,-0.9708251953125,-267.0,-239.0,476.0,102078.0,-6.25100040435791,0,0
193.055005,-0.02449754998087883,-0.014265315607190132,-0.016730239614844322,0.9994333386421204,0.0,0.1220703125,-0.1220703125,-0.0513916015625,-0.0950927734375,-0.9725341796875,-267.0,-239.0,476.0,102078.0,-6.25100040435791,0,0
193.075997,-0.02449650689959526,-0.014293179847300053,-0.01671783998608589,0.9994330406188965,0.06103515625,0.0,-0.1220703125,-0.0513916015625,-0.0933837890625,-0.9705810546875,-267.0,-239.0,476.0,102078.0,-6.252000331878662,0,0
193.083018,-0.02449754998087883,-0.014265315607190132,-0.016730239614844322,0.9994333386421204,-0.30517578125,0.06103515625,-0.3662109375,-0.0538330078125,-0.0941162109375,-0.9705810546875,-267.0,-239.0,476.0,102078.0,-6.252000331878662,0,0
193.090001,-0.02449754998087883,-0.014265315607190132,-0.016730239614844322,0.9994333386421204,0.0,0.1220703125,0.0,-0.053466796875,-0.093994140625,-0.970458984375,-267.0,-239.0,476.0,102078.0,-6.252000331878662,0,0
193.097019,-0.02449754998087883,-0.014265315607190132,-0.016730239614844322,0.9994333386421204,-0.30517578125,0.1220703125,-0.06103515625,-0.05078125,-0.0953369140625,-0.9698486328125,-267.0,-239.0,476.0,102078.0,-6.252000331878662,0,0
193.103995,-0.024497222155332565,-0.014277714304625988,-0.016758102923631668,0.9994344115257263,-0.06103515625,0.0,0.18310546875,-0.052001953125,-0.09619140625,-0.9720458984375,-267.0,-239.0,476.0,102078.0,-6.252000331878662,0,0
193.110997,-0.024497222155332565,-0.014277714304625988,-0.016758102923631668,0.9994344115257263,-0.1220703125,0.18310546875,-0.1220703125,-0.050048828125,-0.0963134765625,-0.970947265625,-267.0,-239.0,476.0,102078.0,-6.252000331878662,0,0
193.11802,-0.024497222155332565,-0.014277714304625988,-0.016758102923631668,0.9994344115257263,-0.18310546875,0.0,-0.06103515625,-0.0521240234375,-0.096435546875,-0.9686279296875,-267.0,-239.0,476.0,102078.0,-6.252000331878662,0,0
193.124999,-0.024497222155332565,-0.014277714304625988,-0.016758102923631668,0.9994344115257263,-0.06103515625,0.18310546875,-0.1220703125,-0.0517578125,-0.09423828125,-0.9703369140625,-266.0,-240.0,475.0,102078.0,-6.252000331878662,0,0
193.132016,-0.024497222155332565,-0.014277714304625988,-0.016758102923631668,0.9994344115257263,0.0,0.18310546875,0.0,-0.051513671875,-0.0953369140625,-0.9720458984375,-266.0,-240.0,475.0,102078.0,-6.252000331878662,0,0
193.138052,-0.024497222155332565,-0.014277714304625988,-0.016758102923631668,0.9994344115257263,0.0,0.18310546875,0.0,-0.051513671875,-0.0953369140625,-0.9720458984375,-266.0,-240.0,475.0,102078.0,-6.252000331878662,0,0
193.145004,-0.024497222155332565,-0.014277714304625988,-0.016758102923631668,0.9994344115257263,-0.18310546875,0.244140625,-0.06103515625,-0.050048828125,-0.0933837890625,-0.9716796875,-266.0,-240.0,475.0,102078.0,-6.252000331878662,0,0
193.165997,-0.02449754998087883,-0.014265315607190132,-0.016730239614844322,0.9994333386421204,-0.1220703125,-0.06103515625,-0.06103515625,-0.0498046875,-0.093017578125,-0.971923828125,-266.0,-240.0,475.0,102078.0,-6.252000331878662,0,0
193.173018,-0.02449754998087883,-0.014265315607190132,-0.016730239614844322,0.9994333386421204,0.244140625,0.06103515625,0.06103515625,-0.0487060546875,-0.0908203125,-0.9716796875,-266.0,-240.0,475.0,102078.0,-6.252000331878662,0,0
193.180001,-0.024497877806425095,-0.014252915978431702,-0.016702374443411827,0.9994323253631592,-0.42724609375,0.0,-0.18310546875,-0.0498046875,-0.0908203125,-0.969482421875,-266.0,-240.0,475.0,102078.0,-6.252000331878662,0,0
193.187019,-0.024497877806425095,-0.014252915978431702,-0.016702374443411827,0.9994323253631592,-0.1220703125,-0.06103515625,-0.06103515625,-0.0521240234375,-0.093505859375,-0.970947265625,-266.0,-240.0,475.0,102078.0,-6.252000331878662,0,0
193.193996,-0.024497877806425095,-0.014252915978431702,-0.016702374443411827,0.9994323253631592,0.06103515625,0.1220703125,0.06103515625,-0.05029296875,-0.0947265625,-0.969970703125,-266.0,-240.0,475.0,102078.0,-6.252000331878662,0,0
193.200996,-0.024497877806425095,-0.014252915978431702,-0.016702374443411827,0.9994323253631592,-0.1220703125,0.0,-0.1220703125,-0.051513671875,-0.093505859375,-0.9713134765625,-266.0,-240.0,475.0,102078.0,-6.252000331878662,0,0
193.208021,-0.024497877806425095,-0.014252915978431702,-0.016702374443411827,0.9994323253631592,0.18310546875,-0.06103515625,-0.06103515625,-0.0518798828125,-0.0958251953125,-0.9716796875,-266.0,-240.0,475.0,102078.0,-6.252000331878662,0,0
193.214999,-0.024497877806425095,-0.014252915978431702,-0.016702374443411827,0.9994323253631592,0.18310546875,-0.06103515625,-0.1220703125,-0.04931640625,-0.0968017578125,-0.971923828125,-266.0,-240.0,475.0,102078.0,-6.252000331878662,0,0
193.222016,-0.024497877806425095,-0.014252915978431702,-0.016702374443411827,0.9994323253631592,0.0,0.1220703125,-0.06103515625,-0.05078125,-0.0958251953125,-0.97021484375,-266.0,-240.0,475.0,102078.0,-6.252000331878662,0,0
193.228998,-0.024497877806425095,-0.014252915978431702,-0.016702374443411827,0.9994323253631592,-0.1220703125,0.18310546875,0.06103515625,-0.0496826171875,-0.096923828125,-0.9705810546875,-267.0,-241.0,475.0,102078.0,-6.252000331878662,0,0
193.235031,-0.024497877806425095,-0.014252915978431702,-0.016702374443411827,0.9994323253631592,-0.1220703125,0.18310546875,0.06103515625,-0.0496826171875,-0.096923828125,-0.9705810546875,-267.0,-241.0,475.0,102078.0,-6.252000331878662,0,0
193.242019,-0.02449754998087883,-0.014265315607190132,-0.016730239614844322,0.9994333386421204,0.0,-0.1220703125,0.0,-0.051025390625,-0.095947265625,-0.9718017578125,-267.0,-241.0,475.0,102078.0,-6.252000331878662,0,0
193.248998,-0.02449650689959526,-0.014293179847300053,-0.01671783998608589,0.9994330406188965,-0.1220703125,0.0,0.18310546875,-0.05078125,-0.0966796875,-0.9705810546875,-267.0,-241.0,475.0,102078.0,-6.252000331878662,0,0
193.255998,-0.02449650689959526,-0.014293179847300053,-0.01671783998608589,0.9994330406188965,-0.1220703125,0.18310546875,-0.06103515625,-0.0517578125,-0.0943603515625,-0.970703125,-267.0,-241.0,475.0,102078.0,-6.252000331878662,0,0
193.263018,-0.02449650689959526,-0.014293179847300053,-0.01671783998608589,0.9994330406188965,-0.244140625,0.18310546875,-0.1220703125,-0.049560546875,-0.0963134765625,-0.96875,-267.0,-241.0,475.0,102078.0,-6.252000331878662,0,0
193.270002,-0.02449650689959526,-0.014293179847300053,-0.01671783998608589,0.9994330406188965,-0.18310546875,0.06103515625,0.0,-0.050537109375,-0.0941162109375,-0.970458984375,-267.0,-241.0,475.0,102078.0,-6.252000331878662,0,0
193.277018,-0.02449650689959526,-0.014293179847300053,-0.01671783998608589,0.9994330406188965,-0.18310546875,0.244140625,0.18310546875,-0.052001953125,-0.094970703125,-0.972412109375,-267.0,-241.0,475.0,102078.0,-6.25100040435791,0,0
193.283996,-0.02449650689959526,-0.014293179847300053,-0.01671783998608589,0.9994330406188965,-0.06103515625,0.06103515625,0.18310546875,-0.0516357421875,-0.09521484375,-0.9710693359375,-267.0,-241.0,475.0,102078.0,-6.25100040435791,0,0
193.291001,-0.02449650689959526,-0.014293179847300053,-0.01671783998608589,0.9994330406188965,-0.06103515625,0.18310546875,-0.1220703125,-0.049072265625,-0.09423828125,-0.9688720703125,-267.0,-241.0,475.0,102078.0,-6.25100040435791,0,0
193.298021,-0.024496834725141525,-0.014280780218541622,-0.016689976677298546,0.9994319677352905,0.06103515625,0.18310546875,-0.1220703125,-0.04931640625,-0.093505859375,-0.970703125,-267.0,-241.0,475.0,102078.0,-6.25100040435791,0,0
193.304999,-0.024496834725141525,-0.014280780218541622,-0.016689976677298546,0.9994319677352905,0.18310546875,0.06103515625,-0.06103515625,-0.04931640625,-0.0924072265625,-0.9730224609375,-267.0,-241.0,475.0,102078.0,-6.25100040435791,0,0
193.312017,-0.024496834725141525,-0.014280780218541622,-0.016689976677298546,0.9994319677352905,0.1220703125,0.06103515625,0.0,-0.048828125,-0.0936279296875,-0.9715576171875,-267.0,-241.0,475.0,102078.0,-6.25100040435791,0,0
193.318998,-0.024496834725141525,-0.014280780218541622,-0.016689976677298546,0.9994319677352905,-0.1220703125,-0.06103515625,0.0,-0.0531005859375,-0.092529296875,-0.9708251953125,-267.0,-241.0,475.0,102078.0,-6.25100040435791,0,0
193.338994,-0.024429064244031906,-0.014265964739024639,-0.016662493348121643,0.999427855014801,0.06103515625,0.1220703125,-0.1220703125,-0.0516357421875,-0.0963134765625,-0.9705810546875,-268.0,-241.0,474.0,102078.0,-6.25100040435791,0,0
193.345998,-0.02442977949976921,-0.014250500127673149,-0.01670275442302227,0.9994292259216309,-0.3662109375,-0.06103515625,0.06103515625,-0.054443359375,-0.0946044921875,-0.969482421875,-268.0,-241.0,474.0,102078.0,-6.25100040435791,0,0
193.353019,-0.02442977949976921,-0.014250500127673149,-0.01670275442302227,0.9994292259216309,-0.06103515625,0.0,-0.1220703125,-0.0518798828125,-0.0948486328125,-0.968994140625,-268.0,-241.0,474.0,102078.0,-6.25100040435791,0,0
193.360002,-0.02442977949976921,-0.014250500127673149,-0.01670275442302227,0.9994292259216309,-0.1220703125,0.1220703125,0.1220703125,-0.049560546875,-0.098388671875,-0.9703369140625,-268.0,-241.0,474.0,102078.0,-6.25100040435791,0,0
193.367019,-0.02442977949976921,-0.014250500127673149,-0.01670275442302227,0.9994292259216309,0.0,0.1220703125,0.06103515625,-0.051513671875,-0.0948486328125,-0.9708251953125,-268.0,-241.0,474.0,102078.0,-6.25100040435791,0,0
193.373995,-0.02442977949976921,-0.014250500127673149,-0.01670275442302227,0.9994292259216309,0.1220703125,0.06103515625,-0.18310546875,-0.05224609375,-0.097412109375,-0.970703125,-268.0,-241.0,474.0,102078.0,-6.25100040435791,0,0
193.380996,-0.02442942187190056,-0.01426289975643158,-0.016730619594454765,0.9994302988052368,0.1220703125,0.18310546875,-0.1220703125,-0.0528564453125,-0.098388671875,-0.971923828125,-268.0,-241.0,474.0,102078.0,-6.25100040435791,0,0
193.38802,-0.02442942187190056,-0.01426289975643158,-0.016730619594454765,0.9994302988052368,-0.06103515625,0.0,0.18310546875,-0.049560546875,-0.0963134765625,-0.9693603515625,-268.0,-241.0,474.0,102078.0,-6.25100040435791,0,0
193.394999,-0.02442942187190056,-0.01426289975643158,-0.016730619594454765,0.9994302988052368,-0.42724609375,0.06103515625,0.06103515625,-0.0504150390625,-0.094482421875,-0.970947265625,-268.0,-241.0,474.0,102078.0,-6.25100040435791,0,0
193.402017,-0.02442942187190056,-0.01426289975643158,-0.016730619594454765,0.9994302988052368,-0.18310546875,0.1220703125,-0.06103515625,-0.052001953125,-0.0941162109375,-0.970703125,-268.0,-241.0,474.0,102078.0,-6.25100040435791,0,0
193.408998,-0.02442942187190056,-0.01426289975643158,-0.016730619594454765,0.9994302988052368,-0.244140625,0.244140625,-0.18310546875,-0.0518798828125,-0.093994140625,-0.970947265625,-268.0,-241.0,474.0,102078.0,-6.25100040435791,0,0
193.428994,-0.02442977949976921,-0.014250500127673149,-0.01670275442302227,0.9994292259216309,-0.1220703125,0.0,-0.06103515625,-0.0501708984375,-0.09326171875,-0.9710693359375,-269.0,-241.0,475.0,102078.0,-6.25100040435791,0,0
193.435997,-0.0243059191852808,-0.014245998114347458,-0.016702475026249886,0.9994509816169739,-0.3662109375,0.30517578125,-0.06103515625,-0.0506591796875,-0.0926513671875,-0.9718017578125,-269.0,-241.0,475.0,102078.0,-6.25100040435791,0,0
193.443019,-0.0243059191852808,-0.014245998114347458,-0.016702475026249886,0.9994509816169739,0.0,0.06103515625,-0.30517578125,-0.048583984375,-0.0936279296875,-0.9697265625,-269.0,-241.0,475.0,102078.0,-6.25100040435791,0,0
193.450002,-0.0243059191852808,-0.014245998114347458,-0.016702475026249886,0.9994509816169739,0.06103515625,0.0,0.06103515625,-0.050048828125,-0.0946044921875,-0.969970703125,-269.0,-241.0,475.0,102078.0,-6.25100040435791,0,0
193.457019,-0.024305203929543495,-0.014261462725698948,-0.01666221395134926,0.999449610710144,-0.18310546875,0.1220703125,0.18310546875,-0.0501708984375,-0.0950927734375,-0.9713134765625,-269.0,-241.0,475.0,102078.0,-6.25100040435791,0,0
193.463996,-0.02430487610399723,-0.014273861423134804,-0.016690077260136604,0.9994506239891052,-0.06103515625,0.06103515625,-0.18310546875,-0.052001953125,-0.095947265625,-0.9686279296875,-269.0,-241.0,475.0,102078.0,-6.25100040435791,0,0
193.470996,-0.024305203929543495,-0.014261462725698948,-0.01666221395134926,0.999449610710144,-0.06103515625,0.0,-0.3662109375,-0.052001953125,-0.0931396484375,-0.9688720703125,-269.0,-241.0,475.0,102078.0,-6.25100040435791,0,0
193.47802,-0.024305203929543495,-0.014261462725698948,-0.01666221395134926,0.999449610710144,-0.06103515625,0.0,-0.1220703125,-0.051513671875,-0.09619140625,-0.97216796875,-269.0,-241.0,475.0,102078.0,-6.252000331878662,0,0
193.485,-0.02430487610399723,-0.014273861423134804,-0.016690077260136604,0.9994506239891052,-0.18310546875,0.0,-0.244140625,-0.05078125,-0.0953369140625,-0.97021484375,-269.0,-241.0,475.0,102078.0,-6.252000331878662,0,0
193.492016,-0.0243059191852808,-0.014245998114347458,-0.016702475026249886,0.9994509816169739,-0.06103515625,0.1220703125,0.06103515625,-0.0516357421875,-0.0948486328125,-0.970458984375,-269.0,-241.0,475.0,102078.0,-6.252000331878662,0,0
193.498997,-0.0243059191852808,-0.014245998114347458,-0.016702475026249886,0.9994509816169739,0.1220703125,0.0,0.0,-0.051025390625,-0.096923828125,-0.971435546875,-269.0,-241.0,475.0,102078.0,-6.252000331878662,0,0
193.505997,-0.02430487610399723,-0.014273861423134804,-0.016690077260136604,0.9994506239891052,-0.30517578125,-0.06103515625,-0.18310546875,-0.0491943359375,-0.0960693359375,-0.9705810546875,-269.0,-241.0,475.0,102078.0,-6.252000331878662,0,0
193.512029,-0.02430487610399723,-0.014273861423134804,-0.016690077260136604,0.9994506239891052,-0.30517578125,-0.06103515625,-0.18310546875,-0.0491943359375,-0.0960693359375,-0.9705810546875,-269.0,-241.0,475.0,102078.0,-6.252000331878662,0,0
193.518998,-0.0243059191852808,-0.014245998114347458,-0.016702475026249886,0.9994509816169739,0.0,-0.06103515625,0.18310546875,-0.0518798828125,-0.091796875,-0.970458984375,-269.0,-241.0,475.0,102078.0,-6.252000331878662,0,0
193.525999,-0.0243059191852808,-0.014245998114347458,-0.016702475026249886,0.9994509816169739,-0.06103515625,-0.06103515625,-0.1220703125,-0.051025390625,-0.0955810546875,-0.9698486328125,-269.0,-242.0,475.0,102078.0,-6.252000331878662,0,0
193.533018,-0.024169661104679108,-0.014241164550185204,-0.01670324243605137,0.999444842338562,0.06103515625,-0.244140625,0.06103515625,-0.05126953125,-0.095947265625,-0.969970703125,-269.0,-242.0,475.0,102078.0,-6.252000331878662,0,0
193.540001,-0.024169661104679108,-0.014241164550185204,-0.01670324243605137,0.999444842338562,-0.18310546875,-0.244140625,0.0,-0.05078125,-0.0953369140625,-0.9705810546875,-269.0,-242.0,475.0,102078.0,-6.252000331878662,0,0
193.547019,-0.024169661104679108,-0.014241164550185204,-0.01670324243605137,0.999444842338562,-0.18310546875,0.30517578125,0.0,-0.0506591796875,-0.095458984375,-0.9691162109375,-269.0,-242.0,475.0,102078.0,-6.252000331878662,0,0
193.553996,-0.024169661104679108,-0.014241164550185204,-0.01670324243605137,0.999444842338562,-0.18310546875,-0.1220703125,-0.06103515625,-0.051025390625,-0.0966796875,-0.969970703125,-269.0,-242.0,475.0,102078.0,-6.252000331878662,0,0
193.561,-0.024169333279132843,-0.014253564178943634,-0.016731107607483864,0.9994458556175232,0.0,0.18310546875,-0.18310546875,-0.0516357421875,-0.096923828125,-0.9703369140625,-269.0,-242.0,475.0,102078.0,-6.252000331878662,0,0
193.568021,-0.024169661104679108,-0.014241164550185204,-0.01670324243605137,0.999444842338562,0.0,-0.06103515625,0.06103515625,-0.0501708984375,-0.0936279296875,-0.9716796875,-269.0,-242.0,475.0,102078.0,-6.252000331878662,0,0
193.574999,-0.024169661104679108,-0.014241164550185204,-0.01670324243605137,0.999444842338562,0.06103515625,0.06103515625,0.06103515625,-0.0531005859375,-0.0950927734375,-0.96923828125,-269.0,-242.0,475.0,102078.0,-6.252000331878662,0,0
193.582016,-0.024169661104679108,-0.014241164550185204,-0.01670324243605137,0.999444842338562,0.1220703125,0.0,0.06103515625,-0.052001953125,-0.093017578125,-0.97021484375,-269.0,-242.0,475.0,102078.0,-6.252000331878662,0,0
193.603022,-0.024169661104679108,-0.014241164550185204,-0.01670324243605137,0.999444842338562,-0.18310546875,-0.1220703125,-0.244140625,-0.0499267578125,-0.094970703125,-0.971923828125,-269.0,-242.0,475.0,102078.0,-6.252000331878662,0,0
193.609055,-0.024169661104679108,-0.014241164550185204,-0.01670324243605137,0.999444842338562,-0.18310546875,-0.1220703125,-0.244140625,-0.0499267578125,-0.094970703125,-0.971923828125,-269.0,-242.0,475.0,102078.0,-6.252000331878662,0,0
193.615998,-0.02416861802339554,-0.014269028790295124,-0.016690844669938087,0.9994444847106934,-0.244140625,-0.06103515625,-0.1220703125,-0.0494384765625,-0.0965576171875,-0.971923828125,-269.0,-242.0,475.0,102078.0,-6.252000331878662,0,0
193.623018,-0.02416861802339554,-0.014269028790295124,-0.016690844669938087,0.9994444847106934,-0.1220703125,0.0,0.1220703125,-0.0494384765625,-0.0963134765625,-0.968994140625,-269.0,-242.0,475.0,102078.0,-6.252000331878662,0,0
193.630001,-0.024072622880339622,-0.014265569858253002,-0.016690893098711967,0.9994538426399231,0.1220703125,0.18310546875,-0.18310546875,-0.0518798828125,-0.0963134765625,-0.97119140625,-269.0,-241.0,476.0,102078.0,-6.252000331878662,0,0
193.637019,-0.024072622880339622,-0.014265569858253002,-0.016690893098711967,0.9994538426399231,-0.06103515625,0.244140625,0.0,-0.049072265625,-0.0963134765625,-0.972412109375,-269.0,-241.0,476.0,102078.0,-6.252000331878662,0,0
193.643996,-0.024072622880339622,-0.014265569858253002,-0.016690893098711967,0.9994538426399231,0.06103515625,0.1220703125,-0.1220703125,-0.05224609375,-0.0966796875,-0.9681396484375,-269.0,-241.0,476.0,102078.0,-6.252000331878662,0,0
193.650996,-0.024072622880339622,-0.014265569858253002,-0.016690893098711967,0.9994538426399231,0.0,0.06103515625,0.18310546875,-0.05126953125,-0.095458984375,-0.9698486328125,-269.0,-241.0,476.0,102078.0,-6.252000331878662,0,0
193.65802,-0.024072622880339622,-0.014265569858253002,-0.016690893098711967,0.9994538426399231,0.06103515625,0.1220703125,-0.18310546875,-0.048828125,-0.0966796875,-0.9713134765625,-269.0,-241.0,476.0,102078.0,-6.252000331878662,0,0
193.664999,-0.024072622880339622,-0.014265569858253002,-0.016690893098711967,0.9994538426399231,-0.1220703125,0.1220703125,-0.18310546875,-0.0521240234375,-0.093505859375,-0.96923828125,-269.0,-241.0,476.0,102078.0,-6.252000331878662,0,0
193.672017,-0.024072622880339622,-0.014265569858253002,-0.016690893098711967,0.9994538426399231,-0.48828125,-0.06103515625,0.06103515625,-0.0504150390625,-0.094482421875,-0.9700927734375,-269.0,-241.0,476.0,102078.0,-6.252000331878662,0,0
193.685997,-0.024072622880339622,-0.014265569858253002,-0.016690893098711967,0.9994538426399231,-0.18310546875,0.18310546875,0.1220703125,-0.053955078125,-0.09228515625,-0.97021484375,-269.0,-241.0,476.0,102078.0,-6.252000331878662,0,0
193.693023,-0.024072622880339622,-0.014265569858253002,-0.016690893098711967,0.9994538426399231,-0.06103515625,0.244140625,-0.06103515625,-0.0506591796875,-0.092529296875,-0.9700927734375,-269.0,-241.0,476.0,102078.0,-6.252000331878662,0,0
193.69905,-0.024072622880339622,-0.014265569858253002,-0.016690893098711967,0.9994538426399231,-0.06103515625,0.244140625,-0.06103515625,-0.0506591796875,-0.092529296875,-0.9700927734375,-269.0,-241.0,476.0,102078.0,-6.252000331878662,0,0
193.705997,-0.024072950705885887,-0.014253171160817146,-0.01666302978992462,0.9994527697563171,-0.1220703125,0.06103515625,-0.18310546875,-0.049072265625,-0.09423828125,-0.9716796875,-269.0,-241.0,476.0,102078.0,-6.252000331878662,0,0
193.713018,-0.024073993787169456,-0.014225306920707226,-0.016675427556037903,0.9994531273841858,0.244140625,0.1220703125,-0.1220703125,-0.0531005859375,-0.0924072265625,-0.968017578125,-269.0,-241.0,476.0,102078.0,-6.252000331878662,0,0
193.720001,-0.024073993787169456,-0.014225306920707226,-0.016675427556037903,0.9994531273841858,-0.18310546875,0.244140625,0.0,-0.0516357421875,-0.0948486328125,-0.9700927734375,-269.0,-241.0,476.0,102078.0,-6.252000331878662,0,0
193.727019,-0.024073993787169456,-0.014225306920707226,-0.016675427556037903,0.9994531273841858,-0.06103515625,0.18310546875,-0.06103515625,-0.051025390625,-0.0946044921875,-0.9703369140625,-269.0,-242.0,476.0,102078.0,-6.253000259399414,0,0
193.733995,-0.024005863815546036,-0.014222890138626099,-0.016675811260938644,0.9994500279426575,-0.1220703125,0.06103515625,0.30517578125,-0.0517578125,-0.0970458984375,-0.969970703125,-269.0,-242.0,476.0,102078.0,-6.253000259399414,0,0
193.740996,-0.024005863815546036,-0.014222890138626099,-0.016675811260938644,0.9994500279426575,-0.1220703125,-0.1220703125,0.0,-0.0501708984375,-0.0936279296875,-0.9698486328125,-269.0,-242.0,476.0,102078.0,-6.253000259399414,0,0
193.74802,-0.024005863815546036,-0.014222890138626099,-0.016675811260938644,0.9994500279426575,0.06103515625,-0.1220703125,0.18310546875,-0.051513671875,-0.095703125,-0.9703369140625,-269.0,-242.0,476.0,102078.0,-6.253000259399414,0,0
193.754999,-0.024005863815546036,-0.014222890138626099,-0.016675811260938644,0.9994500279426575,0.06103515625,-0.1220703125,0.0,-0.0511474609375,-0.094482421875,-0.970947265625,-269.0,-242.0,476.0,102078.0,-6.253000259399414,0,0
193.762017,-0.024005863815546036,-0.014222890138626099,-0.016675811260938644,0.9994500279426575,0.0,-0.06103515625,-0.06103515625,-0.0521240234375,-0.0950927734375,-0.9700927734375,-269.0,-242.0,476.0,102078.0,-6.253000259399414,0,0
193.768997,-0.024005863815546036,-0.014222890138626099,-0.016675811260938644,0.9994500279426575,0.0,-0.1220703125,0.0,-0.052978515625,-0.0965576171875,-0.971923828125,-269.0,-242.0,476.0,102078.0,-6.253000259399414,0,0
193.775998,-0.024005863815546036,-0.014222890138626099,-0.016675811260938644,0.9994500279426575,-0.06103515625,-0.1220703125,-0.244140625,-0.0521240234375,-0.093994140625,-0.9715576171875,-269.0,-242.0,476.0,102078.0,-6.253000259399414,0,0
193.783022,-0.024005863815546036,-0.014222890138626099,-0.016675811260938644,0.9994500279426575,-0.18310546875,-0.1220703125,-0.18310546875,-0.0506591796875,-0.0955810546875,-0.970947265625,-269.0,-242.0,476.0,102078.0,-6.253000259399414,0,0
193.790001,-0.024005863815546036,-0.014222890138626099,-0.016675811260938644,0.9994500279426575,-0.244140625,0.18310546875,0.06103515625,-0.0513916015625,-0.0953369140625,-0.971923828125,-269.0,-242.0,476.0,102078.0,-6.253000259399414,0,0
193.79603,-0.024005863815546036,-0.014222890138626099,-0.016675811260938644,0.9994500279426575,-0.244140625,0.18310546875,0.06103515625,-0.0513916015625,-0.0953369140625,-0.971923828125,-269.0,-242.0,476.0,102078.0,-6.253000259399414,0,0
193.803018,-0.02400553598999977,-0.014235288836061954,-0.01670367456972599,0.9994511008262634,-0.1220703125,0.18310546875,-0.18310546875,-0.052001953125,-0.0950927734375,-0.970458984375,-269.0,-242.0,476.0,102078.0,-6.253000259399414,0,0
193.810002,-0.024005863815546036,-0.014222890138626099,-0.016675811260938644,0.9994500279426575,0.06103515625,0.06103515625,0.18310546875,-0.0482177734375,-0.0941162109375,-0.9697265625,-269.0,-242.0,476.0,102078.0,-6.253000259399414,0,0
193.817019,-0.024005863815546036,-0.014222890138626099,-0.016675811260938644,0.9994500279426575,-0.1220703125,0.06103515625,-0.1220703125,-0.049560546875,-0.0950927734375,-0.9677734375,-269.0,-242.0,476.0,102078.0,-6.253000259399414,0,0
193.823996,-0.024005863815546036,-0.014222890138626099,-0.016675811260938644,0.9994500279426575,-0.18310546875,-0.1220703125,0.06103515625,-0.049560546875,-0.0926513671875,-0.968994140625,-269.0,-242.0,476.0,102078.0,-6.253000259399414,0,0
193.831,-0.023937735706567764,-0.014220474287867546,-0.016676194965839386,0.9994469881057739,0.0,0.0,0.06103515625,-0.0501708984375,-0.09375,-0.9713134765625,-269.0,-242.0,475.0,102078.0,-6.253000259399414,0,0
193.838022,-0.023937735706567764,-0.014220474287867546,-0.016676194965839386,0.9994469881057739,0.06103515625,-0.1220703125,0.0,-0.0516357421875,-0.09375,-0.9720458984375,-269.0,-242.0,475.0,102078.0,-6.253000259399414,0,0
193.845,-0.023937735706567764,-0.014220474287867546,-0.016676194965839386,0.9994469881057739,0.0,0.06103515625,-0.1220703125,-0.052978515625,-0.094970703125,-0.9686279296875,-269.0,-242.0,475.0,102078.0,-6.253000259399414,0,0
193.865997,-0.023937735706567764,-0.014220474287867546,-0.016676194965839386,0.9994469881057739,-0.244140625,0.1220703125,0.06103515625,-0.05078125,-0.0931396484375,-0.969970703125,-269.0,-242.0,475.0,102078.0,-6.253000259399414,0,0
193.873023,-0.023937735706567764,-0.014220474287867546,-0.016676194965839386,0.9994469881057739,-0.06103515625,0.06103515625,0.0,-0.0509033203125,-0.0953369140625,-0.970703125,-269.0,-242.0,475.0,102078.0,-6.253000259399414,0,0
193.880001,-0.02393806353211403,-0.01420807559043169,-0.01664833165705204,0.999445915222168,0.1220703125,0.0,-0.1220703125,-0.0487060546875,-0.0936279296875,-0.9725341796875,-269.0,-242.0,475.0,102078.0,-6.253000259399414,0,0
193.886035,-0.02393806353211403,-0.01420807559043169,-0.01664833165705204,0.999445915222168,0.1220703125,0.0,-0.1220703125,-0.0487060546875,-0.0936279296875,-0.9725341796875,-269.0,-242.0,475.0,102078.0,-6.253000259399414,0,0
193.893018,-0.02393806353211403,-0.01420807559043169,-0.01664833165705204,0.999445915222168,0.0,0.1220703125,-0.1220703125,-0.0494384765625,-0.092529296875,-0.969482421875,-269.0,-242.0,475.0,102078.0,-6.253000259399414,0,0
193.900001,-0.02393806353211403,-0.01420807559043169,-0.01664833165705204,0.999445915222168,-0.18310546875,-0.18310546875,-0.06103515625,-0.0506591796875,-0.0948486328125,-0.97119140625,-269.0,-242.0,475.0,102078.0,-6.253000259399414,0,0
193.907019,-0.02393702045083046,-0.014235938899219036,-0.01663593202829361,0.9994456171989441,-0.30517578125,-0.06103515625,0.0,-0.0491943359375,-0.09521484375,-0.9698486328125,-269.0,-242.0,475.0,102078.0,-6.253000259399414,0,0
193.913995,-0.02393702045083046,-0.014235938899219036,-0.01663593202829361,0.9994456171989441,-0.1220703125,0.18310546875,0.0,-0.04931640625,-0.096923828125,-0.969482421875,-269.0,-242.0,475.0,102078.0,-6.253000259399414,0,0
193.920996,-0.02393702045083046,-0.014235938899219036,-0.01663593202829361,0.9994456171989441,-0.06103515625,0.1220703125,0.1220703125,-0.048583984375,-0.09423828125,-0.9688720703125,-269.0,-242.0,475.0,102078.0,-6.252000331878662,0,0
193.928021,-0.02393702045083046,-0.014235938899219036,-0.01663593202829361,0.9994456171989441,-0.244140625,0.0,0.0,-0.0506591796875,-0.0960693359375,-0.9703369140625,-269.0,-242.0,475.0,102078.0,-6.252000331878662,0,0
193.948998,-0.02386784739792347,-0.01426138635724783,-0.016623912379145622,0.9994422197341919,-0.244140625,0.06103515625,-0.1220703125,-0.0494384765625,-0.09716796875,-0.968505859375,-269.0,-242.0,475.0,102078.0,-6.252000331878662,0,0
193.955997,-0.023867519572377205,-0.014273785054683685,-0.016651777550578117,0.9994432330131531,-0.30517578125,0.18310546875,0.18310546875,-0.0506591796875,-0.0972900390625,-0.971435546875,-269.0,-242.0,475.0,102078.0,-6.252000331878662,0,0
193.963023,-0.023867519572377205,-0.014273785054683685,-0.016651777550578117,0.9994432330131531,-0.42724609375,0.3662109375,-0.1220703125,-0.0513916015625,-0.093994140625,-0.9705810546875,-269.0,-242.0,475.0,102078.0,-6.252000331878662,0,0
193.970001,-0.023867519572377205,-0.014273785054683685,-0.016651777550578117,0.9994432330131531,0.0,0.0,-0.1220703125,-0.0513916015625,-0.095458984375,-0.970703125,-269.0,-242.0,475.0,102078.0,-6.252000331878662,0,0
193.977015,-0.023867519572377205,-0.014273785054683685,-0.016651777550578117,0.9994432330131531,0.0,0.1220703125,-0.06103515625,-0.05029296875,-0.09521484375,-0.970947265625,-269.0,-242.0,475.0,102078.0,-6.252000331878662,0,0
193.983048,-0.023867519572377205,-0.014273785054683685,-0.016651777550578117,0.9994432330131531,0.0,0.1220703125,-0.06103515625,-0.05029296875,-0.09521484375,-0.970947265625,-269.0,-242.0,475.0,102078.0,-6.252000331878662,0,0
193.990002,-0.023867519572377205,-0.014273785054683685,-0.016651777550578117,0.9994432330131531,-0.1220703125,0.06103515625,-0.244140625,-0.0501708984375,-0.0955810546875,-0.970947265625,-269.0,-242.0,475.0,102078.0,-6.252000331878662,0,0
193.997018,-0.023867519572377205,-0.014273785054683685,-0.016651777550578117,0.9994432330131531,-0.244140625,0.30517578125,-0.18310546875,-0.0496826171875,-0.09423828125,-0.970458984375,-269.0,-242.0,475.0,102078.0,-6.252000331878662,0,0
194.003995,-0.02386784739792347,-0.01426138635724783,-0.016623912379145622,0.9994422197341919,-0.06103515625,0.1220703125,-0.18310546875,-0.050048828125,-0.093505859375,-0.9698486328125,-269.0,-242.0,475.0,102078.0,-6.252000331878662,0,0
194.010996,-0.02386784739792347,-0.01426138635724783,-0.016623912379145622,0.9994422197341919,-0.244140625,0.18310546875,0.1220703125,-0.05126953125,-0.093994140625,-0.9700927734375,-269.0,-242.0,475.0,102078.0,-6.252000331878662,0,0
194.018021,-0.023867519572377205,-0.014273785054683685,-0.016651777550578117,0.9994432330131531,0.1220703125,0.0,-0.1220703125,-0.05029296875,-0.0950927734375,-0.9713134765625,-269.0,-242.0,475.0,102078.0,-6.252000331878662,0,0
194.024999,-0.02386784739792347,-0.01426138635724783,-0.016623912379145622,0.9994422197341919,-0.244140625,0.18310546875,0.0,-0.05029296875,-0.0963134765625,-0.970703125,-269.0,-242.0,476.0,102078.0,-6.253000259399414,0,0
194.032017,-0.02386784739792347,-0.01426138635724783,-0.016623912379145622,0.9994422197341919,-0.18310546875,0.0,0.1220703125,-0.0498046875,-0.096923828125,-0.971435546875,-269.0,-242.0,476.0,102078.0,-6.253000259399414,0,0
194.038998,-0.023866834118962288,-0.014289249666035175,-0.01661151461303234,0.9994418621063232,-0.06103515625,0.06103515625,0.0,-0.0518798828125,-0.09423828125,-0.9705810546875,-269.0,-242.0,476.0,102078.0,-6.253000259399414,0,0
194.045997,-0.023866834118962288,-0.014289249666035175,-0.01661151461303234,0.9994418621063232,0.06103515625,0.1220703125,-0.18310546875,-0.05029296875,-0.0931396484375,-0.9705810546875,-269.0,-242.0,476.0,102078.0,-6.253000259399414,0,0
194.053022,-0.023866834118962288,-0.014289249666035175,-0.01661151461303234,0.9994418621063232,0.0,0.1220703125,-0.244140625,-0.051513671875,-0.093994140625,-0.971923828125,-269.0,-242.0,476.0,102078.0,-6.253000259399414,0,0
194.060001,-0.023866834118962288,-0.014289249666035175,-0.01661151461303234,0.9994418621063232,0.0,0.06103515625,-0.06103515625,-0.050048828125,-0.095703125,-0.97119140625,-269.0,-242.0,476.0,102078.0,-6.253000259399414,0,0
194.067015,-0.023866834118962288,-0.014289249666035175,-0.01661151461303234,0.9994418621063232,-0.18310546875,-0.06103515625,-0.1220703125,-0.05078125,-0.095458984375,-0.9722900390625,-269.0,-242.0,476.0,102078.0,-6.253000259399414,0,0
194.073048,-0.023866834118962288,-0.014289249666035175,-0.01661151461303234,0.9994418621063232,-0.18310546875,-0.06103515625,-0.1220703125,-0.05078125,-0.095458984375,-0.9722900390625,-269.0,-242.0,476.0,102078.0,-6.253000259399414,0,0
194.080001,-0.023866834118962288,-0.014289249666035175,-0.01661151461303234,0.9994418621063232,0.18310546875,0.0,-0.18310546875,-0.0516357421875,-0.09228515625,-0.9693603515625,-269.0,-242.0,476.0,102078.0,-6.253000259399414,0,0
194.087019,-0.023866476491093636,-0.014301648363471031,-0.016639377921819687,0.9994429349899292,0.06103515625,0.1220703125,-0.18310546875,-0.053955078125,-0.096923828125,-0.9705810546875,-269.0,-242.0,476.0,102078.0,-6.253000259399414,0,0
194.093995,-0.023866476491093636,-0.014301648363471031,-0.016639377921819687,0.9994429349899292,-0.06103515625,0.244140625,-0.06103515625,-0.052001953125,-0.095703125,-0.97216796875,-269.0,-242.0,476.0,102078.0,-6.253000259399414,0,0
194.100996,-0.023866476491093636,-0.014301648363471031,-0.016639377921819687,0.9994429349899292,-0.42724609375,0.1220703125,-0.1220703125,-0.052734375,-0.09326171875,-0.96826171875,-269.0,-242.0,476.0,102078.0,-6.253000259399414,0,0
194.122017,-0.023867519572377205,-0.014273785054683685,-0.016651777550578117,0.9994432330131531,-0.244140625,0.0,-0.1220703125,-0.0504150390625,-0.093505859375,-0.9715576171875,-269.0,-242.0,476.0,102078.0,-6.253000259399414,0,0
194.128998,-0.023867519572377205,-0.014273785054683685,-0.016651777550578117,0.9994432330131531,0.0,-0.06103515625,-0.1220703125,-0.050537109375,-0.09619140625,-0.9705810546875,-270.0,-241.0,476.0,102078.0,-6.255000114440918,0,0
194.135997,-0.023702381178736687,-0.014295773580670357,-0.016639813780784607,0.9994491934776306,-0.30517578125,0.06103515625,0.06103515625,-0.0501708984375,-0.091552734375,-0.9708251953125,-270.0,-241.0,476.0,102078.0,-6.255000114440918,0,0
194.143022,-0.02370270900428295,-0.014283374883234501,-0.01661195047199726,0.9994481205940247,0.0,0.18310546875,0.0,-0.0506591796875,-0.0928955078125,-0.9698486328125,-270.0,-241.0,476.0,102078.0,-6.255000114440918,0,0
194.150002,-0.02370270900428295,-0.014283374883234501,-0.01661195047199726,0.9994481205940247,-0.244140625,0.0,0.06103515625,-0.0489501953125,-0.0955810546875,-0.9725341796875,-270.0,-241.0,476.0,102078.0,-6.255000114440918,0,0
194.157015,-0.02370270900428295,-0.014283374883234501,-0.01661195047199726,0.9994481205940247,0.18310546875,0.06103515625,0.0,-0.0499267578125,-0.0950927734375,-0.9705810546875,-270.0,-241.0,476.0,102078.0,-6.255000114440918,0,0
194.163048,-0.02370270900428295,-0.014283374883234501,-0.01661195047199726,0.9994481205940247,0.18310546875,0.06103515625,0.0,-0.0499267578125,-0.0950927734375,-0.9705810546875,-270.0,-241.0,476.0,102078.0,-6.255000114440918,0,0
194.170001,-0.02370270900428295,-0.014283374883234501,-0.01661195047199726,0.9994481205940247,-0.18310546875,-0.06103515625,0.1220703125,-0.0511474609375,-0.0933837890625,-0.971435546875,-270.0,-241.0,476.0,102078.0,-6.255000114440918,0,0
194.177019,-0.02370270900428295,-0.014283374883234501,-0.01661195047199726,0.9994481205940247,0.0,0.06103515625,-0.06103515625,-0.048828125,-0.0953369140625,-0.972412109375,-270.0,-241.0,476.0,102078.0,-6.255000114440918,0,0
194.183997,-0.02370270900428295,-0.014283374883234501,-0.01661195047199726,0.9994481205940247,-0.1220703125,0.0,0.0,-0.05126953125,-0.095947265625,-0.970703125,-270.0,-241.0,476.0,102078.0,-6.255000114440918,0,0
194.191,-0.02370270900428295,-0.014283374883234501,-0.01661195047199726,0.9994481205940247,-0.18310546875,0.0,-0.244140625,-0.051513671875,-0.0947265625,-0.97265625,-270.0,-241.0,476.0,102078.0,-6.255000114440918,0,0
194.212017,-0.023701338097453117,-0.014323636889457703,-0.016627416014671326,0.999448835849762,-0.3662109375,-0.06103515625,-0.1220703125,-0.052001953125,-0.0970458984375,-0.970947265625,-270.0,-241.0,476.0,102078.0,-6.255000114440918,0,0
194.218997,-0.023702381178736687,-0.014295773580670357,-0.016639813780784607,0.9994491934776306,-0.06103515625,0.18310546875,0.1220703125,-0.0499267578125,-0.0953369140625,-0.970947265625,-270.0,-241.0,476.0,102078.0,-6.255000114440918,0,0
194.225997,-0.023577479645609856,-0.014319134876132011,-0.01662713661789894,0.999470591545105,-0.06103515625,0.1220703125,-0.18310546875,-0.05224609375,-0.0924072265625,-0.9693603515625,-269.0,-241.0,477.0,102078.0,-6.255000114440918,0,0
194.233022,-0.02357780747115612,-0.014306736178696156,-0.016599271446466446,0.999469518661499,-0.18310546875,0.18310546875,-0.18310546875,-0.049560546875,-0.0943603515625,-0.9713134765625,-269.0,-241.0,477.0,102078.0,-6.255000114440918,0,0
194.240001,-0.02357780747115612,-0.014306736178696156,-0.016599271446466446,0.999469518661499,-0.3662109375,0.18310546875,-0.06103515625,-0.05078125,-0.094970703125,-0.9715576171875,-269.0,-241.0,477.0,102078.0,-6.255000114440918,0,0
194.247015,-0.02357885055243969,-0.01427887286990881,-0.016611671075224876,0.9994698762893677,0.1220703125,0.06103515625,-0.1220703125,-0.052490234375,-0.0936279296875,-0.9691162109375,-269.0,-241.0,477.0,102078.0,-6.255000114440918,0,0
194.253996,-0.02357780747115612,-0.014306736178696156,-0.016599271446466446,0.999469518661499,-0.18310546875,0.48828125,0.0,-0.0506591796875,-0.0947265625,-0.9708251953125,-269.0,-241.0,477.0,102078.0,-6.255000114440918,0,0
194.260029,-0.02357780747115612,-0.014306736178696156,-0.016599271446466446,0.999469518661499,-0.18310546875,0.48828125,0.0,-0.0506591796875,-0.0947265625,-0.9708251953125,-269.0,-241.0,477.0,102078.0,-6.255000114440918,0,0
194.267019,-0.02357885055243969,-0.01427887286990881,-0.016611671075224876,0.9994698762893677,-0.06103515625,0.0,-0.1220703125,-0.05078125,-0.0926513671875,-0.970458984375,-269.0,-241.0,477.0,102078.0,-6.255000114440918,0,0
194.273995,-0.02357780747115612,-0.014306736178696156,-0.016599271446466446,0.999469518661499,-0.244140625,0.1220703125,-0.1220703125,-0.0494384765625,-0.0938720703125,-0.970947265625,-269.0,-241.0,477.0,102078.0,-6.255000114440918,0,0
194.280996,-0.02357780747115612,-0.014306736178696156,-0.016599271446466446,0.999469518661499,-0.244140625,0.1220703125,0.0,-0.050048828125,-0.09521484375,-0.9722900390625,-269.0,-241.0,477.0,102078.0,-6.255000114440918,0,0
194.288021,-0.02357885055243969,-0.01427887286990881,-0.016611671075224876,0.9994698762893677,-0.06103515625,0.1220703125,-0.18310546875,-0.0523681640625,-0.09423828125,-0.9698486328125,-269.0,-241.0,477.0,102078.0,-6.255000114440918,0,0
194.295,-0.02357780747115612,-0.014306736178696156,-0.016599271446466446,0.999469518661499,-0.18310546875,0.244140625,-0.3662109375,-0.048828125,-0.0958251953125,-0.973388671875,-269.0,-241.0,477.0,102078.0,-6.255000114440918,0,0
194.302016,-0.02357780747115612,-0.014306736178696156,-0.016599271446466446,0.999469518661499,-0.06103515625,0.244140625,0.0,-0.0494384765625,-0.09619140625,-0.97119140625,-269.0,-241.0,477.0,102078.0,-6.255000114440918,0,0
194.308997,-0.02357780747115612,-0.014306736178696156,-0.016599271446466446,0.999469518661499,-0.244140625,0.06103515625,-0.18310546875,-0.048583984375,-0.094482421875,-0.970703125,-269.0,-241.0,477.0,102078.0,-6.255000114440918,0,0
194.315997,-0.02357780747115612,-0.014306736178696156,-0.016599271446466446,0.999469518661499,0.0,-0.06103515625,0.18310546875,-0.0506591796875,-0.096923828125,-0.9713134765625,-269.0,-241.0,477.0,102078.0,-6.255000114440918,0,0
194.323022,-0.02357676438987255,-0.014334600418806076,-0.016586871817708015,0.9994692206382751,0.1220703125,0.0,-0.1220703125,-0.0484619140625,-0.0977783203125,-0.9715576171875,-269.0,-241.0,477.0,102078.0,-6.254000186920166,0,0
194.330002,-0.02344050444662571,-0.014329766854643822,-0.0165876355022192,0.9994630813598633,-0.06103515625,0.1220703125,0.0,-0.0496826171875,-0.0948486328125,-0.970458984375,-268.0,-240.0,477.0,102078.0,-6.254000186920166,0,0
194.337015,-0.023440176621079445,-0.014342165552079678,-0.016615500673651695,0.9994640946388245,0.0,0.06103515625,0.1220703125,-0.0517578125,-0.09619140625,-0.969482421875,-268.0,-240.0,477.0,102078.0,-6.254000186920166,0,0
194.343996,-0.023440176621079445,-0.014342165552079678,-0.016615500673651695,0.9994640946388245,-0.30517578125,0.0,0.0,-0.051025390625,-0.096923828125,-0.96923828125,-268.0,-240.0,477.0,102078.0,-6.254000186920166,0,0
194.350029,-0.023440176621079445,-0.014342165552079678,-0.016615500673651695,0.9994640946388245,-0.30517578125,0.0,0.0,-0.051025390625,-0.096923828125,-0.96923828125,-268.0,-240.0,477.0,102078.0,-6.254000186920166,0,0
194.357019,-0.023440176621079445,-0.014342165552079678,-0.016615500673651695,0.9994640946388245,-0.244140625,0.18310546875,-0.06103515625,-0.050048828125,-0.0963134765625,-0.970947265625,-268.0,-240.0,477.0,102078.0,-6.254000186920166,0,0
194.363996,-0.023440176621079445,-0.014342165552079678,-0.016615500673651695,0.9994640946388245,-0.06103515625,0.18310546875,0.0,-0.0513916015625,-0.09521484375,-0.970947265625,-268.0,-240.0,477.0,102078.0,-6.254000186920166,0,0
194.384999,-0.023440176621079445,-0.014342165552079678,-0.016615500673651695,0.9994640946388245,-0.06103515625,0.244140625,-0.244140625,-0.0504150390625,-0.09375,-0.97119140625,-268.0,-240.0,477.0,102078.0,-6.254000186920166,0,0
194.392016,-0.023440176621079445,-0.014342165552079678,-0.016615500673651695,0.9994640946388245,-0.06103515625,0.0,-0.18310546875,-0.0518798828125,-0.09375,-0.9688720703125,-268.0,-240.0,477.0,102078.0,-6.254000186920166,0,0
194.398997,-0.023440176621079445,-0.014342165552079678,-0.016615500673651695,0.9994640946388245,-0.1220703125,0.30517578125,-0.06103515625,-0.051513671875,-0.0958251953125,-0.9700927734375,-268.0,-240.0,477.0,102078.0,-6.254000186920166,0,0
194.405997,-0.023440176621079445,-0.014342165552079678,-0.016615500673651695,0.9994640946388245,0.3662109375,0.0,0.06103515625,-0.05224609375,-0.0941162109375,-0.96875,-268.0,-240.0,477.0,102078.0,-6.254000186920166,0,0
194.413022,-0.023441219702363014,-0.014314302243292332,-0.016627900302410126,0.9994644522666931,-0.06103515625,0.1220703125,0.06103515625,-0.052001953125,-0.0948486328125,-0.9698486328125,-268.0,-240.0,477.0,102078.0,-6.254000186920166,0,0
194.420001,-0.023441219702363014,-0.014314302243292332,-0.016627900302410126,0.9994644522666931,0.244140625,0.30517578125,0.06103515625,-0.0513916015625,-0.0968017578125,-0.97021484375,-268.0,-240.0,477.0,102078.0,-6.254000186920166,0,0
194.427015,-0.023441219702363014,-0.014314302243292332,-0.016627900302410126,0.9994644522666931,-0.06103515625,0.18310546875,-0.06103515625,-0.05078125,-0.09375,-0.97021484375,-266.0,-240.0,477.0,102078.0,-6.254000186920166,0,0
194.434,-0.023440176621079445,-0.014342165552079678,-0.016615500673651695,0.9994640946388245,0.0,0.0,-0.06103515625,-0.0498046875,-0.0955810546875,-0.9718017578125,-266.0,-240.0,477.0,102078.0,-6.254000186920166,0,0
194.441,-0.023441219702363014,-0.014314302243292332,-0.016627900302410126,0.9994644522666931,-0.18310546875,0.1220703125,-0.30517578125,-0.05029296875,-0.0938720703125,-0.9730224609375,-266.0,-240.0,477.0,102078.0,-6.254000186920166,0,0
194.447032,-0.023441219702363014,-0.014314302243292332,-0.016627900302410126,0.9994644522666931,-0.18310546875,0.1220703125,-0.30517578125,-0.05029296875,-0.0938720703125,-0.9730224609375,-266.0,-240.0,477.0,102078.0,-6.254000186920166,0,0
194.453996,-0.023441219702363014,-0.014314302243292332,-0.016627900302410126,0.9994644522666931,-0.06103515625,0.1220703125,-0.06103515625,-0.0509033203125,-0.09521484375,-0.9698486328125,-266.0,-240.0,477.0,102078.0,-6.254000186920166,0,0
194.474999,-0.023440176621079445,-0.014342165552079678,-0.016615500673651695,0.9994640946388245,-0.244140625,0.0,-0.1220703125,-0.049072265625,-0.0946044921875,-0.97265625,-266.0,-240.0,477.0,102078.0,-6.254000186920166,0,0
194.482017,-0.023440176621079445,-0.014342165552079678,-0.016615500673651695,0.9994640946388245,-0.06103515625,-0.1220703125,0.0,-0.0521240234375,-0.0953369140625,-0.969970703125,-266.0,-240.0,477.0,102078.0,-6.254000186920166,0,0
194.488999,-0.02343984879553318,-0.014354564249515533,-0.01664336398243904,0.9994651675224304,0.0,0.1220703125,-0.244140625,-0.0523681640625,-0.096923828125,-0.97119140625,-266.0,-240.0,477.0,102078.0,-6.254000186920166,0,0
194.495997,-0.023440176621079445,-0.014342165552079678,-0.016615500673651695,0.9994640946388245,0.0,-0.1220703125,-0.06103515625,-0.050537109375,-0.0941162109375,-0.9698486328125,-266.0,-240.0,477.0,102078.0,-6.254000186920166,0,0
194.503022,-0.023440176621079445,-0.014342165552079678,-0.016615500673651695,0.9994640946388245,-0.18310546875,0.0,0.0,-0.049072265625,-0.0948486328125,-0.970458984375,-266.0,-240.0,477.0,102078.0,-6.254000186920166,0,0
194.510002,-0.02343984879553318,-0.014354564249515533,-0.01664336398243904,0.9994651675224304,0.30517578125,0.06103515625,-0.1220703125,-0.0499267578125,-0.0943603515625,-0.9691162109375,-266.0,-240.0,477.0,102078.0,-6.254000186920166,0,0
194.517015,-0.02343984879553318,-0.014354564249515533,-0.01664336398243904,0.9994651675224304,-0.1220703125,0.06103515625,0.0,-0.0526123046875,-0.0950927734375,-0.968505859375,-266.0,-240.0,477.0,102078.0,-6.254000186920166,0,0
194.523996,-0.02343984879553318,-0.014354564249515533,-0.01664336398243904,0.9994651675224304,-0.244140625,0.18310546875,-0.06103515625,-0.05029296875,-0.0948486328125,-0.97021484375,-266.0,-240.0,477.0,102078.0,-6.252000331878662,0,0
194.530994,-0.02343984879553318,-0.014354564249515533,-0.01664336398243904,0.9994651675224304,-0.3662109375,0.54931640625,0.18310546875,-0.0501708984375,-0.0958251953125,-0.9708251953125,-266.0,-240.0,476.0,102078.0,-6.252000331878662,0,0
194.537023,-0.02343984879553318,-0.014354564249515533,-0.01664336398243904,0.9994651675224304,-0.3662109375,0.54931640625,0.18310546875,-0.0501708984375,-0.0958251953125,-0.9708251953125,-266.0,-240.0,476.0,102078.0,-6.252000331878662,0,0
194.543995,-0.023441219702363014,-0.014314302243292332,-0.016627900302410126,0.9994644522666931,-0.06103515625,0.06103515625,0.0,-0.052734375,-0.093017578125,-0.9710693359375,-266.0,-240.0,476.0,102078.0,-6.252000331878662,0,0
194.550997,-0.023441219702363014,-0.014314302243292332,-0.016627900302410126,0.9994644522666931,-0.18310546875,0.1220703125,0.0,-0.052490234375,-0.0950927734375,-0.97314453125,-266.0,-240.0,476.0,102078.0,-6.252000331878662,0,0
194.55802,-0.02344089187681675,-0.014326700940728188,-0.01665576361119747,0.9994654655456543,-0.06103515625,0.1220703125,-0.244140625,-0.0506591796875,-0.09521484375,-0.970458984375,-266.0,-240.0,476.0,102078.0,-6.252000331878662,0,0
194.564999,-0.023441219702363014,-0.014314302243292332,-0.016627900302410126,0.9994644522666931,-0.06103515625,0.244140625,0.06103515625,-0.0504150390625,-0.091796875,-0.9676513671875,-266.0,-240.0,476.0,102078.0,-6.252000331878662,0,0
194.572017,-0.023440176621079445,-0.014342165552079678,-0.016615500673651695,0.9994640946388245,-0.18310546875,0.0,-0.18310546875,-0.051025390625,-0.0953369140625,-0.9710693359375,-266.0,-240.0,476.0,102078.0,-6.252000331878662,0,0
194.578998,-0.023440176621079445,-0.014342165552079678,-0.016615500673651695,0.9994640946388245,-0.1220703125,0.0,0.06103515625,-0.0501708984375,-0.0960693359375,-0.97265625,-266.0,-240.0,476.0,102078.0,-6.252000331878662,0,0
194.585997,-0.023440176621079445,-0.014342165552079678,-0.016615500673651695,0.9994640946388245,0.0,-0.06103515625,0.0,-0.049072265625,-0.0948486328125,-0.9716796875,-266.0,-240.0,476.0,102078.0,-6.252000331878662,0,0
194.593022,-0.023440176621079445,-0.014342165552079678,-0.016615500673651695,0.9994640946388245,-0.06103515625,0.06103515625,-0.06103515625,-0.050537109375,-0.092529296875,-0.970947265625,-266.0,-240.0,476.0,102078.0,-6.252000331878662,0,0
194.600002,-0.023440176621079445,-0.014342165552079678,-0.016615500673651695,0.9994640946388245,0.18310546875,0.06103515625,-0.18310546875,-0.0506591796875,-0.09765625,-0.9715576171875,-266.0,-240.0,476.0,102078.0,-6.252000331878662,0,0
194.607015,-0.023440176621079445,-0.014342165552079678,-0.016615500673651695,0.9994640946388245,-0.18310546875,0.1220703125,-0.06103515625,-0.05224609375,-0.095703125,-0.9697265625,-266.0,-240.0,476.0,102078.0,-6.252000331878662,0,0
194.613996,-0.023440176621079445,-0.014342165552079678,-0.016615500673651695,0.9994640946388245,-0.18310546875,-0.1220703125,0.0,-0.0513916015625,-0.093994140625,-0.970947265625,-266.0,-240.0,476.0,102078.0,-6.252000331878662,0,0
194.620995,-0.023440176621079445,-0.014342165552079678,-0.016615500673651695,0.9994640946388245,-0.06103515625,0.06103515625,-0.244140625,-0.0494384765625,-0.094482421875,-0.968505859375,-266.0,-240.0,476.0,102078.0,-6.252000331878662,0,0
194.628019,-0.023440176621079445,-0.014342165552079678,-0.016615500673651695,0.9994640946388245,-0.1220703125,0.1220703125,-0.06103515625,-0.049072265625,-0.095703125,-0.9698486328125,-266.0,-239.0,475.0,102078.0,-6.252000331878662,0,0
194.64802,-0.023440176621079445,-0.014342165552079678,-0.016615500673651695,0.9994640946388245,-0.18310546875,0.244140625,-0.244140625,-0.05029296875,-0.0953369140625,-0.97119140625,-266.0,-239.0,475.0,102078.0,-6.252000331878662,0,0
194.655,-0.023440176621079445,-0.014342165552079678,-0.016615500673651695,0.9994640946388245,-0.48828125,0.06103515625,-0.06103515625,-0.049560546875,-0.09423828125,-0.969482421875,-266.0,-239.0,475.0,102078.0,-6.252000331878662,0,0
194.662016,-0.023440176621079445,-0.014342165552079678,-0.016615500673651695,0.9994640946388245,-0.06103515625,0.0,-0.06103515625,-0.050048828125,-0.0950927734375,-0.970703125,-266.0,-239.0,475.0,102078.0,-6.252000331878662,0,0
194.668998,-0.023440176621079445,-0.014342165552079678,-0.016615500673651695,0.9994640946388245,-0.30517578125,-0.1220703125,-0.244140625,-0.0521240234375,-0.0948486328125,-0.9700927734375,-266.0,-239.0,475.0,102078.0,-6.252000331878662,0,0
194.675998,-0.023440176621079445,-0.014342165552079678,-0.016615500673651695,0.9994640946388245,-0.244140625,0.244140625,-0.06103515625,-0.0516357421875,-0.0947265625,-0.970947265625,-266.0,-239.0,475.0,102078.0,-6.252000331878662,0,0
194.683022,-0.023440176621079445,-0.014342165552079678,-0.016615500673651695,0.9994640946388245,-0.06103515625,0.1220703125,0.0,-0.0501708984375,-0.0960693359375,-0.9710693359375,-266.0,-239.0,475.0,102078.0,-6.252000331878662,0,0
194.690001,-0.023441219702363014,-0.014314302243292332,-0.016627900302410126,0.9994644522666931,-0.18310546875,0.1220703125,0.1220703125,-0.0513916015625,-0.09423828125,-0.9691162109375,-266.0,-239.0,475.0,102078.0,-6.252000331878662,0,0
194.697015,-0.023441219702363014,-0.014314302243292332,-0.016627900302410126,0.9994644522666931,-0.06103515625,0.1220703125,-0.244140625,-0.0506591796875,-0.0943603515625,-0.9715576171875,-266.0,-239.0,475.0,102078.0,-6.252000331878662,0,0
194.703996,-0.023440176621079445,-0.014342165552079678,-0.016615500673651695,0.9994640946388245,-0.06103515625,0.3662109375,-0.244140625,-0.0504150390625,-0.09619140625,-0.9710693359375,-266.0,-239.0,475.0,102078.0,-6.252000331878662,0,0
194.710995,-0.02343984879553318,-0.014354564249515533,-0.01664336398243904,0.9994651675224304,0.0,0.18310546875,-0.244140625,-0.0521240234375,-0.094970703125,-0.9720458984375,-266.0,-239.0,475.0,102078.0,-6.252000331878662,0,0
194.71802,-0.02343984879553318,-0.014354564249515533,-0.01664336398243904,0.9994651675224304,-0.06103515625,0.18310546875,-0.30517578125,-0.0496826171875,-0.095458984375,-0.9703369140625,-266.0,-239.0,475.0,102078.0,-6.252000331878662,0,0
194.738021,-0.023372048512101173,-0.01433974876999855,-0.016615884378552437,0.9994610548019409,-0.18310546875,0.0,-0.06103515625,-0.0511474609375,-0.0947265625,-0.9696044921875,-267.0,-239.0,475.0,102078.0,-6.252000331878662,0,0
194.744999,-0.023372048512101173,-0.01433974876999855,-0.016615884378552437,0.9994610548019409,-0.1220703125,-0.06103515625,0.0,-0.05078125,-0.0948486328125,-0.9716796875,-267.0,-239.0,475.0,102078.0,-6.252000331878662,0,0
194.752016,-0.023372048512101173,-0.01433974876999855,-0.016615884378552437,0.9994610548019409,0.0,-0.06103515625,-0.1220703125,-0.051025390625,-0.095458984375,-0.9713134765625,-267.0,-239.0,475.0,102078.0,-6.252000331878662,0,0
194.758998,-0.02337172068655491,-0.014352147467434406,-0.016643747687339783,0.9994620680809021,0.1220703125,0.0,-0.1220703125,-0.0498046875,-0.096923828125,-0.9705810546875,-267.0,-239.0,475.0,102078.0,-6.252000331878662,0,0
194.765997,-0.02337172068655491,-0.014352147467434406,-0.016643747687339783,0.9994620680809021,-0.06103515625,0.18310546875,-0.06103515625,-0.050048828125,-0.0972900390625,-0.9698486328125,-267.0,-239.0,475.0,102078.0,-6.252000331878662,0,0
194.773022,-0.02337172068655491,-0.014352147467434406,-0.016643747687339783,0.9994620680809021,-0.3662109375,-0.18310546875,0.1220703125,-0.050537109375,-0.0947265625,-0.970703125,-267.0,-239.0,475.0,102078.0,-6.252000331878662,0,0
194.780001,-0.02337172068655491,-0.014352147467434406,-0.016643747687339783,0.9994620680809021,-0.06103515625,0.18310546875,-0.1220703125,-0.049560546875,-0.0966796875,-0.9713134765625,-267.0,-239.0,475.0,102078.0,-6.252000331878662,0,0
194.787015,-0.02337172068655491,-0.014352147467434406,-0.016643747687339783,0.9994620680809021,0.06103515625,0.06103515625,-0.1220703125,-0.05029296875,-0.0968017578125,-0.970947265625,-267.0,-239.0,475.0,102078.0,-6.252000331878662,0,0
194.794001,-0.02337172068655491,-0.014352147467434406,-0.016643747687339783,0.9994620680809021,-0.18310546875,-0.1220703125,0.1220703125,-0.0501708984375,-0.0975341796875,-0.97119140625,-267.0,-239.0,475.0,102078.0,-6.252000331878662,0,0
194.800999,-0.02337172068655491,-0.014352147467434406,-0.016643747687339783,0.9994620680809021,0.06103515625,0.06103515625,0.0,-0.05078125,-0.095703125,-0.96923828125,-267.0,-239.0,475.0,102078.0,-6.252000331878662,0,0
194.80802,-0.02337172068655491,-0.014352147467434406,-0.016643747687339783,0.9994620680809021,-0.1220703125,0.18310546875,0.0,-0.0518798828125,-0.094482421875,-0.9697265625,-267.0,-239.0,475.0,102078.0,-6.252000331878662,0,0
194.815003,-0.02337172068655491,-0.014352147467434406,-0.016643747687339783,0.9994620680809021,-0.18310546875,0.1220703125,-0.1220703125,-0.0517578125,-0.093994140625,-0.9722900390625,-267.0,-239.0,475.0,102078.0,-6.252000331878662,0,0
194.821036,-0.02337172068655491,-0.014352147467434406,-0.016643747687339783,0.9994620680809021,-0.18310546875,0.1220703125,-0.1220703125,-0.0517578125,-0.093994140625,-0.9722900390625,-267.0,-239.0,475.0,102078.0,-6.252000331878662,0,0
194.82802,-0.023206552490592003,-0.014374135993421078,-0.016631780192255974,0.9994680881500244,-0.06103515625,0.06103515625,-0.30517578125,-0.0509033203125,-0.095703125,-0.970947265625,-267.0,-237.0,475.0,102078.0,-6.253000259399414,0,0
194.834999,-0.023206552490592003,-0.014374135993421078,-0.016631780192255974,0.9994680881500244,0.1220703125,0.0,-0.18310546875,-0.0496826171875,-0.0953369140625,-0.96826171875,-267.0,-237.0,475.0,102078.0,-6.253000259399414,0,0
194.842017,-0.023207267746329308,-0.014358672313392162,-0.01667204312980175,0.9994694590568542,0.06103515625,0.06103515625,-0.06103515625,-0.0511474609375,-0.0965576171875,-0.9720458984375,-267.0,-237.0,475.0,102078.0,-6.253000259399414,0,0
194.848997,-0.023207267746329308,-0.014358672313392162,-0.01667204312980175,0.9994694590568542,-0.18310546875,0.18310546875,-0.1220703125,-0.0517578125,-0.095947265625,-0.9693603515625,-267.0,-237.0,475.0,102078.0,-6.253000259399414,0,0
194.855997,-0.023207267746329308,-0.014358672313392162,-0.01667204312980175,0.9994694590568542,-0.1220703125,0.1220703125,-0.18310546875,-0.0499267578125,-0.093994140625,-0.96923828125,-267.0,-237.0,475.0,102078.0,-6.253000259399414,0,0
194.863022,-0.023206224665045738,-0.014386535622179508,-0.01665964536368847,0.9994691014289856,-0.244140625,0.06103515625,0.0,-0.049072265625,-0.0946044921875,-0.9710693359375,-267.0,-237.0,475.0,102078.0,-6.253000259399414,0,0
194.870001,-0.023206552490592003,-0.014374135993421078,-0.016631780192255974,0.9994680881500244,-0.30517578125,-0.06103515625,0.1220703125,-0.0509033203125,-0.094482421875,-0.9705810546875,-267.0,-237.0,475.0,102078.0,-6.253000259399414,0,0
194.877015,-0.023206552490592003,-0.014374135993421078,-0.016631780192255974,0.9994680881500244,-0.18310546875,0.06103515625,-0.244140625,-0.050537109375,-0.09326171875,-0.97119140625,-267.0,-237.0,475.0,102078.0,-6.253000259399414,0,0
194.883997,-0.023206552490592003,-0.014374135993421078,-0.016631780192255974,0.9994680881500244,-0.1220703125,0.18310546875,-0.3662109375,-0.04931640625,-0.09375,-0.97216796875,-267.0,-237.0,475.0,102078.0,-6.253000259399414,0,0
194.890994,-0.023206552490592003,-0.014374135993421078,-0.016631780192255974,0.9994680881500244,-0.06103515625,0.0,-0.06103515625,-0.051513671875,-0.0947265625,-0.9697265625,-267.0,-237.0,475.0,102078.0,-6.253000259399414,0,0
194.911037,-0.023207595571875572,-0.014346272684633732,-0.016644179821014404,0.9994683861732483,-0.42724609375,0.1220703125,0.0,-0.051025390625,-0.0928955078125,-0.971435546875,-267.0,-237.0,475.0,102078.0,-6.253000259399414,0,0
194.91802,-0.023206552490592003,-0.014374135993421078,-0.016631780192255974,0.9994680881500244,0.0,-0.06103515625,0.18310546875,-0.049072265625,-0.09716796875,-0.9713134765625,-267.0,-237.0,475.0,102078.0,-6.253000259399414,0,0
194.925,-0.023207595571875572,-0.014346272684633732,-0.016644179821014404,0.9994683861732483,-0.06103515625,0.06103515625,-0.30517578125,-0.052490234375,-0.0955810546875,-0.9700927734375,-267.0,-237.0,475.0,102078.0,-6.254000186920166,0,0
194.932017,-0.023014593869447708,-0.014367218129336834,-0.01663188450038433,0.9994867444038391,-0.06103515625,0.0,0.1220703125,-0.049560546875,-0.0966796875,-0.9708251953125,-267.0,-237.0,475.0,102078.0,-6.254000186920166,0,0
194.938998,-0.023014593869447708,-0.014367218129336834,-0.01663188450038433,0.9994867444038391,-0.06103515625,-0.18310546875,-0.18310546875,-0.051513671875,-0.094970703125,-0.970458984375,-267.0,-237.0,475.0,102078.0,-6.254000186920166,0,0
194.945997,-0.023015636950731277,-0.014339353889226913,-0.01664428412914276,0.999487042427063,-0.30517578125,0.06103515625,-0.244140625,-0.0531005859375,-0.0953369140625,-0.9710693359375,-267.0,-237.0,475.0,102078.0,-6.254000186920166,0,0
194.953022,-0.023015636950731277,-0.014339353889226913,-0.01664428412914276,0.999487042427063,0.18310546875,0.18310546875,-0.06103515625,-0.0496826171875,-0.09423828125,-0.972412109375,-267.0,-237.0,475.0,102078.0,-6.254000186920166,0,0
194.960001,-0.023015636950731277,-0.014339353889226913,-0.01664428412914276,0.999487042427063,-0.06103515625,0.1220703125,-0.244140625,-0.0506591796875,-0.093505859375,-0.9716796875,-267.0,-237.0,475.0,102078.0,-6.254000186920166,0,0
194.967015,-0.023015636950731277,-0.014339353889226913,-0.01664428412914276,0.999487042427063,-0.1220703125,0.06103515625,-0.1220703125,-0.0537109375,-0.0950927734375,-0.9716796875,-267.0,-237.0,475.0,102078.0,-6.254000186920166,0,0
194.973996,-0.023015636950731277,-0.014339353889226913,-0.01664428412914276,0.999487042427063,-0.42724609375,0.1220703125,0.06103515625,-0.049560546875,-0.0947265625,-0.9703369140625,-267.0,-237.0,475.0,102078.0,-6.254000186920166,0,0
194.980994,-0.023015636950731277,-0.014339353889226913,-0.01664428412914276,0.999487042427063,-0.1220703125,0.1220703125,-0.42724609375,-0.049560546875,-0.0948486328125,-0.9693603515625,-267.0,-237.0,475.0,102078.0,-6.254000186920166,0,0
195.002019,-0.023015964776277542,-0.014326955191791058,-0.016616420820355415,0.9994860291481018,-0.18310546875,-0.1220703125,-0.06103515625,-0.050048828125,-0.0953369140625,-0.970703125,-267.0,-237.0,475.0,102078.0,-6.254000186920166,0,0
195.008047,-0.023015964776277542,-0.014326955191791058,-0.016616420820355415,0.9994860291481018,-0.18310546875,-0.1220703125,-0.06103515625,-0.050048828125,-0.0953369140625,-0.970703125,-267.0,-237.0,475.0,102078.0,-6.254000186920166,0,0
195.014999,-0.023015964776277542,-0.014326955191791058,-0.016616420820355415,0.9994860291481018,0.3662109375,0.0,0.06103515625,-0.051025390625,-0.0947265625,-0.970458984375,-267.0,-237.0,475.0,102078.0,-6.254000186920166,0,0
195.022016,-0.023015636950731277,-0.014339353889226913,-0.01664428412914276,0.999487042427063,0.06103515625,0.06103515625,-0.06103515625,-0.050048828125,-0.096923828125,-0.9700927734375,-267.0,-238.0,475.0,102078.0,-6.254000186920166,0,0
195.028998,-0.02290620096027851,-0.014363427646458149,-0.01663297601044178,0.999468207359314,-0.06103515625,0.18310546875,-0.18310546875,-0.0517578125,-0.096435546875,-0.9715576171875,-267.0,-238.0,475.0,102078.0,-6.254000186920166,0,0
195.035997,-0.02290620096027851,-0.014363427646458149,-0.01663297601044178,0.999468207359314,0.0,0.0,0.06103515625,-0.051025390625,-0.09423828125,-0.9710693359375,-267.0,-238.0,475.0,102078.0,-6.254000186920166,0,0
195.043022,-0.022906528785824776,-0.014351028949022293,-0.016605112701654434,0.999467134475708,-0.18310546875,-0.06103515625,-0.1220703125,-0.050537109375,-0.0943603515625,-0.970947265625,-267.0,-238.0,475.0,102078.0,-6.254000186920166,0,0
195.050001,-0.022906528785824776,-0.014351028949022293,-0.016605112701654434,0.999467134475708,-0.06103515625,0.06103515625,-0.30517578125,-0.0511474609375,-0.0963134765625,-0.971435546875,-267.0,-238.0,475.0,102078.0,-6.254000186920166,0,0
195.057015,-0.02290620096027851,-0.014363427646458149,-0.01663297601044178,0.999468207359314,-0.244140625,0.244140625,0.0,-0.0511474609375,-0.0948486328125,-0.9708251953125,-267.0,-238.0,475.0,102078.0,-6.254000186920166,0,0
195.064,-0.02290620096027851,-0.014363427646458149,-0.01663297601044178,0.999468207359314,-0.48828125,0.244140625,-0.18310546875,-0.051025390625,-0.0972900390625,-0.970703125,-267.0,-238.0,475.0,102078.0,-6.254000186920166,0,0
195.070999,-0.02290724404156208,-0.014335563406348228,-0.01664537563920021,0.9994685053825378,-0.244140625,-0.06103515625,0.18310546875,-0.0526123046875,-0.093505859375,-0.969970703125,-267.0,-238.0,475.0,102078.0,-6.254000186920166,0,0
195.078021,-0.02290620096027851,-0.014363427646458149,-0.01663297601044178,0.999468207359314,-0.48828125,0.1220703125,-0.244140625,-0.050537109375,-0.09375,-0.969482421875,-267.0,-238.0,475.0,102078.0,-6.253000259399414,0,0
195.085003,-0.02290724404156208,-0.014335563406348228,-0.01664537563920021,0.9994685053825378,-0.06103515625,0.244140625,-0.30517578125,-0.0516357421875,-0.095947265625,-0.9698486328125,-267.0,-238.0,475.0,102078.0,-6.253000259399414,0,0
195.092018,-0.02290724404156208,-0.014335563406348228,-0.01664537563920021,0.9994685053825378,-0.1220703125,0.0,0.30517578125,-0.0518798828125,-0.0943603515625,-0.971923828125,-267.0,-238.0,475.0,102078.0,-6.253000259399414,0,0
195.098051,-0.02290724404156208,-0.014335563406348228,-0.01664537563920021,0.9994685053825378,-0.1220703125,0.0,0.30517578125,-0.0518798828125,-0.0943603515625,-0.971923828125,-267.0,-238.0,475.0,102078.0,-6.253000259399414,0,0
195.104999,-0.022879378870129585,-0.014334520325064659,-0.016645044088363647,0.9994809031486511,0.0,0.18310546875,0.0,-0.0511474609375,-0.0941162109375,-0.9700927734375,-267.0,-238.0,475.0,102078.0,-6.253000259399414,0,0
195.112016,-0.02290724404156208,-0.014335563406348228,-0.01664537563920021,0.9994685053825378,0.06103515625,-0.06103515625,0.1220703125,-0.0509033203125,-0.09521484375,-0.9700927734375,-267.0,-238.0,475.0,102078.0,-6.253000259399414,0,0
195.118997,-0.02290724404156208,-0.014335563406348228,-0.01664537563920021,0.9994685053825378,-0.18310546875,0.0,-0.244140625,-0.0499267578125,-0.09619140625,-0.9703369140625,-267.0,-238.0,475.0,102078.0,-6.253000259399414,0,0
195.125997,-0.02278338372707367,-0.014331062324345112,-0.016645096242427826,0.9994902610778809,0.0,-0.06103515625,0.1220703125,-0.0487060546875,-0.0955810546875,-0.9705810546875,-267.0,-238.0,474.0,102078.0,-6.253000259399414,0,0
195.133022,-0.02278338372707367,-0.014331062324345112,-0.016645096242427826,0.9994902610778809,-0.06103515625,0.1220703125,-0.06103515625,-0.0504150390625,-0.093505859375,-0.9696044921875,-267.0,-238.0,474.0,102078.0,-6.253000259399414,0,0
195.140001,-0.022783711552619934,-0.014318663626909256,-0.01661723293364048,0.9994891881942749,0.06103515625,0.0,-0.1220703125,-0.0504150390625,-0.0938720703125,-0.9718017578125,-267.0,-238.0,474.0,102078.0,-6.253000259399414,0,0
195.147015,-0.022783711552619934,-0.014318663626909256,-0.01661723293364048,0.9994891881942749,-0.06103515625,0.244140625,0.06103515625,-0.0518798828125,-0.0946044921875,-0.9708251953125,-267.0,-238.0,474.0,102078.0,-6.253000259399414,0,0
195.153996,-0.022783711552619934,-0.014318663626909256,-0.01661723293364048,0.9994891881942749,-0.1220703125,-0.06103515625,-0.18310546875,-0.050537109375,-0.0946044921875,-0.970947265625,-267.0,-238.0,474.0,102078.0,-6.253000259399414,0,0
195.175003,-0.0227823406457901,-0.014358925633132458,-0.016632696613669395,0.9994899034500122,-0.244140625,0.06103515625,-0.06103515625,-0.05029296875,-0.0977783203125,-0.9718017578125,-267.0,-238.0,474.0,102078.0,-6.252000331878662,0,0
195.182018,-0.0227823406457901,-0.014358925633132458,-0.016632696613669395,0.9994899034500122,0.1220703125,0.06103515625,0.0,-0.0491943359375,-0.0946044921875,-0.97021484375,-267.0,-238.0,474.0,102078.0,-6.252000331878662,0,0
195.188997,-0.0227823406457901,-0.014358925633132458,-0.016632696613669395,0.9994899034500122,-0.30517578125,0.1220703125,0.0,-0.05078125,-0.0965576171875,-0.9708251953125,-267.0,-238.0,474.0,102078.0,-6.252000331878662,0,0
195.195025,-0.0227823406457901,-0.014358925633132458,-0.016632696613669395,0.9994899034500122,-0.30517578125,0.1220703125,0.0,-0.05078125,-0.0965576171875,-0.9708251953125,-267.0,-238.0,474.0,102078.0,-6.252000331878662,0,0
195.202017,-0.02278129756450653,-0.014386789873242378,-0.016620296984910965,0.9994896054267883,-0.06103515625,0.0,-0.244140625,-0.0506591796875,-0.0938720703125,-0.9698486328125,-267.0,-238.0,474.0,102078.0,-6.252000331878662,0,0
195.208997,-0.02278129756450653,-0.014386789873242378,-0.016620296984910965,0.9994896054267883,-0.06103515625,0.06103515625,0.06103515625,-0.050537109375,-0.095947265625,-0.971923828125,-267.0,-238.0,474.0,102078.0,-6.252000331878662,0,0
195.215997,-0.0227823406457901,-0.014358925633132458,-0.016632696613669395,0.9994899034500122,0.06103515625,0.18310546875,0.06103515625,-0.0523681640625,-0.0946044921875,-0.9705810546875,-267.0,-238.0,474.0,102078.0,-6.252000331878662,0,0
195.223022,-0.0227823406457901,-0.014358925633132458,-0.016632696613669395,0.9994899034500122,0.0,0.1220703125,0.0,-0.0517578125,-0.09619140625,-0.9713134765625,-267.0,-237.0,474.0,102078.0,-6.252000331878662,0,0
195.230002,-0.02264608070254326,-0.014354092068970203,-0.01663346029818058,0.9994837641716003,-0.1220703125,0.18310546875,0.30517578125,-0.0528564453125,-0.0970458984375,-0.9697265625,-267.0,-237.0,474.0,102078.0,-6.252000331878662,0,0
195.237015,-0.02264608070254326,-0.014354092068970203,-0.01663346029818058,0.9994837641716003,-0.48828125,0.06103515625,-0.3662109375,-0.048583984375,-0.0947265625,-0.971435546875,-267.0,-237.0,474.0,102078.0,-6.252000331878662,0,0
195.25802,-0.02264608070254326,-0.014354092068970203,-0.01663346029818058,0.9994837641716003,0.06103515625,0.18310546875,-0.06103515625,-0.052490234375,-0.094970703125,-0.9720458984375,-267.0,-237.0,474.0,102078.0,-6.252000331878662,0,0
195.265004,-0.02264608070254326,-0.014354092068970203,-0.01663346029818058,0.9994837641716003,-0.48828125,0.18310546875,-0.1220703125,-0.05126953125,-0.0963134765625,-0.9700927734375,-267.0,-237.0,474.0,102078.0,-6.252000331878662,0,0
195.272019,-0.02264608070254326,-0.014354092068970203,-0.01663346029818058,0.9994837641716003,0.0,0.1220703125,-0.30517578125,-0.0511474609375,-0.093505859375,-0.9700927734375,-267.0,-237.0,474.0,102078.0,-6.252000331878662,0,0
195.278997,-0.02264503762125969,-0.014381956309080124,-0.01662106066942215,0.9994834661483765,-0.06103515625,-0.06103515625,-0.244140625,-0.0472412109375,-0.0946044921875,-0.97119140625,-267.0,-237.0,474.0,102078.0,-6.252000331878662,0,0
195.285025,-0.02264503762125969,-0.014381956309080124,-0.01662106066942215,0.9994834661483765,-0.06103515625,-0.06103515625,-0.244140625,-0.0472412109375,-0.0946044921875,-0.97119140625,-267.0,-237.0,474.0,102078.0,-6.252000331878662,0,0
195.292017,-0.022645365446805954,-0.014369557611644268,-0.016593197360634804,0.9994823932647705,-0.1220703125,0.06103515625,-0.1220703125,-0.051513671875,-0.093994140625,-0.968994140625,-267.0,-237.0,474.0,102078.0,-6.252000331878662,0,0
195.298997,-0.022645365446805954,-0.014369557611644268,-0.016593197360634804,0.9994823932647705,-0.18310546875,-0.06103515625,0.06103515625,-0.05126953125,-0.0948486328125,-0.969482421875,-267.0,-237.0,474.0,102078.0,-6.252000331878662,0,0
195.305997,-0.022645365446805954,-0.014369557611644268,-0.016593197360634804,0.9994823932647705,-0.06103515625,-0.06103515625,0.06103515625,-0.050537109375,-0.094482421875,-0.9705810546875,-267.0,-237.0,474.0,102078.0,-6.252000331878662,0,0
