Time stamp(sec),quaternion_0,quaternion_1,quaternion_2,quaternion_3,roll_angular_rate,pitch_angular_rate,yaw_angular_rate,acc_X,acc_Y,acc_Z,mag_X,mag_Y,mag_Z,pressure,altitude
194.387999,0.528594970703125,-0.44793701171875,0.583831787109375,0.423095703125,0.42724609375,1.220703125,-0.06103515625,-1.0003662109375,0.0078125,-0.0574951171875,209.0,32.0,144.0,102169.0,-7.00700044631958,0,0
194.394994,0.528594970703125,-0.44793701171875,0.583831787109375,0.423126220703125,-0.18310546875,0.8544921875,0.244140625,-0.9913330078125,0.028076171875,-0.0888671875,209.0,32.0,144.0,102169.0,-7.00700044631958,0,0
194.401994,0.528594970703125,-0.44793701171875,0.583831787109375,0.423095703125,0.244140625,-0.244140625,-1.15966796875,-0.987060546875,0.03955078125,-0.090576171875,209.0,32.0,144.0,102169.0,-7.00700044631958,0,0
194.408997,0.528594970703125,-0.447967529296875,0.583831787109375,0.423095703125,0.48828125,0.30517578125,0.244140625,-0.9952392578125,0.014892578125,-0.085693359375,209.0,32.0,144.0,102169.0,-7.00700044631958,0,0
194.415997,0.528564453125,-0.447967529296875,0.5838623046875,0.423095703125,0.244140625,0.18310546875,-0.06103515625,-0.993896484375,0.0218505859375,-0.0909423828125,209.0,32.0,144.0,102169.0,-7.00700044631958,0,0
194.422996,0.528594970703125,-0.447967529296875,0.583831787109375,0.423095703125,0.3662109375,-0.06103515625,-0.1220703125,-0.994873046875,0.0191650390625,-0.07763671875,210.0,33.0,145.0,102169.0,-7.00700044631958,0,0
194.429995,0.52874755859375,-0.447784423828125,0.583953857421875,0.422943115234375,-1.03759765625,-0.42724609375,0.3662109375,-0.99853515625,0.013427734375,-0.088623046875,210.0,33.0,145.0,102169.0,-7.00700044631958,0,0
194.436995,0.528717041015625,-0.44775390625,0.583953857421875,0.4229736328125,0.06103515625,-0.3662109375,-0.48828125,-0.99072265625,0.0301513671875,-0.078857421875,210.0,33.0,145.0,102169.0,-7.00700044631958,0,0
194.443027,0.528717041015625,-0.44775390625,0.583953857421875,0.4229736328125,0.06103515625,-0.3662109375,-0.48828125,-0.99072265625,0.0301513671875,-0.078857421875,210.0,33.0,145.0,102169.0,-7.00700044631958,0,0
194.449996,0.52874755859375,-0.44775390625,0.583953857421875,0.422943115234375,0.06103515625,-0.18310546875,-0.244140625,-0.99267578125,0.0235595703125,-0.0908203125,210.0,33.0,145.0,102169.0,-7.00700044631958,0,0
194.456995,0.52874755859375,-0.447723388671875,0.58392333984375,0.423004150390625,0.244140625,0.54931640625,-0.6103515625,-0.9892578125,0.030029296875,-0.070556640625,210.0,33.0,145.0,102169.0,-7.00700044631958,0,0
194.463995,0.528778076171875,-0.447723388671875,0.583892822265625,0.423004150390625,-0.30517578125,-1.3427734375,-0.6103515625,-0.98779296875,0.0377197265625,-0.0880126953125,210.0,33.0,145.0,102169.0,-7.00700044631958,0,0
194.484993,0.528839111328125,-0.44769287109375,0.5838623046875,0.42303466796875,-0.3662109375,0.18310546875,0.06103515625,-0.99072265625,0.0322265625,-0.0826416015625,210.0,33.0,145.0,102169.0,-7.00700044631958,0,0
194.491993,0.528839111328125,-0.447662353515625,0.583831787109375,0.423065185546875,0.1220703125,0.6103515625,-0.732421875,-0.9881591796875,0.0343017578125,-0.06884765625,210.0,33.0,145.0,102169.0,-7.00700044631958,0,0
194.498993,0.52886962890625,-0.447662353515625,0.583831787109375,0.423065185546875,-0.67138671875,0.244140625,0.18310546875,-0.996337890625,0.022216796875,-0.080322265625,210.0,33.0,145.0,102169.0,-7.00700044631958,0,0
194.505996,0.528839111328125,-0.447662353515625,0.5838623046875,0.42303466796875,0.30517578125,0.06103515625,0.06103515625,-0.9967041015625,0.0167236328125,-0.088623046875,210.0,33.0,145.0,102169.0,-7.00700044631958,0,0
194.512996,0.528839111328125,-0.44769287109375,0.5838623046875,0.42303466796875,-0.06103515625,-0.30517578125,-0.06103515625,-0.9971923828125,0.01611328125,-0.08447265625,210.0,33.0,145.0,102169.0,-7.00700044631958,0,0
194.519995,0.52886962890625,-0.44769287109375,0.583831787109375,0.42303466796875,-0.244140625,-1.3427734375,0.18310546875,-0.9951171875,0.0198974609375,-0.08984375,210.0,33.0,145.0,102169.0,-7.00700044631958,0,0
194.526995,0.52911376953125,-0.44732666015625,0.584075927734375,0.422760009765625,0.06103515625,-0.18310546875,-0.1220703125,-0.9949951171875,0.0235595703125,-0.0736083984375,211.0,33.0,146.0,102169.0,-7.006000518798828,0,0
194.533027,0.52911376953125,-0.44732666015625,0.584075927734375,0.422760009765625,0.06103515625,-0.18310546875,-0.1220703125,-0.9949951171875,0.0235595703125,-0.0736083984375,211.0,33.0,146.0,102169.0,-7.006000518798828,0,0
194.539996,0.529052734375,-0.44732666015625,0.5841064453125,0.422760009765625,-0.8544921875,0.30517578125,-0.6103515625,-0.9932861328125,0.0255126953125,-0.0855712890625,211.0,33.0,146.0,102169.0,-7.006000518798828,0,0
194.546995,0.529052734375,-0.447357177734375,0.584136962890625,0.422760009765625,-0.67138671875,-0.18310546875,-0.30517578125,-0.9971923828125,0.0167236328125,-0.0926513671875,211.0,33.0,146.0,102169.0,-7.006000518798828,0,0
194.553995,0.529052734375,-0.4473876953125,0.584136962890625,0.422698974609375,-0.18310546875,-0.244140625,-0.30517578125,-0.9996337890625,0.01708984375,-0.0855712890625,211.0,33.0,146.0,102169.0,-7.006000518798828,0,0
194.574993,0.529083251953125,-0.447357177734375,0.5841064453125,0.422760009765625,-0.18310546875,0.42724609375,0.06103515625,-0.991455078125,0.021728515625,-0.0767822265625,211.0,33.0,146.0,102169.0,-7.006000518798828,0,0
194.581993,0.529083251953125,-0.447357177734375,0.5841064453125,0.422760009765625,-0.42724609375,0.6103515625,-0.48828125,-0.995361328125,0.0208740234375,-0.081787109375,211.0,33.0,146.0,102169.0,-7.006000518798828,0,0
194.588993,0.529052734375,-0.4473876953125,0.5841064453125,0.422698974609375,-0.1220703125,0.244140625,-0.244140625,-0.9971923828125,0.019775390625,-0.08984375,211.0,33.0,146.0,102169.0,-7.006000518798828,0,0
194.595996,0.529052734375,-0.4473876953125,0.5841064453125,0.4227294921875,0.06103515625,-0.3662109375,0.3662109375,-0.9964599609375,0.0211181640625,-0.0792236328125,211.0,33.0,146.0,102169.0,-7.006000518798828,0,0
194.602996,0.529083251953125,-0.447357177734375,0.5841064453125,0.422760009765625,-0.54931640625,0.1220703125,-0.18310546875,-0.9886474609375,0.0299072265625,-0.0687255859375,211.0,33.0,146.0,102169.0,-7.006000518798828,0,0
194.609995,0.529083251953125,-0.44732666015625,0.584075927734375,0.42279052734375,-0.06103515625,0.8544921875,-0.30517578125,-0.9930419921875,0.02197265625,-0.076904296875,211.0,33.0,146.0,102169.0,-7.006000518798828,0,0
194.616995,0.529083251953125,-0.44732666015625,0.5841064453125,0.422760009765625,-0.1220703125,0.732421875,-0.06103515625,-0.9964599609375,0.01611328125,-0.0887451171875,211.0,33.0,146.0,102169.0,-7.006000518798828,0,0
194.623994,0.529052734375,-0.447357177734375,0.5841064453125,0.422760009765625,-0.1220703125,0.1220703125,-0.54931640625,-0.994873046875,0.0164794921875,-0.0877685546875,211.0,32.0,146.0,102169.0,-7.006000518798828,0,0
194.630027,0.529052734375,-0.447357177734375,0.5841064453125,0.422760009765625,-0.1220703125,0.1220703125,-0.54931640625,-0.994873046875,0.0164794921875,-0.0877685546875,211.0,32.0,146.0,102169.0,-7.006000518798828,0,0
194.636995,0.529296875,-0.447052001953125,0.584381103515625,0.42242431640625,-0.42724609375,-0.91552734375,0.6103515625,-0.9954833984375,0.0166015625,-0.0931396484375,211.0,32.0,146.0,102169.0,-7.006000518798828,0,0
194.643995,0.5294189453125,-0.44696044921875,0.58428955078125,0.4224853515625,0.48828125,0.18310546875,-0.18310546875,-0.99609375,0.020751953125,-0.072998046875,211.0,32.0,146.0,102169.0,-7.006000518798828,0,0
194.650994,0.52935791015625,-0.446990966796875,0.5843505859375,0.422454833984375,0.1220703125,1.64794921875,0.42724609375,-0.9957275390625,0.0208740234375,-0.091064453125,211.0,32.0,146.0,102169.0,-7.006000518798828,0,0
194.657995,0.529327392578125,-0.44696044921875,0.584381103515625,0.422454833984375,-0.42724609375,-0.1220703125,-0.30517578125,-0.9923095703125,0.0291748046875,-0.0843505859375,211.0,32.0,146.0,102169.0,-7.006000518798828,0,0
194.664993,0.529296875,-0.447021484375,0.584320068359375,0.422515869140625,-1.0986328125,0.6103515625,-0.30517578125,-0.99755859375,0.016845703125,-0.0714111328125,211.0,32.0,146.0,102169.0,-7.006000518798828,0,0
194.671993,0.529266357421875,-0.447021484375,0.5843505859375,0.4224853515625,-0.1220703125,-0.48828125,0.67138671875,-0.9951171875,0.0194091796875,-0.09765625,211.0,32.0,146.0,102169.0,-7.006000518798828,0,0
194.678997,0.52923583984375,-0.447021484375,0.584381103515625,0.422515869140625,0.18310546875,-0.54931640625,-0.732421875,-0.988525390625,0.0379638671875,-0.0863037109375,211.0,32.0,146.0,102169.0,-7.006000518798828,0,0
194.685997,0.529327392578125,-0.447021484375,0.584320068359375,0.422515869140625,-0.30517578125,-0.18310546875,0.42724609375,-0.995361328125,0.02001953125,-0.082275390625,211.0,32.0,146.0,102169.0,-7.006000518798828,0,0
194.692996,0.529327392578125,-0.446990966796875,0.584320068359375,0.4224853515625,0.67138671875,-1.03759765625,0.30517578125,-0.9942626953125,0.0196533203125,-0.09228515625,211.0,32.0,146.0,102169.0,-7.006000518798828,0,0
194.699995,0.529266357421875,-0.44708251953125,0.5843505859375,0.4224853515625,0.67138671875,1.220703125,-0.67138671875,-0.986572265625,0.0340576171875,-0.0716552734375,211.0,32.0,146.0,102169.0,-7.006000518798828,0,0
194.706995,0.52923583984375,-0.44708251953125,0.584381103515625,0.422454833984375,-0.42724609375,0.79345703125,-0.06103515625,-0.991943359375,0.0220947265625,-0.0972900390625,211.0,32.0,146.0,102169.0,-7.006000518798828,0,0
194.713994,0.529205322265625,-0.44708251953125,0.58441162109375,0.422454833984375,-0.8544921875,-0.06103515625,-0.79345703125,-0.986083984375,0.0386962890625,-0.0950927734375,211.0,32.0,146.0,102169.0,-7.006000518798828,0,0
194.720027,0.529205322265625,-0.44708251953125,0.58441162109375,0.422454833984375,-0.8544921875,-0.06103515625,-0.79345703125,-0.986083984375,0.0386962890625,-0.0950927734375,211.0,32.0,146.0,102169.0,-7.006000518798828,0,0
194.726995,0.529541015625,-0.446685791015625,0.584625244140625,0.422119140625,0.8544921875,-1.15966796875,1.03759765625,-0.9984130859375,0.011962890625,-0.0941162109375,212.0,32.0,146.0,102169.0,-7.00700044631958,0,0
194.747999,0.529510498046875,-0.44659423828125,0.58465576171875,0.4222412109375,-0.8544921875,0.79345703125,-0.732421875,-0.990478515625,0.0390625,-0.094482421875,212.0,32.0,146.0,102169.0,-7.00700044631958,0,0
194.754994,0.52947998046875,-0.44671630859375,0.5845947265625,0.422271728515625,-2.01416015625,0.1220703125,-0.67138671875,-0.997314453125,0.0260009765625,-0.0869140625,212.0,32.0,146.0,102169.0,-7.00700044631958,0,0
194.761994,0.529449462890625,-0.446746826171875,0.5845947265625,0.422210693359375,-0.30517578125,-0.67138671875,-0.244140625,-0.9913330078125,0.0279541015625,-0.0933837890625,212.0,32.0,146.0,102169.0,-7.00700044631958,0,0
194.768997,0.529510498046875,-0.446746826171875,0.5845947265625,0.42218017578125,1.03759765625,-1.03759765625,-0.1220703125,-0.9984130859375,0.012939453125,-0.090087890625,212.0,32.0,146.0,102169.0,-7.00700044631958,0,0
194.775996,0.529541015625,-0.44671630859375,0.584564208984375,0.42218017578125,0.42724609375,-0.244140625,0.67138671875,-0.99658203125,0.01416015625,-0.075927734375,212.0,32.0,146.0,102169.0,-7.00700044631958,0,0
194.782996,0.529541015625,-0.4466552734375,0.5845947265625,0.422271728515625,0.54931640625,1.03759765625,0.0,-0.990966796875,0.0406494140625,-0.0760498046875,212.0,32.0,146.0,102169.0,-7.00700044631958,0,0
194.789995,0.529510498046875,-0.4466552734375,0.58453369140625,0.422332763671875,-0.732421875,0.8544921875,-0.9765625,-0.988037109375,0.030517578125,-0.0599365234375,212.0,32.0,146.0,102169.0,-7.00700044631958,0,0
194.796995,0.529449462890625,-0.44671630859375,0.584564208984375,0.422332763671875,-1.40380859375,1.64794921875,0.1220703125,-0.999755859375,0.0166015625,-0.09228515625,212.0,32.0,146.0,102169.0,-7.00700044631958,0,0
194.803994,0.5294189453125,-0.446746826171875,0.5845947265625,0.422271728515625,0.244140625,-1.03759765625,-0.79345703125,-0.9962158203125,0.0203857421875,-0.100341796875,212.0,32.0,146.0,102169.0,-7.00700044631958,0,0
194.810995,0.529449462890625,-0.446746826171875,0.584564208984375,0.422271728515625,-0.1220703125,-0.91552734375,0.79345703125,-0.9998779296875,0.0089111328125,-0.0821533203125,212.0,32.0,146.0,102169.0,-7.00700044631958,0,0
194.817026,0.529449462890625,-0.446746826171875,0.584564208984375,0.422271728515625,-0.1220703125,-0.91552734375,0.79345703125,-0.9998779296875,0.0089111328125,-0.0821533203125,212.0,32.0,146.0,102169.0,-7.00700044631958,0,0
194.837995,0.529632568359375,-0.44647216796875,0.584716796875,0.422149658203125,-0.3662109375,0.244140625,-0.67138671875,-0.992431640625,0.025146484375,-0.0865478515625,211.0,32.0,147.0,102169.0,-7.008000373840332,0,0
194.844993,0.52960205078125,-0.446502685546875,0.584716796875,0.422119140625,-0.18310546875,-0.67138671875,-0.3662109375,-0.9976806640625,0.017822265625,-0.09228515625,211.0,32.0,147.0,102169.0,-7.008000373840332,0,0
194.851993,0.529632568359375,-0.446533203125,0.584716796875,0.422088623046875,0.18310546875,-0.6103515625,0.732421875,-0.9969482421875,0.0142822265625,-0.0831298828125,211.0,32.0,147.0,102169.0,-7.008000373840332,0,0
194.858993,0.529632568359375,-0.446533203125,0.584716796875,0.422088623046875,0.0,-0.244140625,0.42724609375,-0.991455078125,0.0206298828125,-0.0799560546875,211.0,32.0,147.0,102169.0,-7.008000373840332,0,0
194.865996,0.529632568359375,-0.44647216796875,0.584716796875,0.422149658203125,-0.18310546875,0.42724609375,-0.1220703125,-0.99560546875,0.0299072265625,-0.0753173828125,211.0,32.0,147.0,102169.0,-7.008000373840332,0,0
194.872996,0.529632568359375,-0.44647216796875,0.584716796875,0.422149658203125,-0.1220703125,0.732421875,-0.54931640625,-0.9952392578125,0.0235595703125,-0.0828857421875,211.0,32.0,147.0,102169.0,-7.008000373840332,0,0
194.879995,0.529632568359375,-0.44647216796875,0.584716796875,0.422119140625,0.06103515625,0.1220703125,-0.244140625,-0.994873046875,0.0166015625,-0.0887451171875,211.0,32.0,147.0,102169.0,-7.008000373840332,0,0
194.886995,0.52960205078125,-0.446533203125,0.584716796875,0.422088623046875,0.06103515625,-0.3662109375,0.30517578125,-1.0010986328125,0.01123046875,-0.0965576171875,211.0,32.0,147.0,102169.0,-7.008000373840332,0,0
194.893994,0.52960205078125,-0.446533203125,0.584716796875,0.422088623046875,-0.06103515625,-0.79345703125,0.6103515625,-0.9974365234375,0.0184326171875,-0.0816650390625,211.0,32.0,147.0,102169.0,-7.008000373840332,0,0
194.900995,0.52960205078125,-0.446502685546875,0.584716796875,0.422149658203125,-0.1220703125,0.244140625,0.3662109375,-0.9959716796875,0.0179443359375,-0.06787109375,211.0,32.0,147.0,102169.0,-7.008000373840332,0,0
194.907026,0.52960205078125,-0.446502685546875,0.584716796875,0.422149658203125,-0.1220703125,0.244140625,0.3662109375,-0.9959716796875,0.0179443359375,-0.06787109375,211.0,32.0,147.0,102169.0,-7.008000373840332,0,0
194.913995,0.52960205078125,-0.446502685546875,0.584747314453125,0.422119140625,0.3662109375,0.18310546875,-0.06103515625,-0.9989013671875,0.0164794921875,-0.0953369140625,211.0,32.0,147.0,102169.0,-7.008000373840332,0,0
194.920994,0.529632568359375,-0.446502685546875,0.584716796875,0.422119140625,0.0,-1.5869140625,-0.3662109375,-0.994384765625,0.0142822265625,-0.0750732421875,211.0,32.0,149.0,102169.0,-7.006000518798828,0,0
194.927995,0.52972412109375,-0.44635009765625,0.58477783203125,0.42205810546875,0.244140625,-0.6103515625,1.03759765625,-1.0018310546875,0.0084228515625,-0.086181640625,211.0,32.0,149.0,102169.0,-7.006000518798828,0,0
194.934993,0.52972412109375,-0.44635009765625,0.58477783203125,0.42205810546875,-0.18310546875,0.9765625,0.244140625,-0.994384765625,0.0172119140625,-0.0821533203125,211.0,32.0,149.0,102169.0,-7.006000518798828,0,0
194.941993,0.529693603515625,-0.4464111328125,0.58477783203125,0.422027587890625,-0.48828125,0.732421875,-1.03759765625,-0.9921875,0.0386962890625,-0.0760498046875,211.0,32.0,149.0,102169.0,-7.006000518798828,0,0
194.948993,0.529693603515625,-0.446441650390625,0.584808349609375,0.4219970703125,0.18310546875,-0.18310546875,0.1220703125,-0.9979248046875,0.0111083984375,-0.098876953125,211.0,32.0,149.0,102169.0,-7.006000518798828,0,0
194.955996,0.52972412109375,-0.446441650390625,0.584747314453125,0.422027587890625,-0.48828125,-1.3427734375,-0.48828125,-0.9908447265625,0.02880859375,-0.086181640625,211.0,32.0,149.0,102169.0,-7.006000518798828,0,0
194.962996,0.5296630859375,-0.44647216796875,0.58477783203125,0.422027587890625,-0.67138671875,2.01416015625,0.732421875,-0.9993896484375,0.0152587890625,-0.084228515625,211.0,32.0,149.0,102169.0,-7.006000518798828,0,0
194.969995,0.529632568359375,-0.44647216796875,0.584808349609375,0.4219970703125,0.0,0.244140625,0.42724609375,-0.9930419921875,0.0234375,-0.0999755859375,211.0,32.0,149.0,102169.0,-7.006000518798828,0,0
194.976995,0.529693603515625,-0.44647216796875,0.58477783203125,0.4219970703125,0.0,-1.0986328125,-0.79345703125,-0.986328125,0.0416259765625,-0.095947265625,211.0,32.0,149.0,102169.0,-7.006000518798828,0,0
194.983994,0.529693603515625,-0.44647216796875,0.58477783203125,0.4219970703125,-0.18310546875,0.42724609375,0.732421875,-0.9962158203125,0.019287109375,-0.0841064453125,211.0,32.0,149.0,102169.0,-7.006000518798828,0,0
194.990999,0.529693603515625,-0.446441650390625,0.58477783203125,0.4219970703125,0.18310546875,0.732421875,0.30517578125,-0.991455078125,0.02490234375,-0.079833984375,211.0,32.0,149.0,102169.0,-7.006000518798828,0,0
195.010994,0.52960205078125,-0.446563720703125,0.58477783203125,0.4219970703125,0.6103515625,-1.28173828125,-1.46484375,-0.9896240234375,0.0390625,-0.094482421875,211.0,32.0,149.0,102169.0,-7.006000518798828,0,0
195.017999,0.529632568359375,-0.446563720703125,0.584747314453125,0.4219970703125,0.18310546875,1.0986328125,0.18310546875,-0.993408203125,0.0181884765625,-0.0758056640625,211.0,32.0,149.0,102169.0,-7.006000518798828,0,0
195.024994,0.529632568359375,-0.44659423828125,0.584747314453125,0.421966552734375,0.1220703125,0.54931640625,0.79345703125,-0.9996337890625,0.0052490234375,-0.0985107421875,212.0,32.0,148.0,102169.0,-7.00700044631958,0,0
195.031994,0.529754638671875,-0.446380615234375,0.58489990234375,0.42181396484375,-0.732421875,-0.1220703125,-0.3662109375,-0.985595703125,0.034912109375,-0.07763671875,212.0,32.0,148.0,102169.0,-7.00700044631958,0,0
195.038997,0.529754638671875,-0.446380615234375,0.58489990234375,0.42181396484375,-0.48828125,0.0,-0.18310546875,-0.9927978515625,0.025390625,-0.080078125,212.0,32.0,148.0,102169.0,-7.00700044631958,0,0
195.045997,0.529754638671875,-0.44635009765625,0.58489990234375,0.421844482421875,-0.54931640625,0.79345703125,-0.48828125,-0.992431640625,0.028076171875,-0.0784912109375,212.0,32.0,148.0,102169.0,-7.00700044631958,0,0
195.052996,0.529693603515625,-0.4464111328125,0.5849609375,0.42181396484375,-0.244140625,1.89208984375,0.18310546875,-0.99755859375,0.025390625,-0.08203125,212.0,32.0,148.0,102169.0,-7.00700044631958,0,0
195.059995,0.529693603515625,-0.4464111328125,0.584991455078125,0.4217529296875,0.79345703125,-1.28173828125,-0.18310546875,-0.9923095703125,0.020263671875,-0.095703125,212.0,32.0,148.0,102169.0,-7.00700044631958,0,0
195.066995,0.52972412109375,-0.446380615234375,0.584930419921875,0.421783447265625,-0.244140625,-0.6103515625,-0.54931640625,-0.994873046875,0.029052734375,-0.0848388671875,212.0,32.0,148.0,102169.0,-7.00700044631958,0,0
195.073994,0.529754638671875,-0.44635009765625,0.5849609375,0.421783447265625,1.03759765625,-0.3662109375,0.54931640625,-0.9974365234375,0.0172119140625,-0.08056640625,212.0,32.0,148.0,102169.0,-7.00700044631958,0,0
195.080995,0.52972412109375,-0.44635009765625,0.5849609375,0.421783447265625,0.30517578125,1.15966796875,-0.06103515625,-0.9952392578125,0.019287109375,-0.0806884765625,212.0,32.0,148.0,102169.0,-7.00700044631958,0,0
195.100994,0.5296630859375,-0.446441650390625,0.584991455078125,0.4217529296875,0.30517578125,-0.9765625,-0.3662109375,-0.9962158203125,0.01318359375,-0.08642578125,212.0,32.0,148.0,102169.0,-7.00700044631958,0,0
195.107995,0.529693603515625,-0.446441650390625,0.5849609375,0.4217529296875,0.18310546875,-0.06103515625,0.18310546875,-0.99365234375,0.021240234375,-0.0767822265625,212.0,32.0,148.0,102169.0,-7.00700044631958,0,0
195.114993,0.529693603515625,-0.446441650390625,0.5849609375,0.4217529296875,0.06103515625,0.06103515625,0.3662109375,-0.9971923828125,0.0157470703125,-0.080078125,212.0,32.0,148.0,102169.0,-7.00700044631958,0,0
195.121993,0.529693603515625,-0.4464111328125,0.5849609375,0.421783447265625,-0.30517578125,0.67138671875,-0.244140625,-0.9957275390625,0.0267333984375,-0.0743408203125,213.0,30.0,148.0,102169.0,-7.00700044631958,0,0
195.128993,0.52960205078125,-0.446502685546875,0.58489990234375,0.421875,0.30517578125,0.18310546875,0.0,-0.9990234375,0.0166015625,-0.0888671875,213.0,30.0,148.0,102169.0,-7.00700044631958,0,0
195.135996,0.52960205078125,-0.446533203125,0.58489990234375,0.421875,-0.1220703125,0.1220703125,-0.244140625,-0.9931640625,0.01708984375,-0.087158203125,213.0,30.0,148.0,102169.0,-7.00700044631958,0,0
195.142996,0.52960205078125,-0.446563720703125,0.58489990234375,0.421844482421875,-0.1220703125,0.244140625,0.1220703125,-0.99658203125,0.0185546875,-0.0794677734375,213.0,30.0,148.0,102169.0,-7.00700044631958,0,0
195.149995,0.52960205078125,-0.446563720703125,0.58489990234375,0.421844482421875,-0.1220703125,-0.244140625,0.1220703125,-0.9932861328125,0.021728515625,-0.088134765625,213.0,30.0,148.0,102169.0,-7.00700044631958,0,0
195.156995,0.52960205078125,-0.446563720703125,0.58489990234375,0.421844482421875,-0.18310546875,-0.30517578125,-0.3662109375,-0.991943359375,0.028076171875,-0.081298828125,213.0,30.0,148.0,102169.0,-7.00700044631958,0,0
195.163994,0.52960205078125,-0.446533203125,0.58489990234375,0.421844482421875,0.18310546875,0.30517578125,-0.48828125,-0.9962158203125,0.0225830078125,-0.0809326171875,213.0,30.0,148.0,102169.0,-7.00700044631958,0,0
195.170995,0.52960205078125,-0.446563720703125,0.58489990234375,0.421844482421875,0.18310546875,0.6103515625,-0.06103515625,-0.9951171875,0.0167236328125,-0.081787109375,213.0,30.0,148.0,102169.0,-7.00700044631958,0,0
195.177993,0.529571533203125,-0.446563720703125,0.58489990234375,0.42181396484375,-0.54931640625,0.244140625,-0.18310546875,-0.9954833984375,0.0186767578125,-0.08740234375,213.0,30.0,148.0,102169.0,-7.00700044631958,0,0
195.184021,0.529571533203125,-0.446563720703125,0.58489990234375,0.42181396484375,-0.54931640625,0.244140625,-0.18310546875,-0.9954833984375,0.0186767578125,-0.08740234375,213.0,30.0,148.0,102169.0,-7.00700044631958,0,0
195.190994,0.529571533203125,-0.44659423828125,0.58489990234375,0.42181396484375,0.18310546875,-0.3662109375,0.732421875,-0.996337890625,0.0125732421875,-0.0736083984375,213.0,30.0,148.0,102169.0,-7.00700044631958,0,0
195.197995,0.52960205078125,-0.446563720703125,0.58489990234375,0.421844482421875,-0.67138671875,0.732421875,-0.30517578125,-0.9940185546875,0.0252685546875,-0.081787109375,213.0,30.0,148.0,102169.0,-7.00700044631958,0,0
195.204993,0.52960205078125,-0.446533203125,0.58489990234375,0.421844482421875,-0.244140625,-0.18310546875,-0.42724609375,-0.9959716796875,0.02490234375,-0.0819091796875,213.0,30.0,148.0,102169.0,-7.00700044631958,0,0
195.211993,0.529571533203125,-0.446533203125,0.584930419921875,0.421844482421875,-0.1220703125,-0.06103515625,-0.48828125,-0.9952392578125,0.025146484375,-0.0869140625,213.0,30.0,148.0,102169.0,-7.00700044631958,0,0
195.218993,0.52960205078125,-0.446563720703125,0.58489990234375,0.421844482421875,0.48828125,0.79345703125,0.244140625,-0.995361328125,0.0162353515625,-0.083740234375,213.0,30.0,148.0,102169.0,-7.00700044631958,0,0
195.225996,0.529571533203125,-0.446563720703125,0.584930419921875,0.42181396484375,0.30517578125,0.30517578125,0.06103515625,-0.9952392578125,0.025634765625,-0.0982666015625,211.0,31.0,149.0,102169.0,-7.00700044631958,0,0
195.232996,0.529449462890625,-0.4466552734375,0.584869384765625,0.42193603515625,-0.3662109375,-1.0986328125,0.1220703125,-0.9947509765625,0.02099609375,-0.0909423828125,211.0,31.0,149.0,102169.0,-7.00700044631958,0,0
195.239995,0.529510498046875,-0.446685791015625,0.5848388671875,0.42193603515625,-0.06103515625,0.91552734375,0.732421875,-1.000244140625,0.005615234375,-0.0787353515625,211.0,31.0,149.0,102169.0,-7.00700044631958,0,0
195.246995,0.52947998046875,-0.446685791015625,0.5848388671875,0.421905517578125,0.1220703125,-0.3662109375,0.3662109375,-0.9930419921875,0.018798828125,-0.0806884765625,211.0,31.0,149.0,102169.0,-7.00700044631958,0,0
195.253994,0.52947998046875,-0.446685791015625,0.5848388671875,0.42193603515625,-0.732421875,0.54931640625,-0.54931640625,-0.99365234375,0.0238037109375,-0.082275390625,211.0,31.0,149.0,102169.0,-7.00700044631958,0,0
195.274993,0.529510498046875,-0.446685791015625,0.584869384765625,0.421875,-0.8544921875,-0.732421875,0.0,-0.9964599609375,0.0162353515625,-0.080810546875,211.0,31.0,149.0,102169.0,-7.00700044631958,0,0
195.281025,0.529510498046875,-0.446685791015625,0.584869384765625,0.421875,-0.8544921875,-0.732421875,0.0,-0.9964599609375,0.0162353515625,-0.080810546875,211.0,31.0,149.0,102169.0,-7.00700044631958,0,0
195.287999,0.52947998046875,-0.4466552734375,0.584869384765625,0.421905517578125,0.42724609375,0.79345703125,-0.79345703125,-0.9920654296875,0.021240234375,-0.07470703125,211.0,31.0,149.0,102169.0,-7.00700044631958,0,0
195.294994,0.529510498046875,-0.4466552734375,0.584869384765625,0.421905517578125,-0.06103515625,0.48828125,-0.244140625,-0.9976806640625,0.0174560546875,-0.08251953125,211.0,31.0,149.0,102169.0,-7.00700044631958,0,0
195.301994,0.529541015625,-0.446624755859375,0.58489990234375,0.421844482421875,0.8544921875,-2.13623046875,0.1220703125,-0.997802734375,0.0155029296875,-0.1080322265625,211.0,31.0,149.0,102169.0,-7.00700044631958,0,0
195.308997,0.529571533203125,-0.44659423828125,0.5848388671875,0.421875,-0.67138671875,-0.244140625,-0.3662109375,-0.99267578125,0.020263671875,-0.0570068359375,211.0,31.0,149.0,102169.0,-7.00700044631958,0,0
195.315997,0.529571533203125,-0.446624755859375,0.5848388671875,0.421844482421875,0.18310546875,1.953125,0.8544921875,-1.0023193359375,0.001220703125,-0.067138671875,211.0,31.0,149.0,102169.0,-7.00700044631958,0,0
195.322996,0.52947998046875,-0.446624755859375,0.584930419921875,0.421875,0.67138671875,-0.48828125,-0.06103515625,-0.9871826171875,0.0360107421875,-0.1048583984375,212.0,30.0,148.0,102169.0,-7.006000518798828,0,0
195.329995,0.52935791015625,-0.446807861328125,0.584808349609375,0.4219970703125,-0.06103515625,-0.79345703125,-0.8544921875,-0.9989013671875,0.009521484375,-0.075927734375,212.0,30.0,148.0,102169.0,-7.006000518798828,0,0
195.336995,0.529388427734375,-0.44683837890625,0.58477783203125,0.421966552734375,-0.1220703125,0.0,0.42724609375,-1.006591796875,-0.0013427734375,-0.0887451171875,212.0,30.0,148.0,102169.0,-7.006000518798828,0,0
195.357994,0.529296875,-0.446868896484375,0.5848388671875,0.421966552734375,0.30517578125,1.15966796875,-0.91552734375,-0.990966796875,0.02783203125,-0.0731201171875,212.0,30.0,148.0,102169.0,-7.006000518798828,0,0
195.364994,0.529327392578125,-0.446868896484375,0.584808349609375,0.421966552734375,-0.8544921875,0.91552734375,0.18310546875,-1.001953125,0.0079345703125,-0.073486328125,212.0,30.0,148.0,102169.0,-7.006000518798828,0,0
195.371025,0.529327392578125,-0.446868896484375,0.584808349609375,0.421966552734375,-0.8544921875,0.91552734375,0.18310546875,-1.001953125,0.0079345703125,-0.073486328125,212.0,30.0,148.0,102169.0,-7.006000518798828,0,0
195.377995,0.529296875,-0.446929931640625,0.5848388671875,0.421905517578125,0.30517578125,-0.1220703125,-0.48828125,-0.98974609375,0.0306396484375,-0.10009765625,212.0,30.0,148.0,102169.0,-7.006000518798828,0,0
195.384993,0.529296875,-0.446929931640625,0.5848388671875,0.421875,-0.42724609375,0.0,0.06103515625,-0.997802734375,0.0126953125,-0.08544921875,212.0,30.0,148.0,102169.0,-7.006000518798828,0,0
195.391993,0.52923583984375,-0.446929931640625,0.58489990234375,0.421875,0.18310546875,-0.54931640625,1.0986328125,-0.9993896484375,0.0115966796875,-0.1048583984375,212.0,30.0,148.0,102169.0,-7.006000518798828,0,0
195.398993,0.529266357421875,-0.4468994140625,0.584869384765625,0.42193603515625,-0.42724609375,1.5869140625,0.0,-1.00146484375,0.009521484375,-0.065673828125,212.0,30.0,148.0,102169.0,-7.006000518798828,0,0
195.405996,0.52923583984375,-0.446929931640625,0.584869384765625,0.42193603515625,-1.220703125,1.3427734375,0.3662109375,-0.99951171875,0.0166015625,-0.0831298828125,212.0,30.0,148.0,102169.0,-7.006000518798828,0,0
195.412996,0.529144287109375,-0.44696044921875,0.584930419921875,0.421905517578125,-0.18310546875,-0.8544921875,-0.48828125,-0.9891357421875,0.0250244140625,-0.1011962890625,212.0,30.0,148.0,102169.0,-7.006000518798828,0,0
195.419995,0.5291748046875,-0.446990966796875,0.584930419921875,0.421875,0.1220703125,-0.79345703125,0.06103515625,-1.0001220703125,0.0048828125,-0.087646484375,212.0,30.0,148.0,102169.0,-7.006000518798828,0,0
195.426995,0.5291748046875,-0.446990966796875,0.58489990234375,0.421875,-0.18310546875,0.48828125,0.67138671875,-0.99853515625,0.0120849609375,-0.07958984375,212.0,29.0,148.0,102169.0,-7.006000518798828,0,0
195.433994,0.52899169921875,-0.447235107421875,0.584686279296875,0.422149658203125,0.0,-0.3662109375,0.30517578125,-0.9931640625,0.0235595703125,-0.0887451171875,212.0,29.0,148.0,102169.0,-7.006000518798828,0,0
195.440995,0.528961181640625,-0.447235107421875,0.584716796875,0.422149658203125,0.1220703125,1.3427734375,-0.6103515625,-0.993896484375,0.0279541015625,-0.072998046875,212.0,29.0,148.0,102169.0,-7.006000518798828,0,0
195.447993,0.5289306640625,-0.447296142578125,0.584747314453125,0.422119140625,-0.42724609375,0.18310546875,-0.48828125,-0.9952392578125,0.0181884765625,-0.1007080078125,212.0,29.0,148.0,102169.0,-7.006000518798828,0,0
195.454993,0.5289306640625,-0.447296142578125,0.584747314453125,0.422119140625,-0.06103515625,-0.30517578125,-0.30517578125,-0.99658203125,0.021484375,-0.0888671875,212.0,29.0,148.0,102169.0,-7.006000518798828,0,0
195.461993,0.5289306640625,-0.44732666015625,0.584747314453125,0.422088623046875,0.0,-0.42724609375,0.42724609375,-0.9971923828125,0.0146484375,-0.0889892578125,212.0,29.0,148.0,102169.0,-7.006000518798828,0,0
195.46802,0.5289306640625,-0.44732666015625,0.584747314453125,0.422088623046875,0.0,-0.42724609375,0.42724609375,-0.9971923828125,0.0146484375,-0.0889892578125,212.0,29.0,148.0,102169.0,-7.006000518798828,0,0
195.474993,0.5289306640625,-0.447296142578125,0.584747314453125,0.422088623046875,-0.06103515625,-0.1220703125,-0.1220703125,-0.9942626953125,0.021240234375,-0.0838623046875,212.0,29.0,148.0,102169.0,-7.006000518798828,0,0
195.481993,0.5289306640625,-0.447296142578125,0.584747314453125,0.422119140625,-0.3662109375,0.1220703125,-0.3662109375,-0.9959716796875,0.0189208984375,-0.0887451171875,212.0,29.0,148.0,102169.0,-7.006000518798828,0,0
195.488993,0.5289306640625,-0.447296142578125,0.584747314453125,0.422119140625,-0.1220703125,-0.18310546875,-0.48828125,-0.99267578125,0.021728515625,-0.0892333984375,212.0,29.0,148.0,102169.0,-7.006000518798828,0,0
195.495996,0.5289306640625,-0.44732666015625,0.584747314453125,0.422088623046875,-0.30517578125,0.1220703125,0.06103515625,-0.99755859375,0.0118408203125,-0.094482421875,212.0,29.0,148.0,102169.0,-7.006000518798828,0,0
195.502996,0.5289306640625,-0.447357177734375,0.584747314453125,0.422027587890625,0.0,0.06103515625,-0.244140625,-0.994384765625,0.0225830078125,-0.0849609375,212.0,29.0,148.0,102169.0,-7.006000518798828,0,0
195.509995,0.528900146484375,-0.44732666015625,0.58477783203125,0.42205810546875,0.42724609375,-0.30517578125,0.0,-0.986083984375,0.0341796875,-0.0843505859375,212.0,29.0,148.0,102169.0,-7.006000518798828,0,0
195.516995,0.528900146484375,-0.44732666015625,0.58477783203125,0.422088623046875,-0.48828125,0.79345703125,-0.67138671875,-0.9888916015625,0.0289306640625,-0.0714111328125,212.0,29.0,148.0,102169.0,-7.006000518798828,0,0
195.537993,0.5286865234375,-0.447601318359375,0.584625244140625,0.4222412109375,0.6103515625,-0.06103515625,-0.67138671875,-0.9964599609375,0.0206298828125,-0.0709228515625,212.0,29.0,148.0,102169.0,-7.006000518798828,0,0
195.544993,0.528656005859375,-0.447601318359375,0.58465576171875,0.4222412109375,0.18310546875,-0.79345703125,0.06103515625,-0.990966796875,0.0301513671875,-0.093505859375,212.0,29.0,148.0,102169.0,-7.006000518798828,0,0
195.551993,0.5286865234375,-0.447601318359375,0.584625244140625,0.4222412109375,-0.18310546875,0.244140625,-0.30517578125,-0.9901123046875,0.0234375,-0.07958984375,212.0,29.0,148.0,102169.0,-7.006000518798828,0,0
195.55802,0.5286865234375,-0.447601318359375,0.584625244140625,0.4222412109375,-0.18310546875,0.244140625,-0.30517578125,-0.9901123046875,0.0234375,-0.07958984375,212.0,29.0,148.0,102169.0,-7.006000518798828,0,0
195.564993,0.5286865234375,-0.447601318359375,0.584625244140625,0.4222412109375,0.18310546875,-0.06103515625,0.244140625,-0.991943359375,0.01904296875,-0.0767822265625,212.0,29.0,148.0,102169.0,-7.006000518798828,0,0
195.571993,0.528656005859375,-0.447601318359375,0.584625244140625,0.4222412109375,-0.30517578125,1.8310546875,-0.244140625,-0.99169921875,0.0267333984375,-0.0665283203125,212.0,29.0,148.0,102169.0,-7.006000518798828,0,0
195.578997,0.528594970703125,-0.447662353515625,0.584686279296875,0.422210693359375,-0.1220703125,-0.91552734375,-0.18310546875,-0.993896484375,0.0223388671875,-0.1009521484375,212.0,29.0,148.0,102169.0,-7.006000518798828,0,0
195.585997,0.52862548828125,-0.4476318359375,0.584686279296875,0.422210693359375,0.18310546875,-1.220703125,-0.06103515625,-0.9931640625,0.01904296875,-0.0902099609375,212.0,29.0,148.0,102169.0,-7.006000518798828,0,0
195.592996,0.528656005859375,-0.447662353515625,0.58465576171875,0.42218017578125,0.244140625,0.48828125,-0.244140625,-0.9921875,0.0263671875,-0.07373046875,212.0,29.0,148.0,102169.0,-7.006000518798828,0,0
195.599995,0.528656005859375,-0.4476318359375,0.58465576171875,0.4222412109375,0.6103515625,0.6103515625,-0.3662109375,-0.9871826171875,0.0408935546875,-0.0709228515625,212.0,29.0,148.0,102169.0,-7.006000518798828,0,0
195.620999,0.528594970703125,-0.44769287109375,0.584716796875,0.422119140625,-0.3662109375,0.0,-0.30517578125,-0.9952392578125,0.0167236328125,-0.0845947265625,212.0,29.0,148.0,102169.0,-7.006000518798828,0,0
195.627994,0.52862548828125,-0.447723388671875,0.584686279296875,0.422119140625,-0.6103515625,0.06103515625,0.18310546875,-1.0006103515625,0.0086669921875,-0.0794677734375,213.0,29.0,149.0,102169.0,-7.006000518798828,0,0
195.634994,0.52850341796875,-0.4478759765625,0.58453369140625,0.422332763671875,0.06103515625,-1.03759765625,0.67138671875,-0.9901123046875,0.023681640625,-0.08935546875,213.0,29.0,149.0,102169.0,-7.006000518798828,0,0
195.641997,0.52850341796875,-0.447845458984375,0.58453369140625,0.42236328125,0.30517578125,0.732421875,-0.1220703125,-0.9967041015625,0.0194091796875,-0.078125,213.0,29.0,149.0,102169.0,-7.006000518798828,0,0
195.648997,0.52850341796875,-0.447845458984375,0.58453369140625,0.42236328125,-0.244140625,1.0986328125,-0.1220703125,-0.993896484375,0.0224609375,-0.0888671875,213.0,29.0,149.0,102169.0,-7.006000518798828,0,0
195.655029,0.52850341796875,-0.447845458984375,0.58453369140625,0.42236328125,-0.244140625,1.0986328125,-0.1220703125,-0.993896484375,0.0224609375,-0.0888671875,213.0,29.0,149.0,102169.0,-7.006000518798828,0,0
195.661994,0.528472900390625,-0.447906494140625,0.584564208984375,0.42230224609375,-0.06103515625,1.3427734375,0.0,-1.001220703125,0.01513671875,-0.09228515625,213.0,29.0,149.0,102169.0,-7.006000518798828,0,0
195.668997,0.528472900390625,-0.447906494140625,0.584564208984375,0.42230224609375,-0.18310546875,-1.03759765625,-0.3662109375,-0.9906005859375,0.02392578125,-0.0928955078125,213.0,29.0,149.0,102169.0,-7.006000518798828,0,0
195.675996,0.52850341796875,-0.4478759765625,0.58453369140625,0.422332763671875,0.18310546875,-0.91552734375,-0.3662109375,-0.99267578125,0.0250244140625,-0.083251953125,213.0,29.0,149.0,102169.0,-7.00700044631958,0,0
195.682996,0.52850341796875,-0.447906494140625,0.58453369140625,0.42230224609375,0.30517578125,-0.48828125,0.48828125,-0.9942626953125,0.0198974609375,-0.081787109375,213.0,29.0,149.0,102169.0,-7.00700044631958,0,0
195.689995,0.52850341796875,-0.4478759765625,0.58453369140625,0.422332763671875,0.54931640625,0.1220703125,-0.3662109375,-0.988037109375,0.0313720703125,-0.0745849609375,213.0,29.0,149.0,102169.0,-7.00700044631958,0,0
195.696995,0.52850341796875,-0.4478759765625,0.58453369140625,0.422332763671875,-0.30517578125,0.79345703125,-0.6103515625,-0.9940185546875,0.029052734375,-0.0684814453125,213.0,29.0,149.0,102169.0,-7.00700044631958,0,0
195.703994,0.5284423828125,-0.4478759765625,0.584564208984375,0.422332763671875,-0.18310546875,0.06103515625,-0.6103515625,-0.9912109375,0.029052734375,-0.101806640625,213.0,29.0,149.0,102169.0,-7.00700044631958,0,0
195.710995,0.5284423828125,-0.447906494140625,0.5845947265625,0.42230224609375,0.1220703125,-0.732421875,-0.3662109375,-0.996826171875,0.01611328125,-0.097412109375,213.0,29.0,149.0,102169.0,-7.00700044631958,0,0
195.717993,0.528472900390625,-0.447906494140625,0.584564208984375,0.422271728515625,0.30517578125,-0.54931640625,-0.18310546875,-0.99560546875,0.015625,-0.0850830078125,213.0,29.0,149.0,102169.0,-7.00700044631958,0,0
195.724993,0.528472900390625,-0.447906494140625,0.584564208984375,0.42230224609375,0.0,-0.91552734375,0.48828125,-0.994873046875,0.01904296875,-0.089111328125,212.0,29.0,150.0,102169.0,-7.00700044631958,0,0
195.731993,0.5283203125,-0.448089599609375,0.584381103515625,0.422515869140625,0.1220703125,0.3662109375,-0.48828125,-0.99072265625,0.03271484375,-0.07470703125,212.0,29.0,150.0,102169.0,-7.00700044631958,0,0
195.738996,0.5283203125,-0.448089599609375,0.584381103515625,0.42254638671875,-0.1220703125,0.8544921875,-0.06103515625,-0.994384765625,0.02001953125,-0.0750732421875,212.0,29.0,150.0,102169.0,-7.00700044631958,0,0
195.745029,0.5283203125,-0.448089599609375,0.584381103515625,0.42254638671875,-0.1220703125,0.8544921875,-0.06103515625,-0.994384765625,0.02001953125,-0.0750732421875,212.0,29.0,150.0,102169.0,-7.00700044631958,0,0
195.751993,0.528289794921875,-0.448089599609375,0.584381103515625,0.422515869140625,0.0,0.18310546875,-0.48828125,-0.9954833984375,0.0205078125,-0.085205078125,212.0,29.0,150.0,102169.0,-7.00700044631958,0,0
195.758993,0.528289794921875,-0.4481201171875,0.58441162109375,0.4224853515625,0.0,-0.6103515625,0.1220703125,-0.9969482421875,0.017578125,-0.0870361328125,212.0,29.0,150.0,102169.0,-7.00700044631958,0,0
195.765996,0.528289794921875,-0.4481201171875,0.58441162109375,0.422515869140625,0.0,-0.79345703125,0.18310546875,-0.9918212890625,0.023193359375,-0.080810546875,212.0,29.0,150.0,102169.0,-7.00700044631958,0,0
195.772996,0.528289794921875,-0.4481201171875,0.58441162109375,0.422515869140625,0.0,-0.06103515625,-0.1220703125,-0.994384765625,0.02197265625,-0.0816650390625,212.0,29.0,150.0,102169.0,-7.005000114440918,0,0
195.793994,0.5283203125,-0.4481201171875,0.584381103515625,0.422515869140625,0.18310546875,0.79345703125,0.06103515625,-0.9957275390625,0.0074462890625,-0.0811767578125,212.0,29.0,150.0,102169.0,-7.005000114440918,0,0
195.800995,0.5283203125,-0.4481201171875,0.584381103515625,0.422515869140625,-0.48828125,-1.15966796875,0.06103515625,-0.99462890625,0.019287109375,-0.090576171875,212.0,29.0,150.0,102169.0,-7.005000114440918,0,0
195.807993,0.5283203125,-0.448089599609375,0.5843505859375,0.42254638671875,0.18310546875,-1.15966796875,0.0,-0.99365234375,0.0274658203125,-0.086669921875,212.0,29.0,150.0,102169.0,-7.005000114440918,0,0
195.814993,0.528350830078125,-0.448089599609375,0.5843505859375,0.422576904296875,-0.244140625,1.0986328125,0.1220703125,-0.9971923828125,0.0123291015625,-0.067138671875,212.0,29.0,150.0,102169.0,-7.005000114440918,0,0
195.821993,0.5283203125,-0.448089599609375,0.584381103515625,0.42254638671875,-0.244140625,0.0,-0.1220703125,-0.9915771484375,0.031494140625,-0.091796875,212.0,29.0,150.0,102169.0,-7.005000114440918,0,0
195.828996,0.528167724609375,-0.44830322265625,0.584197998046875,0.4227294921875,0.54931640625,0.06103515625,-0.67138671875,-0.9888916015625,0.027099609375,-0.0811767578125,211.0,29.0,150.0,102169.0,-7.005000114440918,0,0
195.835996,0.528167724609375,-0.44830322265625,0.584197998046875,0.4227294921875,0.3662109375,-0.8544921875,-0.06103515625,-0.9964599609375,0.0172119140625,-0.0869140625,211.0,29.0,150.0,102169.0,-7.005000114440918,0,0
195.842023,0.528167724609375,-0.44830322265625,0.584197998046875,0.4227294921875,0.3662109375,-0.8544921875,-0.06103515625,-0.9964599609375,0.0172119140625,-0.0869140625,211.0,29.0,150.0,102169.0,-7.005000114440918,0,0
195.848993,0.5281982421875,-0.44830322265625,0.58416748046875,0.4227294921875,-0.6103515625,0.8544921875,0.06103515625,-0.9951171875,0.020263671875,-0.06494140625,211.0,29.0,150.0,102169.0,-7.005000114440918,0,0
195.855996,0.528167724609375,-0.44830322265625,0.584197998046875,0.4227294921875,-0.48828125,-0.244140625,0.06103515625,-0.9915771484375,0.02783203125,-0.0938720703125,211.0,29.0,150.0,102169.0,-7.005000114440918,0,0
195.862996,0.5281982421875,-0.44830322265625,0.584197998046875,0.422698974609375,-0.3662109375,-0.3662109375,0.18310546875,-0.997802734375,0.009033203125,-0.084228515625,211.0,29.0,150.0,102169.0,-7.005000114440918,0,0
195.883994,0.5281982421875,-0.4483642578125,0.584197998046875,0.42266845703125,0.18310546875,0.18310546875,-0.1220703125,-0.9947509765625,0.017333984375,-0.0765380859375,211.0,29.0,150.0,102169.0,-7.004000186920166,0,0
195.890999,0.528167724609375,-0.4483642578125,0.584228515625,0.422637939453125,-0.3662109375,-0.54931640625,0.18310546875,-0.9954833984375,0.025146484375,-0.0992431640625,211.0,29.0,150.0,102169.0,-7.004000186920166,0,0
195.897994,0.5281982421875,-0.44830322265625,0.584197998046875,0.4227294921875,-0.3662109375,-1.28173828125,0.244140625,-0.9921875,0.021240234375,-0.0924072265625,211.0,29.0,150.0,102169.0,-7.004000186920166,0,0
195.904994,0.5281982421875,-0.44830322265625,0.584197998046875,0.422698974609375,0.732421875,1.0986328125,0.54931640625,-0.9998779296875,0.0074462890625,-0.076416015625,211.0,29.0,150.0,102169.0,-7.004000186920166,0,0
195.911997,0.5281982421875,-0.44830322265625,0.584228515625,0.422698974609375,0.30517578125,-0.30517578125,0.0,-0.9945068359375,0.02587890625,-0.092529296875,211.0,29.0,150.0,102169.0,-7.004000186920166,0,0
195.918997,0.528106689453125,-0.4483642578125,0.584228515625,0.422698974609375,-1.46484375,0.54931640625,-0.732421875,-0.99560546875,0.021484375,-0.088134765625,211.0,29.0,150.0,102169.0,-7.004000186920166,0,0
195.925996,0.528106689453125,-0.4483642578125,0.584228515625,0.422698974609375,-1.46484375,0.54931640625,-0.732421875,-0.99560546875,0.021484375,-0.088134765625,212.0,29.0,148.0,102169.0,-7.004000186920166,0,0
195.932028,0.528106689453125,-0.4483642578125,0.584228515625,0.422698974609375,-1.46484375,0.54931640625,-0.732421875,-0.99560546875,0.021484375,-0.088134765625,212.0,29.0,148.0,102169.0,-7.004000186920166,0,0
195.938997,0.527984619140625,-0.44854736328125,0.584075927734375,0.422882080078125,-0.244140625,-0.54931640625,0.30517578125,-0.99365234375,0.0223388671875,-0.0941162109375,212.0,29.0,148.0,102169.0,-7.004000186920166,0,0
195.945997,0.52801513671875,-0.448577880859375,0.58404541015625,0.422882080078125,0.0,0.1220703125,0.30517578125,-0.997802734375,0.0145263671875,-0.0859375,212.0,29.0,148.0,102169.0,-7.004000186920166,0,0
195.952996,0.527984619140625,-0.44854736328125,0.584075927734375,0.422882080078125,-0.3662109375,0.1220703125,-0.42724609375,-0.989990234375,0.0335693359375,-0.084716796875,212.0,29.0,148.0,102169.0,-7.004000186920166,0,0
195.959995,0.527984619140625,-0.448577880859375,0.584075927734375,0.422882080078125,-0.18310546875,1.0986328125,-0.8544921875,-0.9886474609375,0.031982421875,-0.0758056640625,212.0,29.0,148.0,102169.0,-7.004000186920166,0,0
195.966995,0.527984619140625,-0.4486083984375,0.584075927734375,0.422821044921875,-0.48828125,-0.54931640625,0.42724609375,-1.00146484375,0.003662109375,-0.1002197265625,212.0,29.0,148.0,102169.0,-7.004000186920166,0,0
195.973994,0.527984619140625,-0.448577880859375,0.584075927734375,0.422882080078125,0.0,-1.0986328125,0.244140625,-0.9920654296875,0.02685546875,-0.0916748046875,212.0,29.0,148.0,102169.0,-7.005000114440918,0,0
195.980995,0.527984619140625,-0.448577880859375,0.584075927734375,0.4228515625,0.30517578125,-0.1220703125,0.244140625,-0.997802734375,0.0225830078125,-0.0863037109375,212.0,29.0,148.0,102169.0,-7.005000114440918,0,0
195.987993,0.527984619140625,-0.448577880859375,0.58404541015625,0.422882080078125,0.06103515625,0.42724609375,0.1220703125,-0.9971923828125,0.0250244140625,-0.0865478515625,212.0,29.0,148.0,102169.0,-7.005000114440918,0,0
195.994993,0.52801513671875,-0.44854736328125,0.58404541015625,0.422882080078125,-0.06103515625,0.79345703125,-0.3662109375,-0.9935302734375,0.025634765625,-0.07275390625,212.0,29.0,148.0,102169.0,-7.005000114440918,0,0
196.001993,0.527984619140625,-0.4486083984375,0.584075927734375,0.4228515625,-0.18310546875,0.48828125,-0.06103515625,-0.99267578125,0.01904296875,-0.092529296875,212.0,29.0,148.0,102169.0,-7.005000114440918,0,0
196.008996,0.5279541015625,-0.4486083984375,0.584075927734375,0.4228515625,-0.30517578125,0.0,-0.18310546875,-0.9940185546875,0.0264892578125,-0.08837890625,212.0,29.0,148.0,102169.0,-7.005000114440918,0,0
196.015996,0.5279541015625,-0.4486083984375,0.584075927734375,0.4228515625,-0.244140625,-0.18310546875,0.06103515625,-0.9986572265625,0.01171875,-0.08251953125,212.0,29.0,148.0,102169.0,-7.005000114440918,0,0
196.022995,0.527984619140625,-0.4486083984375,0.584075927734375,0.4228515625,0.3662109375,-0.9765625,0.244140625,-0.99560546875,0.0150146484375,-0.0904541015625,211.0,30.0,148.0,102169.0,-7.005000114440918,0,0
196.029028,0.527984619140625,-0.4486083984375,0.584075927734375,0.4228515625,0.3662109375,-0.9765625,0.244140625,-0.99560546875,0.0150146484375,-0.0904541015625,211.0,30.0,148.0,102169.0,-7.005000114440918,0,0
196.035996,0.527923583984375,-0.44866943359375,0.583984375,0.4229736328125,-0.06103515625,1.40380859375,0.18310546875,-0.9927978515625,0.0234375,-0.0706787109375,211.0,30.0,148.0,102169.0,-7.005000114440918,0,0
196.056995,0.52789306640625,-0.448699951171875,0.584014892578125,0.4229736328125,-0.1220703125,0.06103515625,0.244140625,-0.9989013671875,0.013427734375,-0.093017578125,211.0,30.0,148.0,102169.0,-7.005000114440918,0,0
196.063994,0.527862548828125,-0.44866943359375,0.584014892578125,0.4229736328125,0.1220703125,-0.42724609375,0.06103515625,-0.9923095703125,0.02685546875,-0.084716796875,211.0,30.0,148.0,102169.0,-7.005000114440918,0,0
196.070995,0.527862548828125,-0.44866943359375,0.584014892578125,0.4229736328125,-0.06103515625,-0.244140625,-0.06103515625,-0.9942626953125,0.0213623046875,-0.082275390625,211.0,30.0,148.0,102169.0,-7.005000114440918,0,0
196.077993,0.527862548828125,-0.44866943359375,0.584014892578125,0.4229736328125,0.3662109375,0.30517578125,-0.30517578125,-0.9935302734375,0.0230712890625,-0.079833984375,211.0,30.0,148.0,102169.0,-7.006000518798828,0,0
196.084993,0.527862548828125,-0.44866943359375,0.584014892578125,0.4229736328125,0.8544921875,0.1220703125,-0.1220703125,-0.99365234375,0.022705078125,-0.0850830078125,211.0,30.0,148.0,102169.0,-7.006000518798828,0,0
196.091993,0.527862548828125,-0.44866943359375,0.584014892578125,0.4229736328125,0.67138671875,0.244140625,-0.6103515625,-0.992431640625,0.0238037109375,-0.0853271484375,211.0,30.0,148.0,102169.0,-7.006000518798828,0,0
196.098996,0.527862548828125,-0.448699951171875,0.584014892578125,0.4229736328125,0.0,0.48828125,0.3662109375,-0.9959716796875,0.0069580078125,-0.084716796875,211.0,30.0,148.0,102169.0,-7.006000518798828,0,0
196.105996,0.527862548828125,-0.448699951171875,0.584014892578125,0.422943115234375,-0.30517578125,0.6103515625,0.1220703125,-0.9967041015625,0.012939453125,-0.0902099609375,211.0,30.0,148.0,102169.0,-7.006000518798828,0,0
196.112995,0.527862548828125,-0.448699951171875,0.584014892578125,0.422943115234375,-0.6103515625,-0.3662109375,-0.42724609375,-0.9913330078125,0.026123046875,-0.07421875,211.0,30.0,148.0,102169.0,-7.006000518798828,0,0
196.119028,0.527862548828125,-0.448699951171875,0.584014892578125,0.422943115234375,-0.6103515625,-0.3662109375,-0.42724609375,-0.9913330078125,0.026123046875,-0.07421875,211.0,30.0,148.0,102169.0,-7.006000518798828,0,0
196.125996,0.5279541015625,-0.448638916015625,0.583953857421875,0.423004150390625,1.03759765625,-1.28173828125,-0.42724609375,-0.98876953125,0.0335693359375,-0.0843505859375,211.0,32.0,151.0,102169.0,-7.006000518798828,0,0
196.146995,0.527984619140625,-0.448577880859375,0.58404541015625,0.42291259765625,-0.54931640625,-0.48828125,-0.3662109375,-0.9913330078125,0.0234375,-0.07861328125,211.0,32.0,151.0,102169.0,-7.006000518798828,0,0
196.153994,0.52801513671875,-0.44854736328125,0.584014892578125,0.42291259765625,0.6103515625,-1.220703125,-0.1220703125,-0.9981689453125,0.01708984375,-0.091064453125,211.0,32.0,151.0,102169.0,-7.006000518798828,0,0
196.160995,0.528076171875,-0.448516845703125,0.583984375,0.4229736328125,0.30517578125,1.220703125,0.48828125,-0.9954833984375,0.0164794921875,-0.0657958984375,211.0,32.0,151.0,102169.0,-7.006000518798828,0,0
196.167993,0.52801513671875,-0.44854736328125,0.584014892578125,0.422943115234375,-0.3662109375,2.685546875,-0.18310546875,-0.9925537109375,0.0269775390625,-0.0609130859375,211.0,32.0,151.0,102169.0,-7.006000518798828,0,0
196.174994,0.527984619140625,-0.44854736328125,0.58404541015625,0.422943115234375,-0.244140625,0.6103515625,0.1220703125,-0.99755859375,0.0174560546875,-0.0955810546875,211.0,32.0,151.0,102169.0,-7.005000114440918,0,0
196.181997,0.52801513671875,-0.448516845703125,0.584014892578125,0.422943115234375,0.42724609375,-0.3662109375,-0.3662109375,-0.9954833984375,0.0133056640625,-0.074462890625,211.0,32.0,151.0,102169.0,-7.005000114440918,0,0
196.188997,0.528106689453125,-0.448516845703125,0.583953857421875,0.42291259765625,0.54931640625,-0.79345703125,0.79345703125,-1.0003662109375,0.0029296875,-0.081787109375,211.0,32.0,151.0,102169.0,-7.005000114440918,0,0
196.195996,0.528045654296875,-0.44854736328125,0.584014892578125,0.42291259765625,-0.1220703125,1.220703125,0.6103515625,-0.99560546875,0.0234375,-0.0924072265625,211.0,32.0,151.0,102169.0,-7.005000114440918,0,0
196.202995,0.52801513671875,-0.44854736328125,0.584014892578125,0.42291259765625,-0.54931640625,-0.1220703125,-0.9765625,-0.9892578125,0.033203125,-0.07666015625,211.0,32.0,151.0,102169.0,-7.005000114440918,0,0
196.209995,0.52801513671875,-0.44854736328125,0.58404541015625,0.42291259765625,0.0,-0.48828125,0.1220703125,-0.9957275390625,0.01953125,-0.0885009765625,211.0,32.0,151.0,102169.0,-7.005000114440918,0,0
196.216027,0.52801513671875,-0.44854736328125,0.58404541015625,0.42291259765625,0.0,-0.48828125,0.1220703125,-0.9957275390625,0.01953125,-0.0885009765625,211.0,32.0,151.0,102169.0,-7.005000114440918,0,0
196.222996,0.528076171875,-0.448577880859375,0.583984375,0.422882080078125,-0.48828125,-0.244140625,0.79345703125,-1.0010986328125,0.004638671875,-0.0772705078125,211.0,32.0,151.0,102169.0,-7.005000114440918,0,0
196.229995,0.528106689453125,-0.448455810546875,0.5841064453125,0.42279052734375,0.1220703125,0.54931640625,0.18310546875,-0.9925537109375,0.027099609375,-0.0872802734375,211.0,32.0,149.0,102169.0,-7.005000114440918,0,0
196.236995,0.52813720703125,-0.448455810546875,0.584075927734375,0.42279052734375,0.0,0.67138671875,-0.06103515625,-0.9913330078125,0.0223388671875,-0.0792236328125,211.0,32.0,149.0,102169.0,-7.005000114440918,0,0
196.243994,0.528106689453125,-0.448455810546875,0.5841064453125,0.42279052734375,-0.1220703125,-0.1220703125,-0.18310546875,-0.996337890625,0.01611328125,-0.0830078125,211.0,32.0,149.0,102169.0,-7.005000114440918,0,0
196.250999,0.528106689453125,-0.44842529296875,0.5841064453125,0.422821044921875,-0.54931640625,-0.8544921875,-0.42724609375,-0.9884033203125,0.0389404296875,-0.078125,211.0,32.0,149.0,102169.0,-7.005000114440918,0,0
196.257994,0.528106689453125,-0.44842529296875,0.5841064453125,0.422821044921875,-0.18310546875,0.3662109375,-0.30517578125,-0.9942626953125,0.02099609375,-0.072265625,211.0,32.0,149.0,102169.0,-7.005000114440918,0,0
196.264994,0.528076171875,-0.44842529296875,0.584136962890625,0.42279052734375,-0.18310546875,-0.18310546875,0.244140625,-0.9920654296875,0.0277099609375,-0.0946044921875,211.0,32.0,149.0,102169.0,-7.005000114440918,0,0
196.271993,0.528076171875,-0.448394775390625,0.584136962890625,0.4228515625,-0.18310546875,-0.06103515625,-0.91552734375,-0.9842529296875,0.037109375,-0.0711669921875,211.0,32.0,149.0,102169.0,-7.005000114440918,0,0
196.278996,0.528076171875,-0.448394775390625,0.584136962890625,0.4228515625,-0.3662109375,0.06103515625,-0.244140625,-0.9949951171875,0.0166015625,-0.07421875,211.0,32.0,149.0,102169.0,-7.006000518798828,0,0
196.285996,0.528076171875,-0.44842529296875,0.584136962890625,0.422821044921875,-0.06103515625,-0.06103515625,0.06103515625,-0.99658203125,0.0157470703125,-0.0955810546875,211.0,32.0,149.0,102169.0,-7.006000518798828,0,0
196.292995,0.528076171875,-0.448394775390625,0.584136962890625,0.4228515625,-0.91552734375,0.732421875,-0.3662109375,-0.9920654296875,0.027099609375,-0.073974609375,211.0,32.0,149.0,102169.0,-7.006000518798828,0,0
196.299995,0.528076171875,-0.448394775390625,0.584136962890625,0.422821044921875,0.06103515625,-1.0986328125,-0.1220703125,-0.9903564453125,0.031494140625,-0.0916748046875,211.0,32.0,149.0,102169.0,-7.006000518798828,0,0
196.319995,0.528076171875,-0.448394775390625,0.584136962890625,0.4228515625,-0.06103515625,0.1220703125,-0.48828125,-0.9920654296875,0.0267333984375,-0.0802001953125,211.0,32.0,149.0,102169.0,-7.006000518798828,0,0
196.326995,0.528076171875,-0.448394775390625,0.584136962890625,0.4228515625,-0.06103515625,-0.244140625,-0.3662109375,-0.9952392578125,0.0234375,-0.088623046875,210.0,32.0,152.0,102169.0,-7.006000518798828,0,0
196.333994,0.528167724609375,-0.448272705078125,0.584197998046875,0.422760009765625,-0.244140625,0.79345703125,-0.3662109375,-0.993896484375,0.0167236328125,-0.0721435546875,210.0,32.0,152.0,102169.0,-7.006000518798828,0,0
196.340995,0.528167724609375,-0.44830322265625,0.584197998046875,0.422760009765625,0.1220703125,-0.3662109375,-0.06103515625,-0.99169921875,0.0211181640625,-0.0810546875,210.0,32.0,152.0,102169.0,-7.006000518798828,0,0
196.347993,0.5281982421875,-0.448272705078125,0.58416748046875,0.422760009765625,-0.244140625,0.67138671875,0.18310546875,-0.9957275390625,0.0157470703125,-0.07470703125,210.0,32.0,152.0,102169.0,-7.006000518798828,0,0
196.354993,0.5281982421875,-0.448272705078125,0.58416748046875,0.422760009765625,0.0,0.48828125,-0.244140625,-0.9942626953125,0.022216796875,-0.086669921875,210.0,32.0,152.0,102169.0,-7.006000518798828,0,0
196.361993,0.528167724609375,-0.448272705078125,0.584197998046875,0.422760009765625,0.06103515625,0.06103515625,-0.244140625,-0.9935302734375,0.0242919921875,-0.085693359375,210.0,32.0,152.0,102169.0,-7.006000518798828,0,0
196.368996,0.528167724609375,-0.44830322265625,0.584197998046875,0.422760009765625,-0.1220703125,0.30517578125,-0.42724609375,-0.99609375,0.0201416015625,-0.08544921875,210.0,32.0,152.0,102169.0,-7.006000518798828,0,0
196.375996,0.528167724609375,-0.44830322265625,0.584197998046875,0.4227294921875,-0.06103515625,-0.54931640625,0.1220703125,-0.99609375,0.016357421875,-0.0906982421875,210.0,32.0,152.0,102169.0,-7.006000518798828,0,0
196.382995,0.5281982421875,-0.448272705078125,0.584197998046875,0.4227294921875,0.18310546875,-0.42724609375,0.30517578125,-0.9947509765625,0.0238037109375,-0.077392578125,210.0,32.0,152.0,102169.0,-7.006000518798828,0,0
196.389995,0.528228759765625,-0.4482421875,0.58416748046875,0.422760009765625,-0.1220703125,0.8544921875,-0.1220703125,-0.99169921875,0.023193359375,-0.068359375,210.0,32.0,152.0,102169.0,-7.006000518798828,0,0
196.409995,0.5281982421875,-0.4482421875,0.584197998046875,0.42279052734375,-0.6103515625,-0.3662109375,-0.1220703125,-0.996826171875,0.01904296875,-0.0933837890625,210.0,32.0,152.0,102169.0,-7.006000518798828,0,0
196.416995,0.528228759765625,-0.448211669921875,0.584197998046875,0.422760009765625,0.732421875,-1.40380859375,0.244140625,-0.9967041015625,0.0137939453125,-0.0963134765625,210.0,32.0,152.0,102169.0,-7.006000518798828,0,0
196.423994,0.52825927734375,-0.448211669921875,0.58416748046875,0.42279052734375,-0.6103515625,-0.3662109375,0.06103515625,-0.9935302734375,0.0203857421875,-0.064697265625,209.0,33.0,153.0,102169.0,-7.006000518798828,0,0
196.430995,0.5283203125,-0.448150634765625,0.584197998046875,0.4227294921875,0.0,0.54931640625,0.54931640625,-0.99609375,0.012451171875,-0.0789794921875,209.0,33.0,153.0,102169.0,-7.006000518798828,0,0
196.437993,0.528289794921875,-0.4481201171875,0.584228515625,0.4227294921875,0.1220703125,0.732421875,-0.42724609375,-0.98876953125,0.0321044921875,-0.0843505859375,209.0,33.0,153.0,102169.0,-7.006000518798828,0,0
196.444993,0.528289794921875,-0.44818115234375,0.584228515625,0.422698974609375,-0.18310546875,1.28173828125,-0.42724609375,-0.996826171875,0.0172119140625,-0.091796875,209.0,33.0,153.0,102169.0,-7.006000518798828,0,0
196.451993,0.5283203125,-0.448150634765625,0.584228515625,0.42266845703125,0.8544921875,-3.0517578125,0.244140625,-1.00048828125,0.01220703125,-0.1129150390625,209.0,33.0,153.0,102169.0,-7.006000518798828,0,0
196.458996,0.52838134765625,-0.4481201171875,0.584197998046875,0.422698974609375,-0.48828125,-0.732421875,-0.1220703125,-0.9927978515625,0.0269775390625,-0.08447265625,209.0,33.0,153.0,102169.0,-7.006000518798828,0,0
196.465996,0.52838134765625,-0.4481201171875,0.584197998046875,0.422698974609375,0.3662109375,0.54931640625,0.30517578125,-0.9940185546875,0.02294921875,-0.085205078125,209.0,33.0,153.0,102169.0,-7.006000518798828,0,0
196.472995,0.5283203125,-0.4481201171875,0.584228515625,0.422698974609375,0.79345703125,0.48828125,-0.48828125,-0.9886474609375,0.0325927734375,-0.096923828125,209.0,33.0,153.0,102169.0,-7.00700044631958,0,0
196.479995,0.528350830078125,-0.44818115234375,0.584197998046875,0.42266845703125,0.1220703125,0.3662109375,-1.3427734375,-0.984619140625,0.0426025390625,-0.082275390625,209.0,33.0,153.0,102169.0,-7.00700044631958,0,0
196.486994,0.5283203125,-0.448211669921875,0.584228515625,0.422637939453125,-0.244140625,-0.732421875,0.3662109375,-0.9971923828125,0.0130615234375,-0.100341796875,209.0,33.0,153.0,102169.0,-7.00700044631958,0,0
196.493027,0.5283203125,-0.448211669921875,0.584228515625,0.422637939453125,-0.244140625,-0.732421875,0.3662109375,-0.9971923828125,0.0130615234375,-0.100341796875,209.0,33.0,153.0,102169.0,-7.00700044631958,0,0
196.499995,0.5283203125,-0.448211669921875,0.584228515625,0.422607421875,0.18310546875,-0.48828125,0.1220703125,-0.99267578125,0.0157470703125,-0.0928955078125,209.0,33.0,153.0,102169.0,-7.00700044631958,0,0
196.506995,0.5283203125,-0.44818115234375,0.584259033203125,0.422576904296875,1.15966796875,-0.30517578125,0.79345703125,-0.9935302734375,0.0179443359375,-0.0914306640625,209.0,33.0,153.0,102169.0,-7.00700044631958,0,0
196.513994,0.52838134765625,-0.4481201171875,0.584259033203125,0.422607421875,1.15966796875,0.30517578125,-0.18310546875,-0.988037109375,0.037109375,-0.0771484375,209.0,33.0,153.0,102169.0,-7.00700044631958,0,0
196.520999,0.52825927734375,-0.448211669921875,0.58428955078125,0.422607421875,-1.953125,1.77001953125,-0.30517578125,-0.9923095703125,0.0291748046875,-0.0826416015625,209.0,33.0,153.0,102169.0,-7.00700044631958,0,0
196.527994,0.528228759765625,-0.448211669921875,0.584320068359375,0.422576904296875,-0.244140625,0.54931640625,-0.48828125,-0.9913330078125,0.021240234375,-0.1031494140625,209.0,32.0,152.0,102169.0,-7.00700044631958,0,0
196.534994,0.52825927734375,-0.448150634765625,0.58441162109375,0.422515869140625,-0.67138671875,-0.42724609375,-1.40380859375,-0.9888916015625,0.0360107421875,-0.0938720703125,209.0,32.0,152.0,102169.0,-7.00700044631958,0,0
196.541997,0.5283203125,-0.448150634765625,0.5843505859375,0.4224853515625,0.48828125,-0.6103515625,0.42724609375,-0.99267578125,0.0250244140625,-0.0888671875,209.0,32.0,152.0,102169.0,-7.00700044631958,0,0
196.548997,0.528411865234375,-0.448089599609375,0.584320068359375,0.4224853515625,0.79345703125,-1.77001953125,0.244140625,-0.9913330078125,0.0140380859375,-0.078369140625,209.0,32.0,152.0,102169.0,-7.00700044631958,0,0
196.555996,0.52838134765625,-0.44805908203125,0.5843505859375,0.422515869140625,0.0,1.5869140625,0.244140625,-0.99267578125,0.0289306640625,-0.0662841796875,209.0,32.0,152.0,102169.0,-7.00700044631958,0,0
196.562995,0.528350830078125,-0.44805908203125,0.584381103515625,0.422515869140625,-0.67138671875,0.3662109375,-0.54931640625,-0.99267578125,0.030517578125,-0.0906982421875,209.0,32.0,152.0,102169.0,-7.00700044631958,0,0
196.583995,0.528289794921875,-0.448150634765625,0.5843505859375,0.422515869140625,-1.28173828125,-1.0986328125,0.06103515625,-0.995849609375,0.0211181640625,-0.090087890625,209.0,32.0,152.0,102169.0,-7.006000518798828,0,0
196.590026,0.528289794921875,-0.448150634765625,0.5843505859375,0.422515869140625,-1.28173828125,-1.0986328125,0.06103515625,-0.995849609375,0.0211181640625,-0.090087890625,209.0,32.0,152.0,102169.0,-7.006000518798828,0,0
196.596995,0.528350830078125,-0.4481201171875,0.58428955078125,0.422576904296875,0.244140625,-0.48828125,0.30517578125,-0.9959716796875,0.0181884765625,-0.0828857421875,209.0,32.0,152.0,102169.0,-7.006000518798828,0,0
196.603994,0.5283203125,-0.4481201171875,0.58428955078125,0.422607421875,-0.67138671875,1.0986328125,-0.54931640625,-0.9906005859375,0.02978515625,-0.06689453125,209.0,32.0,152.0,102169.0,-7.006000518798828,0,0
196.610995,0.528289794921875,-0.448150634765625,0.584320068359375,0.422576904296875,-0.3662109375,1.15966796875,-0.244140625,-0.994873046875,0.022705078125,-0.0950927734375,209.0,32.0,152.0,102169.0,-7.006000518798828,0,0
196.617993,0.52825927734375,-0.44818115234375,0.5843505859375,0.422576904296875,-0.1220703125,0.1220703125,-0.54931640625,-0.9923095703125,0.0260009765625,-0.1015625,209.0,32.0,152.0,102169.0,-7.006000518798828,0,0
196.624993,0.528228759765625,-0.448211669921875,0.5843505859375,0.42254638671875,0.06103515625,-0.79345703125,0.06103515625,-0.998046875,0.0108642578125,-0.0924072265625,208.0,33.0,152.0,102169.0,-7.006000518798828,0,0
196.631993,0.528350830078125,-0.44805908203125,0.58447265625,0.42236328125,-0.1220703125,-0.30517578125,0.54931640625,-0.997314453125,0.012451171875,-0.0814208984375,208.0,33.0,152.0,102169.0,-7.006000518798828,0,0
196.638996,0.528350830078125,-0.44805908203125,0.58447265625,0.422393798828125,0.06103515625,-0.30517578125,-0.1220703125,-0.9918212890625,0.0260009765625,-0.079345703125,208.0,33.0,152.0,102169.0,-7.006000518798828,0,0
196.645996,0.52838134765625,-0.448028564453125,0.584442138671875,0.42242431640625,-0.06103515625,1.03759765625,-0.1220703125,-0.9959716796875,0.021728515625,-0.0736083984375,208.0,33.0,152.0,102169.0,-7.006000518798828,0,0
196.652995,0.52838134765625,-0.448028564453125,0.584442138671875,0.42242431640625,-0.1220703125,0.6103515625,-0.1220703125,-0.9930419921875,0.021240234375,-0.08740234375,208.0,33.0,152.0,102169.0,-7.006000518798828,0,0
196.673995,0.528350830078125,-0.44805908203125,0.58447265625,0.422393798828125,-0.18310546875,-0.732421875,0.3662109375,-0.9945068359375,0.0185546875,-0.0877685546875,208.0,33.0,152.0,102169.0,-7.008000373840332,0,0
196.680026,0.528350830078125,-0.44805908203125,0.58447265625,0.422393798828125,-0.18310546875,-0.732421875,0.3662109375,-0.9945068359375,0.0185546875,-0.0877685546875,208.0,33.0,152.0,102169.0,-7.008000373840332,0,0
196.686995,0.52838134765625,-0.448028564453125,0.58447265625,0.42242431640625,0.0,1.0986328125,-0.06103515625,-0.9957275390625,0.0159912109375,-0.0833740234375,208.0,33.0,152.0,102169.0,-7.008000373840332,0,0
196.693994,0.528350830078125,-0.448028564453125,0.584503173828125,0.42242431640625,0.3662109375,0.79345703125,0.06103515625,-0.9945068359375,0.023681640625,-0.0863037109375,208.0,33.0,152.0,102169.0,-7.008000373840332,0,0
196.700995,0.528350830078125,-0.448028564453125,0.58447265625,0.42242431640625,0.0,0.1220703125,0.18310546875,-0.99951171875,0.011962890625,-0.0823974609375,208.0,33.0,152.0,102169.0,-7.008000373840332,0,0
196.707993,0.528350830078125,-0.44805908203125,0.58447265625,0.422393798828125,0.6103515625,-0.30517578125,0.79345703125,-0.9986572265625,0.009521484375,-0.090576171875,208.0,33.0,152.0,102169.0,-7.008000373840332,0,0
196.714993,0.52838134765625,-0.447967529296875,0.58447265625,0.422454833984375,0.06103515625,-1.40380859375,0.6103515625,-0.992431640625,0.0208740234375,-0.093994140625,208.0,33.0,152.0,102169.0,-7.008000373840332,0,0
196.721993,0.528411865234375,-0.447967529296875,0.58441162109375,0.422515869140625,-1.0986328125,1.5869140625,-0.244140625,-0.9967041015625,0.012939453125,-0.0660400390625,208.0,33.0,152.0,102169.0,-7.008000373840332,0,0
196.728996,0.528411865234375,-0.447967529296875,0.58441162109375,0.4224853515625,-0.42724609375,0.6103515625,0.0,-1.0003662109375,0.0169677734375,-0.093994140625,208.0,33.0,152.0,102169.0,-7.008000373840332,0,0
196.735996,0.5284423828125,-0.4478759765625,0.584564208984375,0.422393798828125,-0.244140625,-0.244140625,-0.06103515625,-0.9921875,0.0234375,-0.101806640625,208.0,33.0,152.0,102169.0,-7.008000373840332,0,0
196.756994,0.528472900390625,-0.4478759765625,0.58453369140625,0.42236328125,0.54931640625,-0.67138671875,-0.1220703125,-0.989990234375,0.0189208984375,-0.0712890625,208.0,33.0,152.0,102169.0,-7.008000373840332,0,0
196.763995,0.528472900390625,-0.447845458984375,0.58453369140625,0.422393798828125,-0.91552734375,0.48828125,-0.06103515625,-0.9947509765625,0.026123046875,-0.0882568359375,208.0,33.0,152.0,102169.0,-7.008000373840332,0,0
196.770026,0.528472900390625,-0.447845458984375,0.58453369140625,0.422393798828125,-0.91552734375,0.48828125,-0.06103515625,-0.9947509765625,0.026123046875,-0.0882568359375,208.0,33.0,152.0,102169.0,-7.008000373840332,0,0
196.776995,0.5284423828125,-0.4478759765625,0.58453369140625,0.42236328125,-0.30517578125,2.44140625,-0.30517578125,-0.9935302734375,0.0213623046875,-0.0692138671875,208.0,33.0,152.0,102169.0,-7.006000518798828,0,0
196.783994,0.528350830078125,-0.447967529296875,0.5845947265625,0.422332763671875,-0.18310546875,0.6103515625,0.244140625,-0.9967041015625,0.0162353515625,-0.1092529296875,208.0,33.0,152.0,102169.0,-7.006000518798828,0,0
196.790999,0.5284423828125,-0.447906494140625,0.58453369140625,0.422332763671875,0.6103515625,-1.28173828125,-0.42724609375,-0.99609375,0.0177001953125,-0.0718994140625,208.0,33.0,152.0,102169.0,-7.006000518798828,0,0
196.797994,0.528472900390625,-0.447906494140625,0.584503173828125,0.422332763671875,-0.3662109375,0.244140625,0.42724609375,-0.99951171875,0.006591796875,-0.07373046875,208.0,33.0,152.0,102169.0,-7.006000518798828,0,0
196.804994,0.52850341796875,-0.447845458984375,0.58453369140625,0.42236328125,0.6103515625,-0.06103515625,0.3662109375,-0.9879150390625,0.0321044921875,-0.0882568359375,208.0,33.0,152.0,102169.0,-7.006000518798828,0,0
196.811997,0.528472900390625,-0.4478759765625,0.58453369140625,0.422332763671875,-0.06103515625,2.50244140625,-0.54931640625,-0.9971923828125,0.0186767578125,-0.063720703125,208.0,33.0,152.0,102169.0,-7.006000518798828,0,0
196.818997,0.528472900390625,-0.44793701171875,0.584503173828125,0.42236328125,-1.5869140625,1.0986328125,0.0,-1.000732421875,0.010009765625,-0.0784912109375,208.0,33.0,152.0,102169.0,-7.006000518798828,0,0
196.825996,0.528411865234375,-0.447998046875,0.58453369140625,0.422332763671875,0.6103515625,-0.9765625,-0.48828125,-0.9918212890625,0.0224609375,-0.112548828125,210.0,34.0,152.0,102169.0,-7.006000518798828,0,0
196.846994,0.52874755859375,-0.447540283203125,0.584808349609375,0.422027587890625,-0.3662109375,-0.732421875,0.30517578125,-0.998046875,0.0189208984375,-0.067138671875,210.0,34.0,152.0,102169.0,-7.006000518798828,0,0
196.853999,0.528717041015625,-0.447540283203125,0.584808349609375,0.422027587890625,0.06103515625,1.28173828125,0.732421875,-0.999267578125,0.0164794921875,-0.0772705078125,210.0,34.0,152.0,102169.0,-7.006000518798828,0,0
196.860994,0.528656005859375,-0.447540283203125,0.5848388671875,0.42205810546875,-0.1220703125,1.40380859375,-0.54931640625,-0.99267578125,0.0281982421875,-0.0780029296875,210.0,34.0,152.0,102169.0,-7.006000518798828,0,0
196.867021,0.528656005859375,-0.447540283203125,0.5848388671875,0.42205810546875,-0.1220703125,1.40380859375,-0.54931640625,-0.99267578125,0.0281982421875,-0.0780029296875,210.0,34.0,152.0,102169.0,-7.006000518798828,0,0
196.873994,0.52862548828125,-0.447601318359375,0.584808349609375,0.422027587890625,-0.244140625,0.3662109375,-0.06103515625,-0.9942626953125,0.0164794921875,-0.091796875,210.0,34.0,152.0,102169.0,-7.006000518798828,0,0
196.880995,0.5286865234375,-0.447601318359375,0.58477783203125,0.42205810546875,-0.244140625,-1.708984375,-0.244140625,-0.993896484375,0.024658203125,-0.1070556640625,210.0,34.0,152.0,102169.0,-7.006000518798828,0,0
196.887993,0.528717041015625,-0.44757080078125,0.584747314453125,0.422088623046875,0.18310546875,0.30517578125,0.54931640625,-0.997802734375,0.0155029296875,-0.0670166015625,210.0,34.0,152.0,102169.0,-7.006000518798828,0,0
196.894993,0.528717041015625,-0.44757080078125,0.584747314453125,0.422088623046875,0.3662109375,0.48828125,0.48828125,-0.9942626953125,0.0177001953125,-0.08154296875,210.0,34.0,152.0,102169.0,-7.006000518798828,0,0
196.901993,0.528717041015625,-0.447540283203125,0.584747314453125,0.422119140625,-0.8544921875,0.732421875,-0.1220703125,-0.9996337890625,0.0074462890625,-0.0787353515625,210.0,34.0,152.0,102169.0,-7.006000518798828,0,0
196.908996,0.5286865234375,-0.44757080078125,0.584747314453125,0.422088623046875,0.1220703125,0.30517578125,-0.06103515625,-0.9954833984375,0.02294921875,-0.09521484375,210.0,34.0,152.0,102169.0,-7.006000518798828,0,0
196.915996,0.5286865234375,-0.44757080078125,0.584747314453125,0.42205810546875,-0.1220703125,-0.3662109375,0.06103515625,-0.99462890625,0.017578125,-0.0838623046875,210.0,34.0,152.0,102169.0,-7.006000518798828,0,0
196.936994,0.5286865234375,-0.44757080078125,0.58477783203125,0.422088623046875,-0.18310546875,-0.48828125,0.0,-0.9937744140625,0.0228271484375,-0.0882568359375,209.0,33.0,152.0,102169.0,-7.00700044631958,0,0
196.943995,0.528717041015625,-0.44757080078125,0.584747314453125,0.422088623046875,0.1220703125,0.42724609375,0.244140625,-0.998046875,0.0130615234375,-0.081787109375,209.0,33.0,152.0,102169.0,-7.00700044631958,0,0
196.950993,0.528717041015625,-0.44757080078125,0.584747314453125,0.422088623046875,-0.30517578125,0.732421875,-0.3662109375,-0.9925537109375,0.021240234375,-0.0849609375,209.0,33.0,152.0,102169.0,-7.00700044631958,0,0
196.957021,0.528717041015625,-0.44757080078125,0.584747314453125,0.422088623046875,-0.30517578125,0.732421875,-0.3662109375,-0.9925537109375,0.021240234375,-0.0849609375,209.0,33.0,152.0,102169.0,-7.00700044631958,0,0
196.963994,0.5286865234375,-0.44757080078125,0.58477783203125,0.42205810546875,0.0,-0.30517578125,0.1220703125,-0.995361328125,0.01611328125,-0.0904541015625,209.0,33.0,152.0,102169.0,-7.00700044631958,0,0
196.970995,0.5286865234375,-0.447601318359375,0.58477783203125,0.42205810546875,-0.06103515625,-0.79345703125,0.18310546875,-0.9947509765625,0.02001953125,-0.096435546875,209.0,33.0,152.0,102169.0,-7.00700044631958,0,0
196.977993,0.5286865234375,-0.44757080078125,0.584747314453125,0.422088623046875,-0.1220703125,0.30517578125,-0.18310546875,-0.9942626953125,0.0245361328125,-0.068115234375,209.0,33.0,152.0,102169.0,-7.00700044631958,0,0
196.984993,0.5286865234375,-0.44757080078125,0.58477783203125,0.422088623046875,-0.48828125,0.91552734375,0.1220703125,-0.9935302734375,0.01953125,-0.0697021484375,209.0,33.0,152.0,102169.0,-7.00700044631958,0,0
196.991993,0.5286865234375,-0.44757080078125,0.58477783203125,0.422088623046875,0.1220703125,-0.06103515625,0.06103515625,-0.9981689453125,0.01513671875,-0.0889892578125,209.0,33.0,152.0,102169.0,-7.00700044631958,0,0
196.998996,0.5286865234375,-0.44757080078125,0.584747314453125,0.42205810546875,-0.06103515625,0.3662109375,-0.1220703125,-0.9971923828125,0.018310546875,-0.0845947265625,209.0,33.0,152.0,102169.0,-7.00700044631958,0,0
197.019995,0.528717041015625,-0.447601318359375,0.584716796875,0.422088623046875,-0.06103515625,-0.3662109375,-0.244140625,-0.9949951171875,0.01611328125,-0.07470703125,209.0,33.0,152.0,102169.0,-7.00700044631958,0,0
197.026994,0.528717041015625,-0.447601318359375,0.584747314453125,0.422088623046875,0.0,0.54931640625,0.42724609375,-0.9964599609375,0.0172119140625,-0.084716796875,208.0,33.0,153.0,102169.0,-7.00700044631958,0,0
197.033995,0.528778076171875,-0.44744873046875,0.5848388671875,0.4219970703125,-0.91552734375,0.42724609375,-0.6103515625,-0.9932861328125,0.023681640625,-0.0802001953125,208.0,33.0,153.0,102169.0,-7.00700044631958,0,0
197.040993,0.52874755859375,-0.447540283203125,0.584869384765625,0.421905517578125,-0.06103515625,1.3427734375,-0.244140625,-0.9990234375,0.0140380859375,-0.0841064453125,208.0,33.0,153.0,102169.0,-7.00700044631958,0,0
197.047993,0.52874755859375,-0.447509765625,0.5848388671875,0.42193603515625,-0.1220703125,-1.220703125,-0.244140625,-0.9937744140625,0.0299072265625,-0.0885009765625,208.0,33.0,153.0,102169.0,-7.00700044631958,0,0
197.054025,0.52874755859375,-0.447509765625,0.5848388671875,0.42193603515625,-0.1220703125,-1.220703125,-0.244140625,-0.9937744140625,0.0299072265625,-0.0885009765625,208.0,33.0,153.0,102169.0,-7.00700044631958,0,0
197.060995,0.528778076171875,-0.447479248046875,0.584808349609375,0.422027587890625,0.54931640625,0.244140625,-0.732421875,-0.9852294921875,0.0433349609375,-0.076171875,208.0,33.0,153.0,102169.0,-7.00700044631958,0,0
197.067993,0.528778076171875,-0.44744873046875,0.584808349609375,0.422027587890625,0.1220703125,0.9765625,-0.79345703125,-0.9932861328125,0.0205078125,-0.0760498046875,208.0,33.0,153.0,102169.0,-7.00700044631958,0,0
197.074994,0.52874755859375,-0.447479248046875,0.584808349609375,0.422027587890625,-0.6103515625,1.220703125,0.48828125,-1.0025634765625,0.0087890625,-0.0814208984375,208.0,33.0,153.0,102169.0,-7.00700044631958,0,0
197.081997,0.52874755859375,-0.447479248046875,0.584808349609375,0.422027587890625,0.48828125,-0.3662109375,-0.3662109375,-0.99609375,0.0213623046875,-0.074951171875,208.0,33.0,153.0,102169.0,-7.00700044631958,0,0
197.088997,0.52874755859375,-0.447509765625,0.58477783203125,0.422027587890625,-0.48828125,1.708984375,0.1220703125,-0.9971923828125,0.0113525390625,-0.0625,208.0,33.0,153.0,102169.0,-7.00700044631958,0,0
197.095996,0.52874755859375,-0.447509765625,0.584808349609375,0.42205810546875,-0.6103515625,0.3662109375,0.79345703125,-0.998046875,0.01416015625,-0.0869140625,208.0,33.0,153.0,102169.0,-7.00700044631958,0,0
197.102995,0.52874755859375,-0.447479248046875,0.58477783203125,0.422088623046875,0.3662109375,0.54931640625,-0.6103515625,-0.9935302734375,0.0260009765625,-0.0689697265625,208.0,33.0,153.0,102169.0,-7.00700044631958,0,0
197.109995,0.528717041015625,-0.447509765625,0.58477783203125,0.42205810546875,0.06103515625,2.25830078125,0.30517578125,-0.9991455078125,0.00732421875,-0.0570068359375,208.0,33.0,153.0,102169.0,-7.00700044631958,0,0
197.116994,0.528717041015625,-0.447509765625,0.584808349609375,0.42205810546875,0.48828125,0.18310546875,0.3662109375,-0.989990234375,0.0255126953125,-0.0946044921875,208.0,33.0,153.0,102169.0,-7.00700044631958,0,0
197.123999,0.528656005859375,-0.447540283203125,0.5848388671875,0.422088623046875,-0.91552734375,1.52587890625,-0.6103515625,-0.9937744140625,0.019775390625,-0.0802001953125,208.0,33.0,153.0,102169.0,-7.00700044631958,0,0
197.130994,0.528656005859375,-0.447540283203125,0.584808349609375,0.422088623046875,-0.42724609375,0.3662109375,-0.30517578125,-0.9989013671875,0.018310546875,-0.080322265625,208.0,32.0,150.0,102169.0,-7.00700044631958,0,0
197.137994,0.528839111328125,-0.44732666015625,0.5849609375,0.421905517578125,0.48828125,-2.62451171875,0.18310546875,-0.9957275390625,0.0206298828125,-0.1004638671875,208.0,32.0,150.0,102169.0,-7.00700044631958,0,0
197.144026,0.528839111328125,-0.44732666015625,0.5849609375,0.421905517578125,0.48828125,-2.62451171875,0.18310546875,-0.9957275390625,0.0206298828125,-0.1004638671875,208.0,32.0,150.0,102169.0,-7.00700044631958,0,0
197.150999,0.52886962890625,-0.447235107421875,0.584991455078125,0.421905517578125,0.06103515625,0.67138671875,1.15966796875,-0.99951171875,0.005126953125,-0.0653076171875,208.0,32.0,150.0,102169.0,-7.00700044631958,0,0
197.157994,0.52886962890625,-0.447235107421875,0.584991455078125,0.421905517578125,-0.9765625,0.1220703125,-0.3662109375,-0.9921875,0.025390625,-0.08935546875,208.0,32.0,150.0,102169.0,-7.00700044631958,0,0
197.164993,0.52886962890625,-0.447235107421875,0.584991455078125,0.421905517578125,0.1220703125,0.48828125,-0.30517578125,-0.999267578125,0.01708984375,-0.0860595703125,208.0,32.0,150.0,102169.0,-7.00700044631958,0,0
197.171993,0.52886962890625,-0.44720458984375,0.584991455078125,0.42193603515625,0.42724609375,-0.30517578125,-0.48828125,-0.9923095703125,0.0283203125,-0.0792236328125,208.0,32.0,150.0,102169.0,-7.00700044631958,0,0
197.192995,0.528839111328125,-0.447265625,0.58502197265625,0.421875,-0.18310546875,-0.3662109375,-0.244140625,-0.9935302734375,0.0245361328125,-0.080322265625,208.0,32.0,150.0,102169.0,-7.00700044631958,0,0
197.199995,0.528839111328125,-0.447265625,0.58502197265625,0.421844482421875,0.1220703125,0.3662109375,0.0,-0.99755859375,0.016357421875,-0.0721435546875,208.0,32.0,150.0,102169.0,-7.00700044631958,0,0
197.206994,0.52880859375,-0.447265625,0.585052490234375,0.421875,0.0,0.67138671875,-0.30517578125,-0.9893798828125,0.02880859375,-0.085205078125,208.0,32.0,150.0,102169.0,-7.00700044631958,0,0
197.213995,0.52880859375,-0.447265625,0.585052490234375,0.421875,-0.3662109375,0.30517578125,-0.3662109375,-0.9951171875,0.0201416015625,-0.087890625,208.0,32.0,150.0,102169.0,-7.00700044631958,0,0
197.220993,0.528839111328125,-0.447265625,0.585052490234375,0.421844482421875,-0.1220703125,0.42724609375,-0.67138671875,-0.9937744140625,0.0233154296875,-0.082275390625,208.0,32.0,150.0,102169.0,-7.00700044631958,0,0
197.227993,0.528839111328125,-0.447265625,0.585052490234375,0.421844482421875,0.48828125,-0.91552734375,0.67138671875,-0.995849609375,0.0155029296875,-0.089599609375,209.0,31.0,151.0,102169.0,-7.00700044631958,0,0
197.234993,0.528717041015625,-0.44744873046875,0.58489990234375,0.422027587890625,-0.1220703125,-0.244140625,0.18310546875,-0.9937744140625,0.0184326171875,-0.083984375,209.0,31.0,151.0,102169.0,-7.00700044631958,0,0
197.24102,0.528717041015625,-0.44744873046875,0.58489990234375,0.422027587890625,-0.1220703125,-0.244140625,0.18310546875,-0.9937744140625,0.0184326171875,-0.083984375,209.0,31.0,151.0,102169.0,-7.00700044631958,0,0
197.247993,0.52874755859375,-0.447418212890625,0.584869384765625,0.422027587890625,-0.18310546875,0.06103515625,-0.1220703125,-0.9942626953125,0.0194091796875,-0.0860595703125,209.0,31.0,151.0,102169.0,-7.00700044631958,0,0
197.254993,0.52874755859375,-0.447418212890625,0.584869384765625,0.422027587890625,-0.3662109375,0.3662109375,-0.3662109375,-0.9952392578125,0.01953125,-0.08447265625,209.0,31.0,151.0,102169.0,-7.00700044631958,0,0
197.261993,0.52874755859375,-0.44744873046875,0.584869384765625,0.4219970703125,0.06103515625,0.06103515625,0.244140625,-0.99658203125,0.017822265625,-0.0841064453125,209.0,31.0,151.0,102169.0,-7.00700044631958,0,0
197.282995,0.528778076171875,-0.447418212890625,0.5848388671875,0.422027587890625,0.06103515625,0.6103515625,0.30517578125,-0.998291015625,0.01318359375,-0.09228515625,209.0,31.0,151.0,102169.0,-7.00700044631958,0,0
197.289995,0.528778076171875,-0.447418212890625,0.584869384765625,0.422027587890625,0.0,0.244140625,-0.244140625,-0.9940185546875,0.0269775390625,-0.08447265625,209.0,31.0,151.0,102169.0,-7.00700044631958,0,0
197.296994,0.52880859375,-0.44744873046875,0.5848388671875,0.421966552734375,0.06103515625,0.06103515625,0.0,-1.001220703125,0.001953125,-0.087646484375,209.0,31.0,151.0,102169.0,-7.00700044631958,0,0
197.303995,0.528778076171875,-0.44744873046875,0.584869384765625,0.421966552734375,-0.3662109375,-0.8544921875,-0.3662109375,-0.98974609375,0.02490234375,-0.0853271484375,209.0,31.0,151.0,102169.0,-7.00700044631958,0,0
197.310993,0.52880859375,-0.447418212890625,0.5848388671875,0.4219970703125,0.30517578125,-0.9765625,0.6103515625,-0.9993896484375,0.010009765625,-0.0927734375,209.0,31.0,151.0,102169.0,-7.00700044631958,0,0
197.317993,0.528778076171875,-0.44744873046875,0.5848388671875,0.4219970703125,-0.732421875,1.3427734375,-0.244140625,-0.995849609375,0.0224609375,-0.07470703125,209.0,31.0,151.0,102169.0,-7.00700044631958,0,0
197.324993,0.528778076171875,-0.447418212890625,0.5848388671875,0.422027587890625,-0.18310546875,0.30517578125,-0.30517578125,-0.9918212890625,0.033203125,-0.08349609375,209.0,31.0,151.0,102169.0,-7.006000518798828,0,0
197.33102,0.528778076171875,-0.447418212890625,0.5848388671875,0.422027587890625,-0.18310546875,0.30517578125,-0.30517578125,-0.9918212890625,0.033203125,-0.08349609375,209.0,31.0,151.0,102169.0,-7.006000518798828,0,0
197.337993,0.528533935546875,-0.447784423828125,0.5845947265625,0.422271728515625,-0.67138671875,0.06103515625,0.244140625,-0.9979248046875,0.0062255859375,-0.093017578125,209.0,30.0,150.0,102169.0,-7.006000518798828,0,0
197.344993,0.528564453125,-0.447784423828125,0.5845947265625,0.4222412109375,-0.3662109375,-0.18310546875,0.48828125,-0.9984130859375,0.0081787109375,-0.075927734375,209.0,30.0,150.0,102169.0,-7.006000518798828,0,0
197.351993,0.528533935546875,-0.447784423828125,0.584625244140625,0.4222412109375,0.0,1.46484375,0.18310546875,-0.9935302734375,0.02197265625,-0.0672607421875,209.0,30.0,150.0,102169.0,-7.006000518798828,0,0
197.358996,0.52850341796875,-0.44781494140625,0.58465576171875,0.422210693359375,0.6103515625,-0.79345703125,0.244140625,-0.9971923828125,0.017578125,-0.1014404296875,209.0,30.0,150.0,102169.0,-7.006000518798828,0,0
197.365996,0.528533935546875,-0.447784423828125,0.58465576171875,0.4222412109375,-0.06103515625,-0.1220703125,-0.67138671875,-0.9971923828125,0.0169677734375,-0.0836181640625,209.0,30.0,150.0,102169.0,-7.006000518798828,0,0
197.372995,0.528564453125,-0.447784423828125,0.5845947265625,0.4222412109375,0.0,1.15966796875,0.67138671875,-1.0032958984375,0.008056640625,-0.0809326171875,209.0,30.0,150.0,102169.0,-7.006000518798828,0,0
197.379995,0.528533935546875,-0.447784423828125,0.58465576171875,0.422210693359375,-0.06103515625,1.28173828125,0.8544921875,-0.9989013671875,0.0174560546875,-0.0938720703125,209.0,30.0,150.0,102169.0,-7.006000518798828,0,0
197.386994,0.52850341796875,-0.447784423828125,0.584686279296875,0.422210693359375,0.1220703125,-0.42724609375,-0.6103515625,-0.991455078125,0.0235595703125,-0.0814208984375,209.0,30.0,150.0,102169.0,-7.006000518798828,0,0
197.393999,0.52850341796875,-0.447784423828125,0.584686279296875,0.422210693359375,-0.54931640625,0.42724609375,0.0,-0.994384765625,0.022216796875,-0.0872802734375,209.0,30.0,150.0,102169.0,-7.006000518798828,0,0
197.400994,0.528472900390625,-0.447784423828125,0.584686279296875,0.422210693359375,-0.1220703125,0.0,0.06103515625,-0.9937744140625,0.020263671875,-0.0887451171875,209.0,30.0,150.0,102169.0,-7.006000518798828,0,0
197.407994,0.528533935546875,-0.447784423828125,0.58465576171875,0.4222412109375,-0.67138671875,-0.18310546875,0.1220703125,-1.0009765625,0.009521484375,-0.09375,209.0,30.0,150.0,102169.0,-7.006000518798828,0,0
197.414997,0.52850341796875,-0.44781494140625,0.584686279296875,0.422210693359375,-0.42724609375,-0.732421875,0.3662109375,-0.9949951171875,0.018310546875,-0.1025390625,209.0,30.0,150.0,102169.0,-7.006000518798828,0,0
197.421997,0.52850341796875,-0.447784423828125,0.58465576171875,0.4222412109375,-0.30517578125,-0.8544921875,-1.03759765625,-0.9862060546875,0.0386962890625,-0.0855712890625,209.0,30.0,150.0,102169.0,-7.006000518798828,0,0
197.428029,0.52850341796875,-0.447784423828125,0.58465576171875,0.4222412109375,-0.30517578125,-0.8544921875,-1.03759765625,-0.9862060546875,0.0386962890625,-0.0855712890625,209.0,30.0,150.0,102169.0,-7.006000518798828,0,0
197.434994,0.528564453125,-0.447723388671875,0.584716796875,0.422119140625,-0.42724609375,-0.48828125,-0.42724609375,-0.990234375,0.0267333984375,-0.0968017578125,209.0,33.0,149.0,102169.0,-7.006000518798828,0,0
197.455996,0.528533935546875,-0.44775390625,0.584747314453125,0.422119140625,0.42724609375,-1.40380859375,-0.244140625,-0.99267578125,0.0220947265625,-0.099853515625,209.0,33.0,149.0,102169.0,-7.006000518798828,0,0
197.462995,0.528594970703125,-0.44775390625,0.584686279296875,0.422088623046875,0.06103515625,-0.6103515625,0.06103515625,-0.993896484375,0.0181884765625,-0.0784912109375,209.0,33.0,149.0,102169.0,-7.006000518798828,0,0
197.469995,0.528594970703125,-0.44775390625,0.584716796875,0.422088623046875,0.06103515625,0.1220703125,0.48828125,-0.992919921875,0.025634765625,-0.08251953125,209.0,33.0,149.0,102169.0,-7.006000518798828,0,0
197.476994,0.528564453125,-0.44775390625,0.584716796875,0.422119140625,-0.67138671875,1.15966796875,-0.54931640625,-0.9879150390625,0.036865234375,-0.0728759765625,209.0,33.0,149.0,102169.0,-7.006000518798828,0,0
197.483995,0.528533935546875,-0.44775390625,0.584747314453125,0.422119140625,-0.42724609375,0.1220703125,-0.8544921875,-0.99169921875,0.0289306640625,-0.086669921875,209.0,33.0,149.0,102169.0,-7.006000518798828,0,0
197.490993,0.528533935546875,-0.44775390625,0.584747314453125,0.422119140625,0.0,-0.732421875,-0.30517578125,-0.993896484375,0.0150146484375,-0.0909423828125,209.0,33.0,149.0,102169.0,-7.006000518798828,0,0
197.497993,0.528564453125,-0.44775390625,0.584716796875,0.422149658203125,-0.30517578125,-1.03759765625,-0.3662109375,-0.9945068359375,0.0244140625,-0.08349609375,209.0,33.0,149.0,102169.0,-7.006000518798828,0,0
197.504993,0.528564453125,-0.44775390625,0.584686279296875,0.422149658203125,0.1220703125,-0.79345703125,0.42724609375,-0.99609375,0.0230712890625,-0.0849609375,209.0,33.0,149.0,102169.0,-7.006000518798828,0,0
197.511996,0.528594970703125,-0.447723388671875,0.58465576171875,0.42218017578125,0.54931640625,0.3662109375,-0.18310546875,-0.991943359375,0.023193359375,-0.075927734375,209.0,33.0,149.0,102169.0,-7.006000518798828,0,0
197.518029,0.528594970703125,-0.447723388671875,0.58465576171875,0.42218017578125,0.54931640625,0.3662109375,-0.18310546875,-0.991943359375,0.023193359375,-0.075927734375,209.0,33.0,149.0,102169.0,-7.006000518798828,0,0
197.524993,0.528533935546875,-0.447784423828125,0.584716796875,0.422149658203125,-0.42724609375,0.3662109375,-0.30517578125,-0.99755859375,0.0157470703125,-0.09716796875,209.0,33.0,149.0,102169.0,-7.006000518798828,0,0
