Time stamp(sec),quaternion_0,quaternion_1,quaternion_2,quaternion_3,roll_angular_rate,pitch_angular_rate,yaw_angular_rate,acc_X,acc_Y,acc_Z,mag_X,mag_Y,mag_Z,pressure,altitude
123.716995,0.2833251953125,-0.74737548828125,0.58087158203125,-0.1539306640625,2.13623046875,-1.89208984375,1.8310546875,-0.0640869140625,-0.55859375,-0.8406982421875,-205.0,106.0,253.0,102190.0,-7.180000305175781,0,0
123.723995,0.283355712890625,-0.747406005859375,0.580841064453125,-0.153778076171875,-2.197265625,2.01416015625,-2.25830078125,-0.1226806640625,-0.5706787109375,-0.749267578125,-204.0,107.0,254.0,102190.0,-7.180000305175781,0,0
123.730994,0.283660888671875,-0.747650146484375,0.580322265625,-0.154083251953125,3.0517578125,2.5634765625,3.11279296875,-0.0645751953125,-0.6728515625,-0.7877197265625,-204.0,107.0,254.0,102190.0,-7.180000305175781,0,0
123.737995,0.28369140625,-0.747528076171875,0.580413818359375,-0.154266357421875,-5.615234375,4.0283203125,3.41796875,-0.0919189453125,-0.695556640625,-0.7255859375,-204.0,107.0,254.0,102190.0,-7.180000305175781,0,0
123.744993,0.283416748046875,-0.74755859375,0.580474853515625,-0.15435791015625,6.34765625,2.8076171875,-6.65283203125,-0.1358642578125,-0.5322265625,-0.8001708984375,-204.0,107.0,254.0,102190.0,-7.180000305175781,0,0
123.751993,0.283477783203125,-0.74755859375,0.580413818359375,-0.15447998046875,3.2958984375,-0.6103515625,0.1220703125,-0.0673828125,-0.6099853515625,-0.7943115234375,-204.0,107.0,254.0,102190.0,-7.180000305175781,0,0
123.758997,0.283416748046875,-0.747711181640625,0.580322265625,-0.154205322265625,-0.91552734375,-5.4931640625,2.3193359375,-0.0875244140625,-0.5738525390625,-0.81689453125,-204.0,107.0,254.0,102190.0,-7.180000305175781,0,0
123.765997,0.28338623046875,-0.74774169921875,0.580322265625,-0.154205322265625,-0.42724609375,0.48828125,-0.91552734375,-0.0936279296875,-0.603515625,-0.817626953125,-204.0,107.0,254.0,102190.0,-7.180000305175781,0,0
123.772996,0.2833251953125,-0.74774169921875,0.580322265625,-0.154144287109375,-4.08935546875,-0.30517578125,0.732421875,-0.0914306640625,-0.6134033203125,-0.7718505859375,-204.0,107.0,254.0,102190.0,-7.179000377655029,0,0
123.779995,0.283203125,-0.74774169921875,0.580413818359375,-0.154083251953125,-5.0048828125,-1.52587890625,4.69970703125,-0.0787353515625,-0.59033203125,-0.7816162109375,-204.0,107.0,254.0,102190.0,-7.179000377655029,0,0
123.786995,0.283355712890625,-0.747650146484375,0.580413818359375,-0.154296875,5.92041015625,0.9765625,2.25830078125,-0.068115234375,-0.6280517578125,-0.790771484375,-204.0,107.0,254.0,102190.0,-7.179000377655029,0,0
123.793994,0.283111572265625,-0.747772216796875,0.58038330078125,-0.154205322265625,-1.3427734375,1.46484375,-2.0751953125,-0.1221923828125,-0.5506591796875,-0.75048828125,-204.0,107.0,254.0,102190.0,-7.179000377655029,0,0
123.813995,0.28326416015625,-0.74761962890625,0.58050537109375,-0.15423583984375,-1.03759765625,-1.64794921875,4.94384765625,-0.091064453125,-0.6156005859375,-0.754150390625,-204.0,107.0,254.0,102190.0,-7.179000377655029,0,0
123.820994,0.283203125,-0.74749755859375,0.580596923828125,-0.15460205078125,-1.03759765625,-1.64794921875,4.94384765625,-0.091064453125,-0.6156005859375,-0.754150390625,-204.0,107.0,254.0,102190.0,-7.179000377655029,0,0
123.827999,0.28338623046875,-0.7484130859375,0.5794677734375,-0.154022216796875,-10.07080078125,1.89208984375,7.75146484375,-0.0899658203125,-0.66796875,-0.75390625,-205.0,105.0,253.0,102190.0,-7.179000377655029,0,0
123.834994,0.28326416015625,-0.748291015625,0.5797119140625,-0.1539306640625,-10.07080078125,1.89208984375,7.75146484375,-0.0899658203125,-0.66796875,-0.75390625,-205.0,105.0,253.0,102190.0,-7.179000377655029,0,0
123.841994,0.283599853515625,-0.748138427734375,0.5797119140625,-0.154052734375,11.962890625,0.79345703125,-2.86865234375,-0.06201171875,-0.612060546875,-0.8212890625,-205.0,105.0,253.0,102190.0,-7.179000377655029,0,0
123.848997,0.28350830078125,-0.748138427734375,0.579742431640625,-0.154144287109375,-0.6103515625,2.8076171875,0.48828125,-0.0810546875,-0.60400390625,-0.7938232421875,-205.0,105.0,253.0,102190.0,-7.179000377655029,0,0
123.855996,0.2833251953125,-0.74822998046875,0.579742431640625,-0.15399169921875,-7.32421875,-0.3662109375,0.244140625,-0.0911865234375,-0.59033203125,-0.76904296875,-205.0,105.0,253.0,102190.0,-7.179000377655029,0,0
123.862996,0.283416748046875,-0.748260498046875,0.579681396484375,-0.1539306640625,3.7841796875,-2.99072265625,1.03759765625,-0.096923828125,-0.6156005859375,-0.8388671875,-205.0,105.0,253.0,102190.0,-7.179000377655029,0,0
123.869995,0.283355712890625,-0.748260498046875,0.579742431640625,-0.153778076171875,-7.2021484375,-0.6103515625,1.64794921875,-0.10791015625,-0.6275634765625,-0.758544921875,-205.0,105.0,253.0,102190.0,-7.180000305175781,0,0
123.876995,0.283416748046875,-0.748199462890625,0.5797119140625,-0.154052734375,3.35693359375,4.08935546875,-4.7607421875,-0.114501953125,-0.536865234375,-0.779541015625,-205.0,105.0,253.0,102190.0,-7.180000305175781,0,0
123.883994,0.283355712890625,-0.748077392578125,0.579803466796875,-0.154449462890625,-4.33349609375,1.64794921875,4.94384765625,-0.0750732421875,-0.671142578125,-0.7728271484375,-205.0,105.0,253.0,102190.0,-7.180000305175781,0,0
123.903995,0.28350830078125,-0.748199462890625,0.579498291015625,-0.15472412109375,-1.64794921875,-1.953125,1.46484375,-0.0740966796875,-0.673095703125,-0.7567138671875,-205.0,105.0,253.0,102190.0,-7.180000305175781,0,0
123.910994,0.28350830078125,-0.74810791015625,0.57965087890625,-0.154571533203125,-4.638671875,0.3662109375,2.50244140625,-0.1279296875,-0.63134765625,-0.7535400390625,-205.0,105.0,253.0,102190.0,-7.180000305175781,0,0
123.917995,0.2835693359375,-0.748016357421875,0.579742431640625,-0.1546630859375,6.28662109375,1.52587890625,3.11279296875,-0.0947265625,-0.5999755859375,-0.8316650390625,-205.0,105.0,253.0,102190.0,-7.180000305175781,0,0
123.924993,0.283416748046875,-0.74798583984375,0.579742431640625,-0.155029296875,1.64794921875,5.18798828125,0.3662109375,-0.06884765625,-0.5899658203125,-0.7919921875,-206.0,107.0,252.0,102190.0,-7.180000305175781,0,0
123.931993,0.283447265625,-0.74847412109375,0.579193115234375,-0.154632568359375,-2.86865234375,1.52587890625,-0.91552734375,-0.1041259765625,-0.5986328125,-0.781005859375,-206.0,107.0,252.0,102190.0,-7.180000305175781,0,0
123.938993,0.28363037109375,-0.748504638671875,0.5791015625,-0.15447998046875,3.0517578125,-5.79833984375,-1.46484375,-0.11572265625,-0.5777587890625,-0.7928466796875,-206.0,107.0,252.0,102190.0,-7.180000305175781,0,0
123.945996,0.2835693359375,-0.748504638671875,0.579132080078125,-0.154510498046875,-1.15966796875,0.91552734375,1.64794921875,-0.0738525390625,-0.6278076171875,-0.78125,-206.0,107.0,252.0,102190.0,-7.180000305175781,0,0
123.952996,0.283477783203125,-0.748565673828125,0.579132080078125,-0.154510498046875,-0.732421875,1.953125,-1.64794921875,-0.1119384765625,-0.5750732421875,-0.7869873046875,-206.0,107.0,252.0,102190.0,-7.180000305175781,0,0
123.959995,0.283538818359375,-0.748504638671875,0.5791015625,-0.15460205078125,4.7607421875,1.220703125,0.0,-0.08544921875,-0.5848388671875,-0.79638671875,-206.0,107.0,252.0,102190.0,-7.180000305175781,0,0
123.966995,0.28350830078125,-0.74853515625,0.5791015625,-0.154541015625,-1.40380859375,-0.1220703125,-0.6103515625,-0.0977783203125,-0.576171875,-0.770751953125,-206.0,107.0,252.0,102190.0,-7.180000305175781,0,0
123.973994,0.28350830078125,-0.748565673828125,0.5791015625,-0.154571533203125,-0.91552734375,-0.732421875,0.42724609375,-0.08984375,-0.6129150390625,-0.7967529296875,-206.0,107.0,252.0,102190.0,-7.176000118255615,0,0
123.980995,0.283477783203125,-0.748626708984375,0.57904052734375,-0.1544189453125,-1.5869140625,-0.48828125,-2.01416015625,-0.118408203125,-0.593017578125,-0.78466796875,-206.0,107.0,252.0,102190.0,-7.176000118255615,0,0
123.987026,0.283477783203125,-0.748626708984375,0.57904052734375,-0.1544189453125,-1.5869140625,-0.48828125,-2.01416015625,-0.118408203125,-0.593017578125,-0.78466796875,-206.0,107.0,252.0,102190.0,-7.176000118255615,0,0
123.993995,0.283538818359375,-0.748626708984375,0.579010009765625,-0.15435791015625,1.52587890625,2.3193359375,-3.47900390625,-0.125244140625,-0.5909423828125,-0.7716064453125,-206.0,107.0,252.0,102190.0,-7.176000118255615,0,0
124.000994,0.283416748046875,-0.74859619140625,0.579071044921875,-0.154571533203125,-5.9814453125,0.8544921875,0.54931640625,-0.1260986328125,-0.5804443359375,-0.7645263671875,-206.0,107.0,252.0,102190.0,-7.176000118255615,0,0
124.007995,0.283416748046875,-0.748565673828125,0.57916259765625,-0.1544189453125,-2.86865234375,-0.30517578125,2.0751953125,-0.1285400390625,-0.604248046875,-0.7996826171875,-206.0,107.0,252.0,102190.0,-7.176000118255615,0,0
124.014993,0.283538818359375,-0.74859619140625,0.5791015625,-0.15423583984375,3.2958984375,-0.9765625,-0.244140625,-0.13037109375,-0.560791015625,-0.808837890625,-206.0,107.0,252.0,102190.0,-7.176000118255615,0,0
124.021993,0.28350830078125,-0.74859619140625,0.5791015625,-0.154296875,-4.7607421875,-1.28173828125,2.685546875,-0.0660400390625,-0.63232421875,-0.7625732421875,-206.0,107.0,252.0,102190.0,-7.176000118255615,0,0
124.028993,0.283447265625,-0.74859619140625,0.57916259765625,-0.15423583984375,-7.4462890625,1.8310546875,-0.9765625,-0.1318359375,-0.63916015625,-0.7398681640625,-206.0,106.0,252.0,102190.0,-7.176000118255615,0,0
124.035996,0.28363037109375,-0.74847412109375,0.579193115234375,-0.15435791015625,4.150390625,1.03759765625,0.48828125,-0.1212158203125,-0.6343994140625,-0.78564453125,-206.0,106.0,252.0,102190.0,-7.176000118255615,0,0
124.042996,0.283660888671875,-0.748382568359375,0.579345703125,-0.154205322265625,5.55419921875,-0.8544921875,2.62451171875,-0.087890625,-0.5533447265625,-0.7772216796875,-206.0,106.0,252.0,102190.0,-7.176000118255615,0,0
124.049995,0.283660888671875,-0.748321533203125,0.579315185546875,-0.15460205078125,1.89208984375,4.57763671875,-4.2724609375,-0.14794921875,-0.566162109375,-0.7730712890625,-206.0,106.0,252.0,102190.0,-7.176000118255615,0,0
124.056995,0.283660888671875,-0.748260498046875,0.579376220703125,-0.15460205078125,0.0,2.197265625,1.15966796875,-0.111572265625,-0.6044921875,-0.785400390625,-206.0,106.0,252.0,102190.0,-7.176000118255615,0,0
124.077031,0.28369140625,-0.748291015625,0.57940673828125,-0.15435791015625,-0.6103515625,-2.0751953125,0.54931640625,-0.1060791015625,-0.61181640625,-0.8253173828125,-206.0,106.0,252.0,102190.0,-7.177000522613525,0,0
124.083995,0.283599853515625,-0.7484130859375,0.579315185546875,-0.15423583984375,-1.52587890625,2.86865234375,-5.92041015625,-0.1202392578125,-0.6126708984375,-0.8148193359375,-206.0,106.0,252.0,102190.0,-7.177000522613525,0,0
124.090994,0.28375244140625,-0.748382568359375,0.57928466796875,-0.15423583984375,3.7841796875,-0.91552734375,0.244140625,-0.06982421875,-0.628662109375,-0.828369140625,-206.0,106.0,252.0,102190.0,-7.177000522613525,0,0
124.097999,0.283660888671875,-0.748504638671875,0.57928466796875,-0.153778076171875,-10.6201171875,-5.9814453125,-0.18310546875,-0.1279296875,-0.5670166015625,-0.7523193359375,-206.0,106.0,252.0,102190.0,-7.177000522613525,0,0
124.104994,0.28375244140625,-0.74853515625,0.579193115234375,-0.153778076171875,4.39453125,-2.74658203125,-2.3193359375,-0.0751953125,-0.5926513671875,-0.8072509765625,-206.0,106.0,252.0,102190.0,-7.177000522613525,0,0
124.111994,0.283782958984375,-0.748504638671875,0.579193115234375,-0.15399169921875,2.86865234375,5.79833984375,-1.46484375,-0.1112060546875,-0.5780029296875,-0.7291259765625,-206.0,106.0,252.0,102190.0,-7.177000522613525,0,0
124.118997,0.28363037109375,-0.748504638671875,0.579193115234375,-0.15411376953125,0.06103515625,4.21142578125,-1.708984375,-0.084716796875,-0.5736083984375,-0.7691650390625,-206.0,106.0,252.0,102190.0,-7.177000522613525,0,0
124.125997,0.283660888671875,-0.74853515625,0.5791015625,-0.154266357421875,4.2724609375,-0.06103515625,-2.62451171875,-0.1068115234375,-0.62109375,-0.79296875,-207.0,107.0,251.0,102190.0,-7.177000522613525,0,0
124.132996,0.283721923828125,-0.748504638671875,0.57916259765625,-0.154052734375,-0.732421875,-3.23486328125,1.46484375,-0.099609375,-0.55615234375,-0.7574462890625,-207.0,107.0,251.0,102190.0,-7.177000522613525,0,0
124.139995,0.2838134765625,-0.748504638671875,0.579071044921875,-0.154266357421875,8.7890625,3.2958984375,-1.89208984375,-0.08544921875,-0.6104736328125,-0.797607421875,-207.0,107.0,251.0,102190.0,-7.177000522613525,0,0
124.146995,0.28375244140625,-0.7484130859375,0.579193115234375,-0.154327392578125,-0.244140625,2.5634765625,1.52587890625,-0.0897216796875,-0.650634765625,-0.778076171875,-207.0,107.0,251.0,102190.0,-7.177000522613525,0,0
124.167993,0.283782958984375,-0.748504638671875,0.579193115234375,-0.15386962890625,-0.3662109375,-3.173828125,3.2958984375,-0.0833740234375,-0.6240234375,-0.7786865234375,-207.0,107.0,251.0,102190.0,-7.177000522613525,0,0
124.174021,0.283782958984375,-0.748504638671875,0.579193115234375,-0.15386962890625,-0.3662109375,-3.173828125,3.2958984375,-0.0833740234375,-0.6240234375,-0.7786865234375,-207.0,107.0,251.0,102190.0,-7.177000522613525,0,0
124.180994,0.283843994140625,-0.748382568359375,0.579345703125,-0.1539306640625,-2.13623046875,1.46484375,0.06103515625,-0.1126708984375,-0.6163330078125,-0.7698974609375,-207.0,107.0,251.0,102190.0,-7.177000522613525,0,0
124.187995,0.28375244140625,-0.748291015625,0.579376220703125,-0.154205322265625,-4.0283203125,4.638671875,1.0986328125,-0.0926513671875,-0.64990234375,-0.74365234375,-207.0,107.0,251.0,102190.0,-7.177000522613525,0,0
124.250995,0.284027099609375,-0.74853515625,0.5791015625,-0.15362548828125,-0.67138671875,1.0986328125,0.0,-0.0965576171875,-0.60546875,-0.7742919921875,-208.0,106.0,251.0,102190.0,-7.177000522613525,0,0
124.257993,0.283966064453125,-0.748504638671875,0.579132080078125,-0.15374755859375,0.244140625,1.28173828125,-0.244140625,-0.10546875,-0.598876953125,-0.782958984375,-208.0,106.0,251.0,102190.0,-7.177000522613525,0,0
124.264021,0.283966064453125,-0.748504638671875,0.579132080078125,-0.15374755859375,0.244140625,1.28173828125,-0.244140625,-0.10546875,-0.598876953125,-0.782958984375,-208.0,106.0,251.0,102190.0,-7.177000522613525,0,0
124.270994,0.283935546875,-0.74853515625,0.579132080078125,-0.15374755859375,2.197265625,0.1220703125,-1.40380859375,-0.1068115234375,-0.5745849609375,-0.7979736328125,-208.0,106.0,251.0,102190.0,-7.179000377655029,0,0
124.333994,0.28338623046875,-0.74884033203125,0.57904052734375,-0.153656005859375,-0.6103515625,-3.47900390625,3.0517578125,-0.05419921875,-0.5972900390625,-0.7900390625,-208.0,106.0,251.0,102190.0,-7.179000377655029,0,0
124.340995,0.283447265625,-0.74884033203125,0.578887939453125,-0.154022216796875,6.53076171875,5.06591796875,-3.41796875,-0.0819091796875,-0.6038818359375,-0.793701171875,-208.0,106.0,251.0,102190.0,-7.179000377655029,0,0
124.347993,0.283538818359375,-0.74871826171875,0.57891845703125,-0.15447998046875,5.4931640625,3.2958984375,0.42724609375,-0.0830078125,-0.608154296875,-0.80078125,-208.0,106.0,251.0,102190.0,-7.179000377655029,0,0
124.354993,0.283477783203125,-0.7486572265625,0.579010009765625,-0.154388427734375,-0.6103515625,-0.67138671875,3.35693359375,-0.0853271484375,-0.568359375,-0.7886962890625,-208.0,106.0,251.0,102190.0,-7.179000377655029,0,0
124.361025,0.283477783203125,-0.7486572265625,0.579010009765625,-0.154388427734375,-0.6103515625,-0.67138671875,3.35693359375,-0.0853271484375,-0.568359375,-0.7886962890625,-208.0,106.0,251.0,102190.0,-7.179000377655029,0,0
124.367999,0.2835693359375,-0.7486572265625,0.578948974609375,-0.154571533203125,3.0517578125,-0.06103515625,2.01416015625,-0.075927734375,-0.614501953125,-0.8463134765625,-208.0,106.0,251.0,102190.0,-7.177000522613525,0,0
124.374994,0.283477783203125,-0.748626708984375,0.57904052734375,-0.154510498046875,-4.82177734375,3.35693359375,-2.197265625,-0.12646484375,-0.5289306640625,-0.7503662109375,-208.0,106.0,251.0,102190.0,-7.177000522613525,0,0
124.381994,0.283172607421875,-0.748779296875,0.57891845703125,-0.15472412109375,0.18310546875,2.01416015625,-3.60107421875,-0.0875244140625,-0.60205078125,-0.8197021484375,-208.0,106.0,251.0,102190.0,-7.177000522613525,0,0
124.388997,0.283477783203125,-0.748931884765625,0.57855224609375,-0.154815673828125,1.40380859375,-5.67626953125,-2.5634765625,-0.0750732421875,-0.5916748046875,-0.7852783203125,-208.0,106.0,251.0,102190.0,-7.177000522613525,0,0
124.395997,0.283355712890625,-0.748931884765625,0.5787353515625,-0.15435791015625,-10.7421875,-7.080078125,8.23974609375,-0.0830078125,-0.6204833984375,-0.813720703125,-208.0,106.0,251.0,102190.0,-7.177000522613525,0,0
124.402996,0.283355712890625,-0.748779296875,0.578826904296875,-0.15472412109375,-7.14111328125,5.43212890625,-3.47900390625,-0.1558837890625,-0.612548828125,-0.7391357421875,-208.0,106.0,251.0,102190.0,-7.177000522613525,0,0
124.423994,0.283447265625,-0.74896240234375,0.578582763671875,-0.15460205078125,1.28173828125,-3.47900390625,2.0751953125,-0.0865478515625,-0.617919921875,-0.8114013671875,-207.0,106.0,250.0,102190.0,-7.177000522613525,0,0
124.430999,0.283447265625,-0.748931884765625,0.578582763671875,-0.154693603515625,-1.0986328125,-0.732421875,2.197265625,-0.053955078125,-0.635986328125,-0.777587890625,-207.0,106.0,250.0,102190.0,-7.177000522613525,0,0
124.437994,0.283294677734375,-0.74884033203125,0.578765869140625,-0.154815673828125,0.30517578125,2.50244140625,1.3427734375,-0.1014404296875,-0.560546875,-0.7718505859375,-207.0,106.0,250.0,102190.0,-7.177000522613525,0,0
124.444994,0.28338623046875,-0.748809814453125,0.5787353515625,-0.154815673828125,5.55419921875,2.0751953125,-2.74658203125,-0.1400146484375,-0.540283203125,-0.765625,-207.0,106.0,250.0,102190.0,-7.177000522613525,0,0
124.451025,0.28338623046875,-0.748809814453125,0.5787353515625,-0.154815673828125,5.55419921875,2.0751953125,-2.74658203125,-0.1400146484375,-0.540283203125,-0.765625,-207.0,106.0,250.0,102190.0,-7.177000522613525,0,0
124.457995,0.28338623046875,-0.748748779296875,0.578887939453125,-0.154541015625,-6.40869140625,2.50244140625,0.67138671875,-0.128173828125,-0.587890625,-0.782470703125,-207.0,106.0,250.0,102190.0,-7.177000522613525,0,0
124.464993,0.283416748046875,-0.748779296875,0.578857421875,-0.154510498046875,0.8544921875,-2.62451171875,-0.67138671875,-0.074951171875,-0.5972900390625,-0.8055419921875,-207.0,106.0,250.0,102190.0,-7.177000522613525,0,0
124.471993,0.2833251953125,-0.74884033203125,0.578857421875,-0.154388427734375,-1.5869140625,-0.67138671875,-1.03759765625,-0.1065673828125,-0.570556640625,-0.798095703125,-207.0,106.0,250.0,102190.0,-7.178000450134277,0,0
124.478993,0.283233642578125,-0.748870849609375,0.57891845703125,-0.154205322265625,-0.42724609375,-1.52587890625,-0.8544921875,-0.1136474609375,-0.566162109375,-0.8333740234375,-207.0,106.0,250.0,102190.0,-7.178000450134277,0,0
124.485996,0.283355712890625,-0.748779296875,0.5789794921875,-0.1541748046875,5.2490234375,-1.953125,3.90625,-0.093505859375,-0.59033203125,-0.8126220703125,-207.0,106.0,250.0,102190.0,-7.178000450134277,0,0
124.492996,0.28314208984375,-0.748748779296875,0.57904052734375,-0.1544189453125,-7.8125,7.080078125,-7.32421875,-0.1624755859375,-0.58251953125,-0.6771240234375,-207.0,106.0,250.0,102190.0,-7.178000450134277,0,0
124.499995,0.28314208984375,-0.74884033203125,0.5789794921875,-0.154388427734375,-3.60107421875,-1.5869140625,-1.5869140625,-0.0677490234375,-0.592529296875,-0.7822265625,-207.0,106.0,250.0,102190.0,-7.178000450134277,0,0
124.506995,0.28302001953125,-0.74896240234375,0.578857421875,-0.154327392578125,-2.74658203125,-0.1220703125,-5.55419921875,-0.1016845703125,-0.55322265625,-0.7548828125,-207.0,106.0,250.0,102190.0,-7.178000450134277,0,0
124.513994,0.283111572265625,-0.748992919921875,0.578857421875,-0.154144287109375,2.3193359375,-4.82177734375,0.91552734375,-0.1085205078125,-0.5770263671875,-0.8297119140625,-207.0,106.0,250.0,102190.0,-7.178000450134277,0,0
124.520995,0.28302001953125,-0.74896240234375,0.578948974609375,-0.15399169921875,3.23486328125,2.74658203125,-1.28173828125,-0.1234130859375,-0.5093994140625,-0.78271484375,-207.0,106.0,250.0,102190.0,-7.178000450134277,0,0
124.527993,0.2830810546875,-0.749114990234375,0.578704833984375,-0.154083251953125,1.89208984375,3.60107421875,-0.54931640625,-0.0947265625,-0.62939453125,-0.8126220703125,-206.0,106.0,249.0,102190.0,-7.178000450134277,0,0
124.534993,0.283050537109375,-0.749053955078125,0.578765869140625,-0.154205322265625,0.0,-0.3662109375,-0.42724609375,-0.0989990234375,-0.5994873046875,-0.779541015625,-206.0,106.0,249.0,102190.0,-7.178000450134277,0,0
124.541993,0.283050537109375,-0.74908447265625,0.578704833984375,-0.1541748046875,0.54931640625,-1.8310546875,1.15966796875,-0.0758056640625,-0.626708984375,-0.802001953125,-206.0,106.0,249.0,102190.0,-7.178000450134277,0,0
124.54802,0.283050537109375,-0.74908447265625,0.578704833984375,-0.1541748046875,0.54931640625,-1.8310546875,1.15966796875,-0.0758056640625,-0.626708984375,-0.802001953125,-206.0,106.0,249.0,102190.0,-7.178000450134277,0,0
124.554993,0.282928466796875,-0.74920654296875,0.578704833984375,-0.153961181640625,-2.86865234375,1.46484375,-1.0986328125,-0.09912109375,-0.578857421875,-0.7596435546875,-206.0,106.0,249.0,102190.0,-7.178000450134277,0,0
124.561993,0.28302001953125,-0.7491455078125,0.578704833984375,-0.154083251953125,4.39453125,0.79345703125,-0.67138671875,-0.095703125,-0.5860595703125,-0.791259765625,-206.0,106.0,249.0,102190.0,-7.178000450134277,0,0
124.568993,0.282989501953125,-0.74908447265625,0.578765869140625,-0.154205322265625,-2.25830078125,2.197265625,-0.3662109375,-0.09228515625,-0.612548828125,-0.7464599609375,-206.0,106.0,249.0,102190.0,-7.176000118255615,0,0
124.575996,0.282958984375,-0.7491455078125,0.5787353515625,-0.154144287109375,-1.0986328125,0.79345703125,-2.50244140625,-0.12548828125,-0.580810546875,-0.7947998046875,-206.0,106.0,249.0,102190.0,-7.176000118255615,0,0
124.686995,0.2830810546875,-0.749053955078125,0.57891845703125,-0.1534423828125,-0.67138671875,-3.47900390625,4.5166015625,-0.06982421875,-0.604736328125,-0.7647705078125,-207.0,106.0,250.0,102190.0,-7.176000118255615,0,0
124.693994,0.282928466796875,-0.7491455078125,0.578887939453125,-0.15350341796875,0.54931640625,1.3427734375,-5.4931640625,-0.1572265625,-0.5079345703125,-0.7723388671875,-207.0,106.0,250.0,102190.0,-7.176000118255615,0,0
124.700999,0.28289794921875,-0.74908447265625,0.5789794921875,-0.153564453125,-1.52587890625,-1.64794921875,2.50244140625,-0.0870361328125,-0.6123046875,-0.810546875,-207.0,106.0,250.0,102190.0,-7.176000118255615,0,0
124.707994,0.28289794921875,-0.749176025390625,0.578857421875,-0.1534423828125,-5.79833984375,1.0986328125,-7.32421875,-0.166748046875,-0.5423583984375,-0.7197265625,-207.0,106.0,250.0,102190.0,-7.176000118255615,0,0
124.714994,0.282989501953125,-0.749176025390625,0.578857421875,-0.153350830078125,-2.50244140625,-2.99072265625,0.54931640625,-0.1116943359375,-0.6298828125,-0.7659912109375,-207.0,106.0,250.0,102190.0,-7.176000118255615,0,0
124.721997,0.28302001953125,-0.749267578125,0.578826904296875,-0.15301513671875,7.38525390625,-4.150390625,0.91552734375,-0.073486328125,-0.5640869140625,-0.7950439453125,-207.0,106.0,250.0,102190.0,-7.179000377655029,0,0
124.728997,0.282958984375,-0.749176025390625,0.578948974609375,-0.153076171875,2.5634765625,-0.79345703125,-4.33349609375,-0.11279296875,-0.5552978515625,-0.8074951171875,-206.0,105.0,248.0,102190.0,-7.179000377655029,0,0
124.735029,0.282958984375,-0.749176025390625,0.578948974609375,-0.153076171875,2.5634765625,-0.79345703125,-4.33349609375,-0.11279296875,-0.5552978515625,-0.8074951171875,-206.0,105.0,248.0,102190.0,-7.179000377655029,0,0
124.741994,0.282958984375,-0.7491455078125,0.5789794921875,-0.1531982421875,5.0048828125,-0.1220703125,-3.60107421875,-0.1221923828125,-0.56298828125,-0.7852783203125,-206.0,105.0,248.0,102190.0,-7.179000377655029,0,0
124.748997,0.28289794921875,-0.749176025390625,0.579010009765625,-0.15289306640625,-1.77001953125,-4.638671875,1.15966796875,-0.07763671875,-0.6016845703125,-0.8460693359375,-206.0,105.0,248.0,102190.0,-7.179000377655029,0,0
124.755996,0.28289794921875,-0.7491455078125,0.5791015625,-0.152740478515625,-5.79833984375,0.1220703125,2.0751953125,-0.1256103515625,-0.608154296875,-0.7513427734375,-206.0,105.0,248.0,102190.0,-7.179000377655029,0,0
124.818996,0.282806396484375,-0.749114990234375,0.57928466796875,-0.152374267578125,2.25830078125,-1.89208984375,0.244140625,-0.09814453125,-0.5880126953125,-0.828125,-206.0,105.0,248.0,102190.0,-7.177000522613525,0,0
124.825029,0.282806396484375,-0.749114990234375,0.57928466796875,-0.152374267578125,2.25830078125,-1.89208984375,0.244140625,-0.09814453125,-0.5880126953125,-0.828125,-206.0,105.0,248.0,102190.0,-7.177000522613525,0,0
124.831993,0.28277587890625,-0.749176025390625,0.5792236328125,-0.15240478515625,-1.0986328125,1.3427734375,0.0,-0.1044921875,-0.598876953125,-0.787109375,-206.0,105.0,247.0,102190.0,-7.177000522613525,0,0
124.838993,0.2828369140625,-0.7491455078125,0.579193115234375,-0.15252685546875,1.953125,0.67138671875,0.3662109375,-0.0955810546875,-0.59521484375,-0.805419921875,-206.0,105.0,247.0,102190.0,-7.177000522613525,0,0
124.949995,0.28326416015625,-0.748870849609375,0.57916259765625,-0.1531982421875,13.61083984375,4.0283203125,-2.0751953125,-0.10009765625,-0.576904296875,-0.792236328125,-205.0,104.0,248.0,102190.0,-7.178000450134277,0,0
124.956995,0.28314208984375,-0.7489013671875,0.57916259765625,-0.153228759765625,0.244140625,2.44140625,-1.89208984375,-0.0975341796875,-0.57373046875,-0.8126220703125,-205.0,104.0,248.0,102190.0,-7.178000450134277,0,0
124.963994,0.28289794921875,-0.7490234375,0.57916259765625,-0.153076171875,-1.52587890625,1.0986328125,-3.41796875,-0.1571044921875,-0.5360107421875,-0.781494140625,-205.0,104.0,248.0,102190.0,-7.178000450134277,0,0
124.970999,0.282989501953125,-0.7490234375,0.579071044921875,-0.153350830078125,5.92041015625,0.67138671875,-1.708984375,-0.0621337890625,-0.612060546875,-0.795166015625,-205.0,104.0,248.0,102190.0,-7.178000450134277,0,0
124.977994,0.282958984375,-0.749053955078125,0.579071044921875,-0.153228759765625,-5.615234375,-1.40380859375,-0.06103515625,-0.0994873046875,-0.62353515625,-0.765869140625,-205.0,104.0,248.0,102190.0,-7.178000450134277,0,0
124.984994,0.2828369140625,-0.749114990234375,0.5791015625,-0.1529541015625,-1.77001953125,0.1220703125,-2.13623046875,-0.110107421875,-0.6002197265625,-0.78466796875,-205.0,104.0,248.0,102190.0,-7.178000450134277,0,0
124.991997,0.2828369140625,-0.7491455078125,0.579071044921875,-0.15301513671875,1.28173828125,1.03759765625,-1.5869140625,-0.1016845703125,-0.5986328125,-0.7889404296875,-205.0,104.0,248.0,102190.0,-7.178000450134277,0,0
124.998997,0.28277587890625,-0.749176025390625,0.5791015625,-0.152862548828125,-1.28173828125,0.42724609375,3.72314453125,-0.0804443359375,-0.617919921875,-0.784912109375,-205.0,104.0,248.0,102190.0,-7.178000450134277,0,0
125.005996,0.28271484375,-0.749267578125,0.578948974609375,-0.152984619140625,-0.79345703125,0.30517578125,-4.2724609375,-0.0732421875,-0.6260986328125,-0.7947998046875,-205.0,104.0,248.0,102190.0,-7.178000450134277,0,0
125.012028,0.28271484375,-0.749267578125,0.578948974609375,-0.152984619140625,-0.79345703125,0.30517578125,-4.2724609375,-0.0732421875,-0.6260986328125,-0.7947998046875,-205.0,104.0,248.0,102190.0,-7.178000450134277,0,0
125.018997,0.282806396484375,-0.74932861328125,0.57891845703125,-0.1527099609375,-7.8125,-7.50732421875,3.41796875,-0.08447265625,-0.6324462890625,-0.7855224609375,-204.0,104.0,247.0,102190.0,-7.179000377655029,0,0
125.212996,0.28289794921875,-0.74951171875,0.57861328125,-0.15283203125,-1.64794921875,-0.42724609375,0.67138671875,-0.088134765625,-0.6082763671875,-0.830810546875,-204.0,103.0,247.0,102190.0,-7.180000305175781,0,0
125.219995,0.283050537109375,-0.749481201171875,0.578521728515625,-0.1529541015625,7.62939453125,-0.732421875,-1.77001953125,-0.10693359375,-0.60546875,-0.834716796875,-205.0,104.0,248.0,102190.0,-7.176000118255615,0,0
125.226995,0.282928466796875,-0.749542236328125,0.57867431640625,-0.152435302734375,1.8310546875,-1.89208984375,-1.52587890625,-0.1375732421875,-0.4810791015625,-0.7777099609375,-205.0,104.0,248.0,102190.0,-7.176000118255615,0,0
125.233994,0.282928466796875,-0.74951171875,0.57867431640625,-0.152496337890625,10.1318359375,1.89208984375,-2.0751953125,-0.1160888671875,-0.5205078125,-0.847900390625,-205.0,104.0,248.0,102190.0,-7.176000118255615,0,0
125.240995,0.2830810546875,-0.74957275390625,0.578521728515625,-0.152618408203125,0.79345703125,-0.48828125,-3.5400390625,-0.0799560546875,-0.5810546875,-0.7431640625,-205.0,104.0,248.0,102190.0,-7.176000118255615,0,0
125.247993,0.283203125,-0.749420166015625,0.578704833984375,-0.152435302734375,-1.953125,-4.0283203125,8.7890625,-0.0982666015625,-0.6380615234375,-0.8056640625,-205.0,104.0,248.0,102190.0,-7.176000118255615,0,0
125.254994,0.283294677734375,-0.7493896484375,0.578704833984375,-0.152313232421875,4.82177734375,-0.1220703125,-1.28173828125,-0.1483154296875,-0.531005859375,-0.784423828125,-205.0,104.0,248.0,102190.0,-7.176000118255615,0,0
125.261997,0.282928466796875,-0.749542236328125,0.578643798828125,-0.15252685546875,0.79345703125,4.57763671875,-0.6103515625,-0.0823974609375,-0.5634765625,-0.792724609375,-205.0,104.0,248.0,102190.0,-7.176000118255615,0,0
125.268997,0.28277587890625,-0.7496337890625,0.578643798828125,-0.15228271484375,-7.4462890625,-3.96728515625,0.1220703125,-0.0811767578125,-0.5953369140625,-0.805908203125,-205.0,104.0,248.0,102190.0,-7.176000118255615,0,0
125.275996,0.282806396484375,-0.749786376953125,0.57855224609375,-0.15191650390625,-6.40869140625,-8.4228515625,-1.708984375,-0.113037109375,-0.599365234375,-0.786865234375,-205.0,104.0,248.0,102190.0,-7.176000118255615,0,0
125.282995,0.283050537109375,-0.749908447265625,0.5784912109375,-0.151153564453125,-3.173828125,-3.662109375,1.28173828125,-0.072021484375,-0.643310546875,-0.751953125,-205.0,104.0,248.0,102190.0,-7.176000118255615,0,0
125.289995,0.28302001953125,-0.7498779296875,0.578460693359375,-0.151336669921875,1.0986328125,5.615234375,-2.74658203125,-0.1165771484375,-0.572509765625,-0.7371826171875,-205.0,104.0,248.0,102190.0,-7.176000118255615,0,0
125.296027,0.28302001953125,-0.7498779296875,0.578460693359375,-0.151336669921875,1.0986328125,5.615234375,-2.74658203125,-0.1165771484375,-0.572509765625,-0.7371826171875,-205.0,104.0,248.0,102190.0,-7.176000118255615,0,0
125.302996,0.283111572265625,-0.749969482421875,0.5782470703125,-0.151519775390625,-7.568359375,-3.662109375,-0.9765625,-0.124755859375,-0.635498046875,-0.7589111328125,-205.0,104.0,248.0,102190.0,-7.176000118255615,0,0
125.309995,0.283050537109375,-0.75006103515625,0.5782470703125,-0.15118408203125,-10.55908203125,-6.34765625,0.1220703125,-0.1129150390625,-0.6190185546875,-0.764404296875,-205.0,104.0,248.0,102190.0,-7.176000118255615,0,0
125.316995,0.283203125,-0.750030517578125,0.578277587890625,-0.15093994140625,1.77001953125,-9.521484375,5.92041015625,-0.0654296875,-0.595947265625,-0.8404541015625,-205.0,104.0,248.0,102190.0,-7.178000450134277,0,0
125.323994,0.28289794921875,-0.74957275390625,0.578857421875,-0.15155029296875,0.18310546875,3.23486328125,-2.38037109375,-0.054443359375,-0.611083984375,-0.7586669921875,-203.0,104.0,247.0,102190.0,-7.178000450134277,0,0
125.386027,0.282806396484375,-0.74945068359375,0.579071044921875,-0.15167236328125,0.3662109375,-1.708984375,1.220703125,-0.1109619140625,-0.5640869140625,-0.7984619140625,-203.0,104.0,247.0,102190.0,-7.178000450134277,0,0
125.392996,0.282806396484375,-0.74951171875,0.5789794921875,-0.15167236328125,2.13623046875,-1.15966796875,0.30517578125,-0.1064453125,-0.600830078125,-0.8155517578125,-203.0,104.0,247.0,102190.0,-7.178000450134277,0,0
125.399995,0.28277587890625,-0.74951171875,0.5789794921875,-0.1517333984375,2.99072265625,1.28173828125,0.0,-0.0928955078125,-0.57373046875,-0.780029296875,-203.0,104.0,247.0,102190.0,-7.178000450134277,0,0
125.406995,0.28271484375,-0.74951171875,0.5789794921875,-0.151763916015625,0.732421875,0.6103515625,1.3427734375,-0.0904541015625,-0.6162109375,-0.7994384765625,-203.0,104.0,247.0,102190.0,-7.178000450134277,0,0
125.413994,0.28277587890625,-0.749481201171875,0.5789794921875,-0.151824951171875,4.0283203125,-0.732421875,1.64794921875,-0.0802001953125,-0.5909423828125,-0.8148193359375,-203.0,104.0,247.0,102190.0,-7.178000450134277,0,0
125.420995,0.28271484375,-0.74951171875,0.5789794921875,-0.151763916015625,-1.28173828125,0.18310546875,-0.6103515625,-0.0977783203125,-0.583984375,-0.7860107421875,-203.0,104.0,247.0,102190.0,-7.179000377655029,0,0
125.427993,0.28277587890625,-0.74969482421875,0.5787353515625,-0.151702880859375,1.64794921875,-0.732421875,1.15966796875,-0.0858154296875,-0.61083984375,-0.811279296875,-205.0,104.0,248.0,102190.0,-7.179000377655029,0,0
125.434993,0.282806396484375,-0.74969482421875,0.5787353515625,-0.15167236328125,0.18310546875,0.06103515625,-0.42724609375,-0.0982666015625,-0.5858154296875,-0.786376953125,-205.0,104.0,248.0,102190.0,-7.179000377655029,0,0
125.441993,0.2828369140625,-0.749664306640625,0.578765869140625,-0.151702880859375,-0.06103515625,-0.30517578125,2.0751953125,-0.0833740234375,-0.61962890625,-0.8017578125,-205.0,104.0,248.0,102190.0,-7.179000377655029,0,0
125.448996,0.282806396484375,-0.74969482421875,0.578704833984375,-0.151763916015625,0.48828125,-0.30517578125,1.89208984375,-0.061767578125,-0.5989990234375,-0.79345703125,-205.0,104.0,248.0,102190.0,-7.179000377655029,0,0
125.455996,0.282806396484375,-0.749725341796875,0.578643798828125,-0.151824951171875,-1.15966796875,0.244140625,-1.708984375,-0.0885009765625,-0.616455078125,-0.766845703125,-205.0,104.0,248.0,102190.0,-7.179000377655029,0,0
125.476994,0.28289794921875,-0.749542236328125,0.578826904296875,-0.15191650390625,4.08935546875,1.3427734375,-1.3427734375,-0.0936279296875,-0.5504150390625,-0.830078125,-205.0,104.0,248.0,102190.0,-7.179000377655029,0,0
125.483027,0.28289794921875,-0.749542236328125,0.578826904296875,-0.15191650390625,4.08935546875,1.3427734375,-1.3427734375,-0.0936279296875,-0.5504150390625,-0.830078125,-205.0,104.0,248.0,102190.0,-7.179000377655029,0,0
125.489995,0.283050537109375,-0.749420166015625,0.578826904296875,-0.152252197265625,4.45556640625,2.13623046875,-2.38037109375,-0.1102294921875,-0.585205078125,-0.763671875,-205.0,104.0,248.0,102190.0,-7.179000377655029,0,0
125.496995,0.28302001953125,-0.749420166015625,0.57879638671875,-0.15240478515625,0.79345703125,1.28173828125,-0.42724609375,-0.0892333984375,-0.6146240234375,-0.7999267578125,-205.0,104.0,248.0,102190.0,-7.179000377655029,0,0
125.503994,0.28302001953125,-0.74945068359375,0.5787353515625,-0.152374267578125,1.0986328125,-1.15966796875,-1.5869140625,-0.100830078125,-0.574951171875,-0.7940673828125,-205.0,104.0,248.0,102190.0,-7.179000377655029,0,0
125.510995,0.283050537109375,-0.7493896484375,0.57879638671875,-0.15240478515625,4.8828125,-2.25830078125,4.33349609375,-0.0557861328125,-0.5872802734375,-0.84130859375,-205.0,104.0,248.0,102190.0,-7.179000377655029,0,0
125.517993,0.2830810546875,-0.749298095703125,0.578826904296875,-0.152679443359375,1.52587890625,3.41796875,-8.85009765625,-0.1661376953125,-0.529296875,-0.740966796875,-205.0,104.0,248.0,102190.0,-7.180000305175781,0,0
125.524993,0.283111572265625,-0.7496337890625,0.5784912109375,-0.15234375,-2.3193359375,-0.6103515625,-1.3427734375,-0.1475830078125,-0.5589599609375,-0.7772216796875,-207.0,103.0,248.0,102190.0,-7.180000305175781,0,0
125.531993,0.28314208984375,-0.749664306640625,0.578399658203125,-0.1524658203125,2.0751953125,2.3193359375,-3.60107421875,-0.1015625,-0.58642578125,-0.767822265625,-207.0,103.0,248.0,102190.0,-7.180000305175781,0,0
125.538996,0.282958984375,-0.749603271484375,0.5784912109375,-0.1527099609375,-4.638671875,1.77001953125,0.91552734375,-0.0823974609375,-0.586181640625,-0.763916015625,-207.0,103.0,248.0,102190.0,-7.180000305175781,0,0
125.545996,0.282958984375,-0.749603271484375,0.5784912109375,-0.152740478515625,1.15966796875,1.0986328125,0.18310546875,-0.104248046875,-0.5819091796875,-0.787353515625,-207.0,103.0,248.0,102190.0,-7.180000305175781,0,0
125.552995,0.282989501953125,-0.749603271484375,0.57843017578125,-0.15283203125,-2.9296875,2.5634765625,-2.38037109375,-0.121337890625,-0.6260986328125,-0.7745361328125,-207.0,103.0,248.0,102190.0,-7.180000305175781,0,0
125.559995,0.282928466796875,-0.749664306640625,0.578399658203125,-0.15283203125,-3.173828125,2.13623046875,-2.01416015625,-0.109619140625,-0.5701904296875,-0.75634765625,-207.0,103.0,248.0,102190.0,-7.180000305175781,0,0
125.566994,0.2828369140625,-0.749664306640625,0.578399658203125,-0.15289306640625,-1.8310546875,1.64794921875,-0.3662109375,-0.0826416015625,-0.614013671875,-0.8016357421875,-207.0,103.0,248.0,102190.0,-7.180000305175781,0,0
125.573027,0.2828369140625,-0.749664306640625,0.578399658203125,-0.15289306640625,-1.8310546875,1.64794921875,-0.3662109375,-0.0826416015625,-0.614013671875,-0.8016357421875,-207.0,103.0,248.0,102190.0,-7.180000305175781,0,0
125.579995,0.282867431640625,-0.749603271484375,0.578460693359375,-0.15301513671875,1.40380859375,0.244140625,2.3193359375,-0.084716796875,-0.6007080078125,-0.812744140625,-207.0,103.0,248.0,102190.0,-7.180000305175781,0,0
125.586995,0.282928466796875,-0.74957275390625,0.578460693359375,-0.152984619140625,-0.9765625,-0.67138671875,0.3662109375,-0.1162109375,-0.610107421875,-0.78857421875,-207.0,103.0,248.0,102190.0,-7.180000305175781,0,0
125.642995,0.28302001953125,-0.749786376953125,0.57818603515625,-0.15283203125,0.48828125,-1.46484375,-1.46484375,-0.0535888671875,-0.5908203125,-0.796142578125,-206.0,101.0,246.0,102190.0,-7.178000450134277,0,0
125.649995,0.282928466796875,-0.7498779296875,0.57818603515625,-0.152587890625,-6.7138671875,0.18310546875,-4.94384765625,-0.1600341796875,-0.5506591796875,-0.753173828125,-206.0,101.0,246.0,102190.0,-7.178000450134277,0,0
125.656994,0.282684326171875,-0.74993896484375,0.578125,-0.15289306640625,2.13623046875,-0.30517578125,4.21142578125,-0.0155029296875,-0.6365966796875,-0.819091796875,-206.0,101.0,246.0,102190.0,-7.178000450134277,0,0
125.663995,0.282623291015625,-0.749969482421875,0.57818603515625,-0.15264892578125,-4.94384765625,-1.28173828125,2.74658203125,-0.10205078125,-0.63134765625,-0.775390625,-206.0,101.0,246.0,102190.0,-7.178000450134277,0,0
125.670026,0.282623291015625,-0.749969482421875,0.57818603515625,-0.15264892578125,-4.94384765625,-1.28173828125,2.74658203125,-0.10205078125,-0.63134765625,-0.775390625,-206.0,101.0,246.0,102190.0,-7.178000450134277,0,0
125.732995,0.282379150390625,-0.75006103515625,0.578155517578125,-0.15289306640625,-3.0517578125,0.8544921875,-1.40380859375,-0.111083984375,-0.5870361328125,-0.748046875,-206.0,102.0,248.0,102190.0,-7.180000305175781,0,0
125.739995,0.282470703125,-0.750030517578125,0.578125,-0.152984619140625,2.99072265625,0.1220703125,-2.197265625,-0.1048583984375,-0.569091796875,-0.812255859375,-206.0,102.0,248.0,102190.0,-7.180000305175781,0,0
125.746994,0.282440185546875,-0.750030517578125,0.578125,-0.152923583984375,-2.13623046875,1.89208984375,-1.5869140625,-0.1243896484375,-0.5655517578125,-0.7340087890625,-206.0,102.0,248.0,102190.0,-7.180000305175781,0,0
125.753995,0.282379150390625,-0.75006103515625,0.578125,-0.1529541015625,0.3662109375,-0.3662109375,-0.06103515625,-0.0765380859375,-0.6038818359375,-0.8162841796875,-206.0,102.0,248.0,102190.0,-7.180000305175781,0,0
125.760026,0.282379150390625,-0.75006103515625,0.578125,-0.1529541015625,0.3662109375,-0.3662109375,-0.06103515625,-0.0765380859375,-0.6038818359375,-0.8162841796875,-206.0,102.0,248.0,102190.0,-7.180000305175781,0,0
125.822995,0.282562255859375,-0.750152587890625,0.577972412109375,-0.152679443359375,0.8544921875,-1.0986328125,3.72314453125,-0.0989990234375,-0.60595703125,-0.8011474609375,-205.0,102.0,250.0,102190.0,-7.179000377655029,0,0
125.829995,0.282623291015625,-0.750152587890625,0.577911376953125,-0.15283203125,6.28662109375,2.62451171875,-3.41796875,-0.1082763671875,-0.567626953125,-0.79345703125,-205.0,102.0,250.0,102190.0,-7.179000377655029,0,0
125.836994,0.282623291015625,-0.750152587890625,0.577911376953125,-0.15289306640625,2.50244140625,1.15966796875,-1.3427734375,-0.08251953125,-0.6024169921875,-0.793701171875,-205.0,102.0,250.0,102190.0,-7.179000377655029,0,0
125.843995,0.282623291015625,-0.750152587890625,0.57794189453125,-0.15277099609375,-0.54931640625,-1.77001953125,1.15966796875,-0.109130859375,-0.5921630859375,-0.8118896484375,-205.0,102.0,250.0,102190.0,-7.179000377655029,0,0
125.905996,0.28277587890625,-0.75018310546875,0.577789306640625,-0.15277099609375,3.41796875,3.0517578125,-1.03759765625,-0.1029052734375,-0.58056640625,-0.8016357421875,-205.0,102.0,250.0,102190.0,-7.179000377655029,0,0
125.912995,0.2828369140625,-0.75018310546875,0.57781982421875,-0.15264892578125,2.0751953125,-3.11279296875,1.89208984375,-0.10205078125,-0.5489501953125,-0.7886962890625,-205.0,102.0,250.0,102190.0,-7.179000377655029,0,0
125.919995,0.28277587890625,-0.750335693359375,0.57763671875,-0.152740478515625,0.9765625,-0.67138671875,0.42724609375,-0.0343017578125,-0.6605224609375,-0.82421875,-203.0,102.0,250.0,102190.0,-7.180000305175781,0,0
125.926994,0.2825927734375,-0.750457763671875,0.577667236328125,-0.15228271484375,-2.0751953125,0.06103515625,0.79345703125,-0.113037109375,-0.6016845703125,-0.771728515625,-203.0,102.0,250.0,102190.0,-7.180000305175781,0,0
125.933999,0.282501220703125,-0.7506103515625,0.577606201171875,-0.152099609375,-2.13623046875,-6.103515625,-1.8310546875,-0.0709228515625,-0.5531005859375,-0.81005859375,-203.0,102.0,250.0,102190.0,-7.180000305175781,0,0
125.940994,0.2828369140625,-0.75048828125,0.577484130859375,-0.152435302734375,-0.18310546875,-0.1220703125,-1.46484375,-0.102783203125,-0.5889892578125,-0.7659912109375,-203.0,102.0,250.0,102190.0,-7.180000305175781,0,0
125.947022,0.2828369140625,-0.75048828125,0.577484130859375,-0.152435302734375,-0.18310546875,-0.1220703125,-1.46484375,-0.102783203125,-0.5889892578125,-0.7659912109375,-203.0,102.0,250.0,102190.0,-7.180000305175781,0,0
125.953994,0.282501220703125,-0.75048828125,0.577606201171875,-0.152618408203125,3.7841796875,3.96728515625,0.0,-0.0706787109375,-0.5938720703125,-0.828857421875,-203.0,102.0,250.0,102190.0,-7.180000305175781,0,0
125.960995,0.2825927734375,-0.75048828125,0.5775146484375,-0.15277099609375,-4.5166015625,-0.06103515625,-1.77001953125,-0.102294921875,-0.6160888671875,-0.7408447265625,-203.0,102.0,250.0,102190.0,-7.180000305175781,0,0
125.967993,0.282562255859375,-0.75042724609375,0.577606201171875,-0.1527099609375,-3.11279296875,1.3427734375,2.44140625,-0.1116943359375,-0.625244140625,-0.792724609375,-203.0,102.0,250.0,102190.0,-7.180000305175781,0,0
125.974993,0.282562255859375,-0.750457763671875,0.57757568359375,-0.1527099609375,4.08935546875,0.67138671875,-1.708984375,-0.1187744140625,-0.552734375,-0.8148193359375,-203.0,102.0,250.0,102190.0,-7.180000305175781,0,0
125.995996,0.28253173828125,-0.75048828125,0.57757568359375,-0.1527099609375,-0.91552734375,-0.6103515625,0.732421875,-0.09521484375,-0.6112060546875,-0.7918701171875,-203.0,102.0,250.0,102190.0,-7.180000305175781,0,0
126.002995,0.282562255859375,-0.750518798828125,0.577545166015625,-0.152618408203125,-2.13623046875,-2.5634765625,-0.244140625,-0.0975341796875,-0.6015625,-0.77978515625,-203.0,102.0,250.0,102190.0,-7.180000305175781,0,0
126.009995,0.282562255859375,-0.750518798828125,0.577545166015625,-0.152618408203125,0.0,-0.79345703125,0.0,-0.09423828125,-0.591552734375,-0.784423828125,-203.0,102.0,250.0,102190.0,-7.180000305175781,0,0
126.016994,0.28253173828125,-0.75048828125,0.57757568359375,-0.152679443359375,1.03759765625,1.0986328125,0.42724609375,-0.09912109375,-0.5999755859375,-0.8040771484375,-203.0,102.0,250.0,102190.0,-7.180000305175781,0,0
126.023995,0.282562255859375,-0.750640869140625,0.577362060546875,-0.15264892578125,1.03759765625,1.953125,-0.6103515625,-0.1068115234375,-0.5885009765625,-0.7901611328125,-203.0,101.0,249.0,102190.0,-7.180000305175781,0,0
126.030993,0.2825927734375,-0.750579833984375,0.577392578125,-0.1527099609375,3.11279296875,0.3662109375,2.01416015625,-0.080810546875,-0.5968017578125,-0.8062744140625,-203.0,101.0,249.0,102190.0,-7.180000305175781,0,0
126.037021,0.2825927734375,-0.750579833984375,0.577392578125,-0.1527099609375,3.11279296875,0.3662109375,2.01416015625,-0.080810546875,-0.5968017578125,-0.8062744140625,-203.0,101.0,249.0,102190.0,-7.180000305175781,0,0
126.043994,0.28271484375,-0.750518798828125,0.57745361328125,-0.152557373046875,3.662109375,-2.3193359375,0.0,-0.090087890625,-0.58740234375,-0.815673828125,-203.0,101.0,249.0,102190.0,-7.180000305175781,0,0
126.050995,0.28265380859375,-0.75054931640625,0.577362060546875,-0.152862548828125,4.0283203125,3.11279296875,-5.55419921875,-0.09912109375,-0.5294189453125,-0.7491455078125,-203.0,101.0,249.0,102190.0,-7.180000305175781,0,0
126.057993,0.282562255859375,-0.75048828125,0.577606201171875,-0.1524658203125,-6.4697265625,-1.220703125,5.2490234375,-0.12890625,-0.614990234375,-0.802001953125,-203.0,101.0,249.0,102190.0,-7.180000305175781,0,0
126.064993,0.28265380859375,-0.750579833984375,0.577484130859375,-0.152191162109375,4.39453125,-3.47900390625,-4.08935546875,-0.1483154296875,-0.4814453125,-0.853271484375,-203.0,101.0,249.0,102190.0,-7.180000305175781,0,0
126.071993,0.282684326171875,-0.750518798828125,0.57757568359375,-0.152252197265625,5.67626953125,-2.38037109375,-1.8310546875,-0.1044921875,-0.60302734375,-0.822265625,-203.0,101.0,249.0,102190.0,-7.179000377655029,0,0
126.078996,0.28277587890625,-0.7503662109375,0.5777587890625,-0.152130126953125,0.06103515625,3.84521484375,-3.35693359375,-0.1590576171875,-0.572021484375,-0.745361328125,-203.0,101.0,249.0,102190.0,-7.179000377655029,0,0
126.085996,0.282989501953125,-0.750213623046875,0.5777587890625,-0.1524658203125,4.08935546875,3.84521484375,0.91552734375,-0.0869140625,-0.6053466796875,-0.8209228515625,-203.0,101.0,249.0,102190.0,-7.179000377655029,0,0
126.092995,0.282958984375,-0.750244140625,0.577728271484375,-0.152435302734375,-2.74658203125,0.0,-2.13623046875,-0.10205078125,-0.6112060546875,-0.7711181640625,-203.0,101.0,249.0,102190.0,-7.179000377655029,0,0
126.099995,0.28302001953125,-0.750335693359375,0.57757568359375,-0.152496337890625,8.23974609375,-0.1220703125,-3.662109375,-0.1346435546875,-0.5479736328125,-0.7764892578125,-203.0,101.0,249.0,102190.0,-7.179000377655029,0,0
126.106994,0.28289794921875,-0.750244140625,0.577728271484375,-0.152557373046875,-1.220703125,-0.732421875,6.9580078125,-0.0250244140625,-0.638916015625,-0.84521484375,-203.0,101.0,249.0,102190.0,-7.179000377655029,0,0
126.113995,0.283172607421875,-0.750152587890625,0.577667236328125,-0.152740478515625,7.6904296875,0.8544921875,0.06103515625,-0.110107421875,-0.5968017578125,-0.743408203125,-203.0,101.0,249.0,102190.0,-7.179000377655029,0,0
126.120993,0.2830810546875,-0.750244140625,0.57757568359375,-0.152801513671875,7.38525390625,2.86865234375,-1.89208984375,-0.0782470703125,-0.578125,-0.81884765625,-202.0,102.0,248.0,102190.0,-7.179000377655029,0,0
126.127993,0.283233642578125,-0.7506103515625,0.5770263671875,-0.152740478515625,3.5400390625,0.3662109375,-2.25830078125,-0.0994873046875,-0.606201171875,-0.8192138671875,-202.0,102.0,248.0,102190.0,-7.179000377655029,0,0
126.134025,0.283233642578125,-0.7506103515625,0.5770263671875,-0.152740478515625,3.5400390625,0.3662109375,-2.25830078125,-0.0994873046875,-0.606201171875,-0.8192138671875,-202.0,102.0,248.0,102190.0,-7.179000377655029,0,0
126.140995,0.28326416015625,-0.7506103515625,0.577056884765625,-0.1527099609375,5.859375,3.23486328125,-3.0517578125,-0.09375,-0.5955810546875,-0.8250732421875,-202.0,102.0,248.0,102190.0,-7.179000377655029,0,0
126.147993,0.283294677734375,-0.75054931640625,0.57696533203125,-0.15313720703125,3.35693359375,3.96728515625,-5.31005859375,-0.109130859375,-0.5634765625,-0.7462158203125,-202.0,102.0,248.0,102190.0,-7.179000377655029,0,0
126.168997,0.282958984375,-0.75042724609375,0.577484130859375,-0.152435302734375,-5.126953125,-0.732421875,9.765625,-0.124755859375,-0.613525390625,-0.807373046875,-202.0,102.0,248.0,102190.0,-7.179000377655029,0,0
126.175996,0.282989501953125,-0.750396728515625,0.57733154296875,-0.153076171875,4.45556640625,4.5166015625,-6.591796875,-0.196044921875,-0.486328125,-0.7613525390625,-202.0,102.0,248.0,102190.0,-7.179000377655029,0,0
126.182995,0.283050537109375,-0.7503662109375,0.577362060546875,-0.153076171875,-2.50244140625,-0.18310546875,1.77001953125,-0.099365234375,-0.6510009765625,-0.7799072265625,-202.0,102.0,248.0,102190.0,-7.179000377655029,0,0
126.189995,0.283111572265625,-0.750335693359375,0.577423095703125,-0.1529541015625,0.06103515625,-4.5166015625,3.96728515625,-0.075439453125,-0.5811767578125,-0.784423828125,-202.0,102.0,248.0,102190.0,-7.179000377655029,0,0
126.196994,0.283233642578125,-0.750457763671875,0.577239990234375,-0.152801513671875,5.2490234375,-2.685546875,-0.9765625,-0.074951171875,-0.60791015625,-0.8150634765625,-202.0,102.0,248.0,102190.0,-7.179000377655029,0,0
126.203999,0.28314208984375,-0.750396728515625,0.577392578125,-0.152679443359375,-9.58251953125,-0.3662109375,6.2255859375,-0.083251953125,-0.652099609375,-0.7574462890625,-202.0,102.0,248.0,102190.0,-7.179000377655029,0,0
126.210994,0.28289794921875,-0.750518798828125,0.577392578125,-0.152496337890625,2.197265625,-0.54931640625,-1.220703125,-0.1051025390625,-0.49560546875,-0.7840576171875,-202.0,102.0,248.0,102190.0,-7.179000377655029,0,0
126.217994,0.283111572265625,-0.750518798828125,0.577117919921875,-0.15313720703125,-5.43212890625,2.0751953125,-2.99072265625,-0.1156005859375,-0.6170654296875,-0.79345703125,-202.0,102.0,248.0,102190.0,-7.179000377655029,0,0
126.224026,0.283111572265625,-0.750518798828125,0.577117919921875,-0.15313720703125,-5.43212890625,2.0751953125,-2.99072265625,-0.1156005859375,-0.6170654296875,-0.79345703125,-202.0,102.0,248.0,102190.0,-7.179000377655029,0,0
126.230999,0.28302001953125,-0.75079345703125,0.576873779296875,-0.152740478515625,3.11279296875,-2.01416015625,2.01416015625,-0.0855712890625,-0.515380859375,-0.8084716796875,-201.0,101.0,246.0,102190.0,-7.179000377655029,0,0
126.237994,0.28289794921875,-0.75079345703125,0.576873779296875,-0.153167724609375,-2.5634765625,3.5400390625,-5.126953125,-0.141845703125,-0.5977783203125,-0.77099609375,-201.0,101.0,246.0,102190.0,-7.179000377655029,0,0
126.258996,0.28265380859375,-0.750946044921875,0.576934814453125,-0.152679443359375,-0.18310546875,0.3662109375,-1.953125,-0.1314697265625,-0.493408203125,-0.747314453125,-201.0,101.0,246.0,102190.0,-7.179000377655029,0,0
126.265996,0.2825927734375,-0.7509765625,0.576873779296875,-0.15277099609375,-0.79345703125,2.44140625,-2.3193359375,-0.0972900390625,-0.611572265625,-0.8048095703125,-201.0,101.0,246.0,102190.0,-7.179000377655029,0,0
126.272995,0.2825927734375,-0.750885009765625,0.57696533203125,-0.15289306640625,4.39453125,-1.46484375,4.33349609375,-0.079833984375,-0.6075439453125,-0.833984375,-201.0,101.0,246.0,102190.0,-7.179000377655029,0,0
126.279995,0.2825927734375,-0.75091552734375,0.57696533203125,-0.15264892578125,1.52587890625,-1.28173828125,-0.54931640625,-0.103515625,-0.5657958984375,-0.8037109375,-201.0,101.0,246.0,102190.0,-7.179000377655029,0,0
126.286994,0.28265380859375,-0.750885009765625,0.57696533203125,-0.15277099609375,3.72314453125,-0.42724609375,-2.44140625,-0.1087646484375,-0.5948486328125,-0.813720703125,-201.0,101.0,246.0,102190.0,-7.179000377655029,0,0
126.293995,0.282623291015625,-0.75091552734375,0.57696533203125,-0.1527099609375,-2.25830078125,0.8544921875,-1.8310546875,-0.114990234375,-0.5745849609375,-0.7598876953125,-201.0,101.0,246.0,102190.0,-7.179000377655029,0,0
126.300993,0.28271484375,-0.750885009765625,0.576934814453125,-0.152862548828125,2.62451171875,0.244140625,0.0,-0.0936279296875,-0.61328125,-0.805908203125,-201.0,101.0,246.0,102190.0,-7.179000377655029,0,0
126.307993,0.282684326171875,-0.750885009765625,0.576904296875,-0.152862548828125,-1.8310546875,1.708984375,-1.708984375,-0.10791015625,-0.586181640625,-0.7471923828125,-201.0,101.0,246.0,102190.0,-7.179000377655029,0,0
126.314993,0.2825927734375,-0.750885009765625,0.576934814453125,-0.152923583984375,-1.46484375,2.685546875,0.42724609375,-0.08349609375,-0.5919189453125,-0.77099609375,-201.0,101.0,246.0,102190.0,-7.179000377655029,0,0
126.32102,0.2825927734375,-0.750885009765625,0.576934814453125,-0.152923583984375,-1.46484375,2.685546875,0.42724609375,-0.08349609375,-0.5919189453125,-0.77099609375,-201.0,101.0,246.0,102190.0,-7.179000377655029,0,0
126.327993,0.282684326171875,-0.7509765625,0.57684326171875,-0.1527099609375,-4.08935546875,-0.732421875,-2.3193359375,-0.1097412109375,-0.585693359375,-0.7432861328125,-202.0,101.0,246.0,102190.0,-7.179000377655029,0,0
126.334993,0.282806396484375,-0.7509765625,0.5767822265625,-0.1527099609375,4.638671875,-0.6103515625,-0.79345703125,-0.08837890625,-0.5694580078125,-0.8087158203125,-202.0,101.0,246.0,102190.0,-7.179000377655029,0,0
126.341993,0.282867431640625,-0.750946044921875,0.576751708984375,-0.15283203125,5.55419921875,-1.15966796875,3.47900390625,-0.0396728515625,-0.6112060546875,-0.7952880859375,-202.0,101.0,246.0,102190.0,-7.179000377655029,0,0
126.348996,0.282745361328125,-0.7509765625,0.5767822265625,-0.152801513671875,-6.28662109375,2.99072265625,-0.8544921875,-0.1141357421875,-0.60546875,-0.7586669921875,-202.0,101.0,246.0,102190.0,-7.179000377655029,0,0
126.355996,0.282867431640625,-0.7509765625,0.576690673828125,-0.152923583984375,5.55419921875,-2.13623046875,-1.64794921875,-0.0552978515625,-0.587158203125,-0.81494140625,-202.0,101.0,246.0,102190.0,-7.179000377655029,0,0
126.362995,0.282958984375,-0.751068115234375,0.576446533203125,-0.1533203125,5.2490234375,-1.15966796875,-3.35693359375,-0.0474853515625,-0.5721435546875,-0.7572021484375,-202.0,101.0,246.0,102190.0,-7.179000377655029,0,0
126.369995,0.28302001953125,-0.7510986328125,0.576324462890625,-0.153533935546875,-1.953125,1.52587890625,-3.0517578125,-0.078125,-0.654541015625,-0.7330322265625,-202.0,101.0,246.0,102190.0,-7.180000305175781,0,0
126.376994,0.282958984375,-0.751007080078125,0.5765380859375,-0.153228759765625,5.126953125,0.48828125,-0.8544921875,-0.1248779296875,-0.5357666015625,-0.791259765625,-202.0,101.0,246.0,102190.0,-7.180000305175781,0,0
126.383995,0.2828369140625,-0.751129150390625,0.576385498046875,-0.153411865234375,0.79345703125,1.953125,-0.42724609375,-0.0762939453125,-0.6041259765625,-0.8323974609375,-202.0,101.0,246.0,102190.0,-7.180000305175781,0,0
126.390993,0.28289794921875,-0.7510986328125,0.57635498046875,-0.153472900390625,1.40380859375,-1.03759765625,0.06103515625,-0.0875244140625,-0.6285400390625,-0.8065185546875,-202.0,101.0,246.0,102190.0,-7.180000305175781,0,0
126.397993,0.282867431640625,-0.75115966796875,0.576416015625,-0.153167724609375,-1.40380859375,-3.96728515625,2.86865234375,-0.094482421875,-0.5762939453125,-0.80126953125,-202.0,101.0,246.0,102190.0,-7.180000305175781,0,0
126.404993,0.282806396484375,-0.751129150390625,0.576416015625,-0.153350830078125,1.28173828125,3.7841796875,0.18310546875,-0.070068359375,-0.621826171875,-0.803955078125,-202.0,101.0,246.0,102190.0,-7.180000305175781,0,0
126.41102,0.282806396484375,-0.751129150390625,0.576416015625,-0.153350830078125,1.28173828125,3.7841796875,0.18310546875,-0.070068359375,-0.621826171875,-0.803955078125,-202.0,101.0,246.0,102190.0,-7.180000305175781,0,0
126.431993,0.282745361328125,-0.751190185546875,0.576385498046875,-0.153350830078125,-2.50244140625,-6.7138671875,4.21142578125,-0.0667724609375,-0.6220703125,-0.8065185546875,-201.0,101.0,245.0,102190.0,-7.180000305175781,0,0
126.438996,0.282806396484375,-0.751129150390625,0.576416015625,-0.15338134765625,-0.9765625,1.40380859375,-2.5634765625,-0.11669921875,-0.6051025390625,-0.760498046875,-201.0,101.0,245.0,102190.0,-7.180000305175781,0,0
126.445996,0.282745361328125,-0.7510986328125,0.576507568359375,-0.1533203125,-2.9296875,5.31005859375,-0.18310546875,-0.1617431640625,-0.60595703125,-0.7890625,-201.0,101.0,245.0,102190.0,-7.180000305175781,0,0
126.452995,0.282958984375,-0.7510986328125,0.57647705078125,-0.153045654296875,8.1787109375,-1.708984375,2.685546875,-0.07421875,-0.59375,-0.8271484375,-201.0,101.0,245.0,102190.0,-7.180000305175781,0,0
126.459995,0.283050537109375,-0.751007080078125,0.576507568359375,-0.153076171875,2.74658203125,-3.90625,5.2490234375,-0.0484619140625,-0.638916015625,-0.83740234375,-201.0,101.0,245.0,102190.0,-7.180000305175781,0,0
126.521997,0.28289794921875,-0.751373291015625,0.57635498046875,-0.152191162109375,-2.5634765625,5.126953125,1.220703125,-0.085205078125,-0.6182861328125,-0.77978515625,-201.0,101.0,245.0,102190.0,-7.179000377655029,0,0
126.528997,0.282989501953125,-0.751251220703125,0.576324462890625,-0.152740478515625,6.04248046875,5.2490234375,-0.18310546875,-0.07421875,-0.6026611328125,-0.79931640625,-201.0,101.0,245.0,102190.0,-7.179000377655029,0,0
126.535996,0.282867431640625,-0.7513427734375,0.576263427734375,-0.152862548828125,0.48828125,-1.77001953125,1.708984375,-0.041748046875,-0.6104736328125,-0.8087158203125,-201.0,101.0,245.0,102190.0,-7.179000377655029,0,0
126.542995,0.28277587890625,-0.751434326171875,0.57623291015625,-0.152587890625,-4.150390625,-1.3427734375,0.18310546875,-0.11279296875,-0.628662109375,-0.7794189453125,-201.0,101.0,245.0,102190.0,-7.179000377655029,0,0
126.604993,0.28271484375,-0.7513427734375,0.57635498046875,-0.152679443359375,-1.5869140625,1.953125,-1.0986328125,-0.101806640625,-0.6064453125,-0.7642822265625,-201.0,101.0,245.0,102190.0,-7.180000305175781,0,0
126.611993,0.28265380859375,-0.7513427734375,0.576416015625,-0.152679443359375,-1.77001953125,-0.18310546875,2.25830078125,-0.0809326171875,-0.6141357421875,-0.801513671875,-201.0,101.0,245.0,102190.0,-7.180000305175781,0,0
126.618996,0.28265380859375,-0.75140380859375,0.57635498046875,-0.152557373046875,-1.89208984375,-0.732421875,0.06103515625,-0.0809326171875,-0.5980224609375,-0.7835693359375,-201.0,102.0,245.0,102190.0,-7.180000305175781,0,0
126.625996,0.282745361328125,-0.75152587890625,0.576171875,-0.152496337890625,0.42724609375,-0.79345703125,-0.3662109375,-0.1033935546875,-0.5858154296875,-0.792724609375,-201.0,102.0,245.0,102190.0,-7.180000305175781,0,0
126.632995,0.282684326171875,-0.751556396484375,0.576141357421875,-0.15252685546875,-3.11279296875,1.220703125,-0.42724609375,-0.08544921875,-0.607666015625,-0.76123046875,-201.0,102.0,245.0,102190.0,-7.180000305175781,0,0
126.695023,0.28302001953125,-0.751068115234375,0.576629638671875,-0.152374267578125,-7.50732421875,-0.79345703125,4.33349609375,-0.094482421875,-0.614013671875,-0.7802734375,-201.0,102.0,245.0,102190.0,-7.179000377655029,0,0
126.701993,0.282928466796875,-0.751129150390625,0.5765380859375,-0.152587890625,-1.5869140625,-2.197265625,0.91552734375,-0.06884765625,-0.63232421875,-0.78564453125,-201.0,102.0,245.0,102190.0,-7.179000377655029,0,0
126.708996,0.28302001953125,-0.7510986328125,0.576629638671875,-0.15234375,-3.662109375,-2.50244140625,2.5634765625,-0.10595703125,-0.611328125,-0.771240234375,-201.0,102.0,245.0,102190.0,-7.179000377655029,0,0
126.715996,0.28302001953125,-0.751068115234375,0.576568603515625,-0.152587890625,-2.685546875,6.04248046875,-3.47900390625,-0.119140625,-0.618408203125,-0.757080078125,-201.0,102.0,245.0,102190.0,-7.179000377655029,0,0
126.722995,0.283050537109375,-0.7509765625,0.57659912109375,-0.1529541015625,0.18310546875,4.638671875,3.11279296875,-0.0362548828125,-0.6785888671875,-0.75341796875,-201.0,102.0,245.0,102190.0,-7.179000377655029,0,0
126.729995,0.283294677734375,-0.75140380859375,0.57598876953125,-0.152618408203125,-10.31494140625,4.45556640625,8.48388671875,-0.086669921875,-0.7225341796875,-0.71533203125,-201.0,102.0,245.0,102190.0,-7.179000377655029,0,0
126.736994,0.283203125,-0.75140380859375,0.57598876953125,-0.15277099609375,9.27734375,2.44140625,3.5400390625,-0.0380859375,-0.599853515625,-0.848876953125,-201.0,102.0,245.0,102190.0,-7.179000377655029,0,0
126.743995,0.28314208984375,-0.751495361328125,0.575897216796875,-0.15283203125,3.35693359375,0.8544921875,-1.5869140625,-0.103271484375,-0.6002197265625,-0.7979736328125,-201.0,102.0,245.0,102190.0,-7.179000377655029,0,0
126.750994,0.283172607421875,-0.75146484375,0.575927734375,-0.152862548828125,3.662109375,-1.8310546875,2.74658203125,-0.0638427734375,-0.5994873046875,-0.8289794921875,-201.0,102.0,245.0,102190.0,-7.179000377655029,0,0
126.757994,0.28326416015625,-0.751556396484375,0.57586669921875,-0.1524658203125,-1.708984375,-5.0048828125,3.90625,-0.0567626953125,-0.6376953125,-0.8309326171875,-201.0,102.0,245.0,102190.0,-7.179000377655029,0,0
126.764997,0.28314208984375,-0.751678466796875,0.575836181640625,-0.15234375,-5.9814453125,0.30517578125,-4.08935546875,-0.123046875,-0.57177734375,-0.7509765625,-201.0,102.0,245.0,102190.0,-7.179000377655029,0,0
126.785028,0.28326416015625,-0.75152587890625,0.57586669921875,-0.152587890625,3.84521484375,0.79345703125,-2.3193359375,-0.10400390625,-0.58251953125,-0.73583984375,-201.0,102.0,245.0,102190.0,-7.180000305175781,0,0
126.791997,0.283233642578125,-0.7515869140625,0.575836181640625,-0.15252685546875,-1.40380859375,0.18310546875,0.0,-0.1134033203125,-0.6107177734375,-0.7967529296875,-201.0,102.0,245.0,102190.0,-7.180000305175781,0,0
126.798997,0.283294677734375,-0.751495361328125,0.575897216796875,-0.152587890625,3.662109375,-1.0986328125,0.79345703125,-0.0606689453125,-0.6279296875,-0.770751953125,-201.0,102.0,245.0,102190.0,-7.180000305175781,0,0
126.805996,0.28326416015625,-0.751495361328125,0.575927734375,-0.152587890625,-6.8359375,5.92041015625,-2.197265625,-0.162841796875,-0.63134765625,-0.730224609375,-201.0,102.0,245.0,102190.0,-7.180000305175781,0,0
126.812995,0.28350830078125,-0.751220703125,0.57611083984375,-0.152679443359375,-0.06103515625,4.69970703125,2.38037109375,-0.1065673828125,-0.6151123046875,-0.791259765625,-201.0,102.0,245.0,102190.0,-7.180000305175781,0,0
126.819995,0.28350830078125,-0.751220703125,0.57611083984375,-0.152679443359375,11.90185546875,-2.9296875,0.0,-0.10986328125,-0.54736328125,-0.834228515625,-200.0,102.0,243.0,102190.0,-7.180000305175781,0,0
126.826994,0.283477783203125,-0.751434326171875,0.575775146484375,-0.1529541015625,9.21630859375,0.54931640625,3.173828125,-0.01953125,-0.574462890625,-0.8436279296875,-200.0,102.0,243.0,102190.0,-7.180000305175781,0,0
126.833999,0.283538818359375,-0.75146484375,0.575714111328125,-0.1529541015625,-0.244140625,-4.7607421875,0.244140625,-0.0615234375,-0.632080078125,-0.8118896484375,-200.0,102.0,243.0,102190.0,-7.180000305175781,0,0
126.840994,0.28338623046875,-0.751495361328125,0.5758056640625,-0.15277099609375,-8.544921875,1.5869140625,3.96728515625,-0.09716796875,-0.7232666015625,-0.7896728515625,-200.0,102.0,243.0,102190.0,-7.180000305175781,0,0
126.847993,0.283447265625,-0.75140380859375,0.575927734375,-0.152679443359375,0.244140625,2.62451171875,2.01416015625,-0.1614990234375,-0.584716796875,-0.7840576171875,-200.0,102.0,243.0,102190.0,-7.180000305175781,0,0
126.854993,0.28363037109375,-0.751312255859375,0.575927734375,-0.15283203125,7.4462890625,2.3193359375,-2.0751953125,-0.097412109375,-0.58935546875,-0.78857421875,-200.0,102.0,243.0,102190.0,-7.180000305175781,0,0
126.861996,0.2835693359375,-0.7513427734375,0.575897216796875,-0.1529541015625,-3.41796875,3.173828125,-2.0751953125,-0.0919189453125,-0.6378173828125,-0.7691650390625,-200.0,102.0,243.0,102190.0,-7.180000305175781,0,0
126.868996,0.283477783203125,-0.751312255859375,0.57598876953125,-0.15283203125,0.18310546875,0.79345703125,1.52587890625,-0.084716796875,-0.6075439453125,-0.7728271484375,-200.0,102.0,243.0,102190.0,-7.178000450134277,0,0
126.875995,0.28363037109375,-0.751312255859375,0.575927734375,-0.15277099609375,2.25830078125,-0.91552734375,0.244140625,-0.0853271484375,-0.6357421875,-0.8096923828125,-200.0,102.0,243.0,102190.0,-7.178000450134277,0,0
126.882028,0.28363037109375,-0.751312255859375,0.575927734375,-0.15277099609375,2.25830078125,-0.91552734375,0.244140625,-0.0853271484375,-0.6357421875,-0.8096923828125,-200.0,102.0,243.0,102190.0,-7.178000450134277,0,0
126.888996,0.283538818359375,-0.751312255859375,0.575927734375,-0.152862548828125,-0.9765625,0.91552734375,0.732421875,-0.0943603515625,-0.6002197265625,-0.78466796875,-200.0,102.0,243.0,102190.0,-7.178000450134277,0,0
126.895996,0.28363037109375,-0.751312255859375,0.575897216796875,-0.15283203125,0.244140625,-1.64794921875,-0.1220703125,-0.100341796875,-0.604736328125,-0.7972412109375,-200.0,102.0,243.0,102190.0,-7.178000450134277,0,0
126.902995,0.28363037109375,-0.751312255859375,0.575897216796875,-0.152801513671875,-0.67138671875,-1.3427734375,0.1220703125,-0.0965576171875,-0.58837890625,-0.7742919921875,-200.0,102.0,243.0,102190.0,-7.178000450134277,0,0
126.909995,0.283538818359375,-0.751373291015625,0.575897216796875,-0.1527099609375,-0.6103515625,0.0,-0.48828125,-0.094970703125,-0.5911865234375,-0.7999267578125,-200.0,102.0,243.0,102190.0,-7.178000450134277,0,0
126.916994,0.283660888671875,-0.7513427734375,0.575897216796875,-0.152740478515625,-2.44140625,2.01416015625,-3.23486328125,-0.1312255859375,-0.5789794921875,-0.7381591796875,-200.0,102.0,243.0,102190.0,-7.178000450134277,0,0
126.923995,0.283538818359375,-0.751373291015625,0.575897216796875,-0.152862548828125,1.03759765625,2.8076171875,-1.03759765625,-0.0797119140625,-0.5709228515625,-0.7860107421875,-201.0,102.0,243.0,102190.0,-7.178000450134277,0,0
126.930993,0.283447265625,-0.751434326171875,0.57586669921875,-0.15277099609375,-6.9580078125,-0.91552734375,2.9296875,-0.0853271484375,-0.63134765625,-0.814697265625,-201.0,102.0,243.0,102190.0,-7.178000450134277,0,0
126.937993,0.283660888671875,-0.75140380859375,0.575775146484375,-0.15283203125,-0.244140625,-0.18310546875,-6.53076171875,-0.1370849609375,-0.54833984375,-0.7137451171875,-201.0,102.0,243.0,102190.0,-7.178000450134277,0,0
126.958996,0.283599853515625,-0.751434326171875,0.5758056640625,-0.15264892578125,3.173828125,-1.8310546875,1.40380859375,-0.0791015625,-0.5997314453125,-0.8062744140625,-201.0,102.0,243.0,102190.0,-7.178000450134277,0,0
126.965995,0.28363037109375,-0.751434326171875,0.5758056640625,-0.1527099609375,-0.18310546875,-0.54931640625,1.5869140625,-0.06982421875,-0.61083984375,-0.7620849609375,-201.0,102.0,243.0,102190.0,-7.178000450134277,0,0
126.972028,0.28363037109375,-0.751434326171875,0.5758056640625,-0.1527099609375,-0.18310546875,-0.54931640625,1.5869140625,-0.06982421875,-0.61083984375,-0.7620849609375,-201.0,102.0,243.0,102190.0,-7.178000450134277,0,0
126.978996,0.28363037109375,-0.751251220703125,0.575958251953125,-0.152923583984375,0.79345703125,1.8310546875,4.39453125,-0.0828857421875,-0.6280517578125,-0.8194580078125,-201.0,102.0,243.0,102190.0,-7.179000377655029,0,0
126.985996,0.28350830078125,-0.751312255859375,0.57598876953125,-0.152801513671875,-6.77490234375,3.47900390625,-2.8076171875,-0.14697265625,-0.5916748046875,-0.7548828125,-201.0,102.0,243.0,102190.0,-7.179000377655029,0,0
126.992995,0.283538818359375,-0.751220703125,0.5760498046875,-0.15301513671875,4.33349609375,2.25830078125,3.60107421875,-0.059326171875,-0.6187744140625,-0.802978515625,-201.0,102.0,243.0,102190.0,-7.179000377655029,0,0
126.999995,0.28338623046875,-0.751312255859375,0.5760498046875,-0.15277099609375,-1.220703125,-2.86865234375,4.150390625,-0.0679931640625,-0.5791015625,-0.8367919921875,-201.0,102.0,243.0,102190.0,-7.179000377655029,0,0
127.006994,0.28338623046875,-0.751312255859375,0.57611083984375,-0.1524658203125,-3.2958984375,-0.9765625,0.06103515625,-0.171630859375,-0.5792236328125,-0.8155517578125,-201.0,102.0,243.0,102190.0,-7.179000377655029,0,0
127.013995,0.28338623046875,-0.75140380859375,0.57598876953125,-0.15252685546875,-2.99072265625,-0.54931640625,-4.7607421875,-0.0926513671875,-0.6002197265625,-0.7734375,-201.0,102.0,243.0,102190.0,-7.179000377655029,0,0
127.020993,0.283416748046875,-0.751373291015625,0.5760498046875,-0.152435302734375,2.86865234375,-0.1220703125,0.6103515625,-0.0911865234375,-0.60205078125,-0.7926025390625,-200.0,103.0,245.0,102190.0,-7.179000377655029,0,0
127.041996,0.28314208984375,-0.75164794921875,0.575927734375,-0.15203857421875,1.52587890625,-0.6103515625,-5.67626953125,-0.1309814453125,-0.51904296875,-0.808349609375,-200.0,103.0,245.0,102190.0,-7.179000377655029,0,0
127.048996,0.283050537109375,-0.751861572265625,0.57574462890625,-0.15185546875,-0.42724609375,-3.0517578125,-4.39453125,-0.0784912109375,-0.6246337890625,-0.7977294921875,-200.0,103.0,245.0,102190.0,-7.179000377655029,0,0
127.055995,0.283111572265625,-0.751861572265625,0.57586669921875,-0.15118408203125,0.1220703125,-7.2021484375,4.21142578125,-0.0848388671875,-0.56494140625,-0.7930908203125,-200.0,103.0,245.0,102190.0,-7.179000377655029,0,0
127.062995,0.283355712890625,-0.75189208984375,0.57568359375,-0.151275634765625,7.62939453125,-1.40380859375,-5.67626953125,-0.126953125,-0.57275390625,-0.7669677734375,-200.0,103.0,245.0,102190.0,-7.179000377655029,0,0
127.069027,0.283355712890625,-0.75189208984375,0.57568359375,-0.151275634765625,7.62939453125,-1.40380859375,-5.67626953125,-0.126953125,-0.57275390625,-0.7669677734375,-200.0,103.0,245.0,102190.0,-7.179000377655029,0,0
127.075996,0.28314208984375,-0.75177001953125,0.575775146484375,-0.152130126953125,-12.0849609375,3.60107421875,-1.8310546875,-0.0665283203125,-0.6466064453125,-0.7412109375,-200.0,103.0,245.0,102190.0,-7.178000450134277,0,0
127.082995,0.283203125,-0.751739501953125,0.57574462890625,-0.152099609375,0.54931640625,-2.3193359375,0.54931640625,-0.0953369140625,-0.6103515625,-0.794189453125,-200.0,103.0,245.0,102190.0,-7.178000450134277,0,0
127.089995,0.2833251953125,-0.751922607421875,0.57562255859375,-0.151397705078125,-4.2724609375,-8.23974609375,-1.0986328125,-0.1009521484375,-0.57275390625,-0.751953125,-200.0,103.0,245.0,102190.0,-7.178000450134277,0,0
127.096994,0.283233642578125,-0.75201416015625,0.5755615234375,-0.151458740234375,3.84521484375,1.0986328125,4.0283203125,-0.037841796875,-0.6439208984375,-0.8426513671875,-200.0,103.0,245.0,102190.0,-7.178000450134277,0,0
127.103999,0.283203125,-0.751953125,0.57550048828125,-0.15203857421875,-0.244140625,5.92041015625,-4.33349609375,-0.1258544921875,-0.6131591796875,-0.74755859375,-200.0,103.0,245.0,102190.0,-7.178000450134277,0,0
127.110994,0.283233642578125,-0.75189208984375,0.575469970703125,-0.15228271484375,8.11767578125,2.0751953125,0.8544921875,-0.0498046875,-0.5555419921875,-0.78369140625,-200.0,103.0,245.0,102190.0,-7.178000450134277,0,0
127.117994,0.28326416015625,-0.751800537109375,0.5755615234375,-0.152435302734375,-1.0986328125,0.732421875,3.11279296875,-0.0615234375,-0.650634765625,-0.8084716796875,-200.0,103.0,245.0,102190.0,-7.178000450134277,0,0
127.124997,0.283355712890625,-0.751800537109375,0.575469970703125,-0.152587890625,2.13623046875,2.5634765625,-3.23486328125,-0.1121826171875,-0.5927734375,-0.736083984375,-200.0,101.0,244.0,102190.0,-7.178000450134277,0,0
127.131997,0.283294677734375,-0.751495361328125,0.5758056640625,-0.152862548828125,2.62451171875,-1.708984375,0.6103515625,-0.0765380859375,-0.5859375,-0.7955322265625,-200.0,101.0,244.0,102190.0,-7.178000450134277,0,0
127.138996,0.28326416015625,-0.7515869140625,0.57568359375,-0.153106689453125,0.3662109375,-0.8544921875,2.197265625,-0.030029296875,-0.647705078125,-0.790771484375,-200.0,101.0,244.0,102190.0,-7.178000450134277,0,0
127.145995,0.28314208984375,-0.7515869140625,0.57574462890625,-0.153045654296875,-4.21142578125,3.23486328125,-2.99072265625,-0.1380615234375,-0.569580078125,-0.7598876953125,-200.0,101.0,244.0,102190.0,-7.178000450134277,0,0
127.152995,0.28314208984375,-0.75152587890625,0.5758056640625,-0.15313720703125,4.94384765625,0.244140625,2.25830078125,-0.0714111328125,-0.59033203125,-0.8477783203125,-200.0,101.0,244.0,102190.0,-7.178000450134277,0,0
127.159027,0.28314208984375,-0.75152587890625,0.5758056640625,-0.15313720703125,4.94384765625,0.244140625,2.25830078125,-0.0714111328125,-0.59033203125,-0.8477783203125,-200.0,101.0,244.0,102190.0,-7.178000450134277,0,0
127.165996,0.2830810546875,-0.75164794921875,0.57574462890625,-0.152862548828125,-3.35693359375,0.18310546875,-2.0751953125,-0.1151123046875,-0.5743408203125,-0.7567138671875,-200.0,101.0,244.0,102190.0,-7.178000450134277,0,0
127.172995,0.28314208984375,-0.751617431640625,0.57574462890625,-0.152862548828125,2.13623046875,-2.38037109375,2.25830078125,-0.074951171875,-0.6234130859375,-0.832763671875,-200.0,101.0,244.0,102190.0,-7.180000305175781,0,0
127.179995,0.28314208984375,-0.7515869140625,0.57574462890625,-0.152923583984375,-1.28173828125,1.5869140625,0.42724609375,-0.08447265625,-0.6021728515625,-0.7724609375,-200.0,101.0,244.0,102190.0,-7.180000305175781,0,0
127.186994,0.283111572265625,-0.7515869140625,0.575775146484375,-0.1529541015625,0.30517578125,1.46484375,0.0,-0.1025390625,-0.6029052734375,-0.798583984375,-200.0,101.0,244.0,102190.0,-7.180000305175781,0,0
127.193995,0.2830810546875,-0.7515869140625,0.5758056640625,-0.152923583984375,0.67138671875,0.8544921875,-0.18310546875,-0.0933837890625,-0.59228515625,-0.78369140625,-200.0,101.0,244.0,102190.0,-7.180000305175781,0,0
127.214993,0.28314208984375,-0.751678466796875,0.57562255859375,-0.152984619140625,-1.40380859375,0.1220703125,-3.23486328125,-0.103515625,-0.5975341796875,-0.7489013671875,-200.0,101.0,244.0,102190.0,-7.180000305175781,0,0
127.221996,0.283111572265625,-0.7515869140625,0.575775146484375,-0.1529541015625,-2.86865234375,1.77001953125,-3.7841796875,-0.1427001953125,-0.6075439453125,-0.7513427734375,-202.0,100.0,246.0,102190.0,-7.180000305175781,0,0
127.228996,0.283172607421875,-0.751739501953125,0.57562255859375,-0.152740478515625,-1.0986328125,-3.662109375,3.60107421875,-0.082763671875,-0.603515625,-0.8006591796875,-202.0,100.0,246.0,102190.0,-7.180000305175781,0,0
127.235995,0.28326416015625,-0.751739501953125,0.575531005859375,-0.152923583984375,-8.056640625,2.0751953125,-4.08935546875,-0.1494140625,-0.6314697265625,-0.7108154296875,-202.0,100.0,246.0,102190.0,-7.180000305175781,0,0
127.242995,0.283172607421875,-0.75177001953125,0.5755615234375,-0.152679443359375,-2.685546875,-3.173828125,1.15966796875,-0.104248046875,-0.5616455078125,-0.8121337890625,-202.0,100.0,246.0,102190.0,-7.180000305175781,0,0
127.249994,0.28314208984375,-0.7518310546875,0.575531005859375,-0.152557373046875,2.44140625,-2.197265625,-2.25830078125,-0.0836181640625,-0.580078125,-0.7667236328125,-202.0,100.0,246.0,102190.0,-7.180000305175781,0,0
127.256027,0.28314208984375,-0.7518310546875,0.575531005859375,-0.152557373046875,2.44140625,-2.197265625,-2.25830078125,-0.0836181640625,-0.580078125,-0.7667236328125,-202.0,100.0,246.0,102190.0,-7.180000305175781,0,0
127.262995,0.283111572265625,-0.7518310546875,0.5755615234375,-0.15264892578125,1.0986328125,2.8076171875,-1.77001953125,-0.1048583984375,-0.5447998046875,-0.7530517578125,-202.0,100.0,246.0,102190.0,-7.180000305175781,0,0
127.269995,0.2830810546875,-0.7518310546875,0.575531005859375,-0.152801513671875,2.01416015625,1.52587890625,1.15966796875,-0.074951171875,-0.6141357421875,-0.8050537109375,-202.0,100.0,246.0,102190.0,-7.178000450134277,0,0
127.276994,0.2830810546875,-0.75189208984375,0.575408935546875,-0.15289306640625,0.244140625,2.9296875,-5.43212890625,-0.1138916015625,-0.5902099609375,-0.757568359375,-202.0,100.0,246.0,102190.0,-7.178000450134277,0,0
127.283995,0.282989501953125,-0.751983642578125,0.5753173828125,-0.15301513671875,7.32421875,-2.99072265625,-0.244140625,-0.0406494140625,-0.54736328125,-0.8516845703125,-202.0,100.0,246.0,102190.0,-7.178000450134277,0,0
127.304993,0.28271484375,-0.752044677734375,0.575286865234375,-0.153289794921875,-0.1220703125,2.3193359375,-5.2490234375,-0.1552734375,-0.5635986328125,-0.780517578125,-202.0,100.0,246.0,102190.0,-7.178000450134277,0,0
127.311996,0.282745361328125,-0.7520751953125,0.57525634765625,-0.15313720703125,1.708984375,-5.126953125,0.6103515625,-0.0848388671875,-0.5693359375,-0.822021484375,-202.0,100.0,246.0,102190.0,-7.178000450134277,0,0
127.318996,0.2828369140625,-0.752044677734375,0.575286865234375,-0.152984619140625,-3.0517578125,-7.568359375,5.79833984375,-0.0557861328125,-0.65673828125,-0.8170166015625,-202.0,98.0,244.0,102190.0,-7.178000450134277,0,0
127.325995,0.28277587890625,-0.752044677734375,0.5753173828125,-0.153045654296875,3.35693359375,0.8544921875,-0.3662109375,-0.076171875,-0.5780029296875,-0.8111572265625,-202.0,98.0,244.0,102190.0,-7.178000450134277,0,0
127.332995,0.28277587890625,-0.751983642578125,0.575347900390625,-0.1531982421875,3.41796875,1.03759765625,2.3193359375,-0.0615234375,-0.6292724609375,-0.8487548828125,-202.0,98.0,244.0,102190.0,-7.178000450134277,0,0
127.339994,0.282928466796875,-0.751983642578125,0.575347900390625,-0.15301513671875,-2.9296875,-1.0986328125,0.48828125,-0.1009521484375,-0.5921630859375,-0.7650146484375,-202.0,98.0,244.0,102190.0,-7.178000450134277,0,0
127.346027,0.282928466796875,-0.751983642578125,0.575347900390625,-0.15301513671875,-2.9296875,-1.0986328125,0.48828125,-0.1009521484375,-0.5921630859375,-0.7650146484375,-202.0,98.0,244.0,102190.0,-7.178000450134277,0,0
127.352995,0.282958984375,-0.751953125,0.5753173828125,-0.15313720703125,6.77490234375,1.3427734375,-1.89208984375,-0.083740234375,-0.564453125,-0.7677001953125,-202.0,98.0,244.0,102190.0,-7.178000450134277,0,0
127.359995,0.282745361328125,-0.752044677734375,0.5753173828125,-0.153106689453125,-0.79345703125,2.197265625,-2.5634765625,-0.1251220703125,-0.5489501953125,-0.7918701171875,-202.0,98.0,244.0,102190.0,-7.178000450134277,0,0
127.366994,0.282806396484375,-0.752105712890625,0.5751953125,-0.15313720703125,0.732421875,-2.74658203125,-3.60107421875,-0.0809326171875,-0.6038818359375,-0.77783203125,-202.0,98.0,244.0,102190.0,-7.178000450134277,0,0
127.373999,0.28289794921875,-0.75213623046875,0.575103759765625,-0.15313720703125,-2.13623046875,-5.2490234375,1.15966796875,-0.048583984375,-0.6497802734375,-0.7752685546875,-202.0,98.0,244.0,102190.0,-7.178000450134277,0,0
127.380994,0.282562255859375,-0.752227783203125,0.575225830078125,-0.152862548828125,-8.4228515625,0.732421875,1.52587890625,-0.12548828125,-0.5999755859375,-0.7496337890625,-202.0,98.0,244.0,102190.0,-7.178000450134277,0,0
127.387994,0.282562255859375,-0.75213623046875,0.57525634765625,-0.153167724609375,1.46484375,1.708984375,4.69970703125,-0.0123291015625,-0.68896484375,-0.8260498046875,-202.0,98.0,244.0,102190.0,-7.178000450134277,0,0
127.394997,0.282623291015625,-0.752166748046875,0.575225830078125,-0.153045654296875,3.35693359375,-1.46484375,3.35693359375,-0.0869140625,-0.6673583984375,-0.75927734375,-202.0,98.0,244.0,102190.0,-7.178000450134277,0,0
127.401997,0.282623291015625,-0.752105712890625,0.57537841796875,-0.15289306640625,0.8544921875,0.79345703125,3.662109375,-0.1290283203125,-0.5853271484375,-0.83642578125,-202.0,98.0,244.0,102190.0,-7.178000450134277,0,0
127.408996,0.28271484375,-0.7520751953125,0.575408935546875,-0.152740478515625,1.40380859375,-1.220703125,0.1220703125,-0.14990234375,-0.5943603515625,-0.8209228515625,-202.0,98.0,244.0,102190.0,-7.178000450134277,0,0
127.415995,0.282958984375,-0.75189208984375,0.575408935546875,-0.153076171875,2.99072265625,2.9296875,-4.82177734375,-0.1258544921875,-0.5269775390625,-0.732421875,-202.0,98.0,244.0,102190.0,-7.178000450134277,0,0
127.422995,0.28314208984375,-0.751953125,0.575286865234375,-0.152923583984375,2.5634765625,0.732421875,3.11279296875,-0.1129150390625,-0.6539306640625,-0.799560546875,-204.0,98.0,244.0,102190.0,-7.178000450134277,0,0
127.429994,0.283203125,-0.751922607421875,0.5753173828125,-0.152862548828125,2.44140625,2.0751953125,-1.3427734375,-0.1497802734375,-0.5455322265625,-0.756103515625,-204.0,98.0,244.0,102190.0,-7.178000450134277,0,0
127.436999,0.28326416015625,-0.7518310546875,0.57537841796875,-0.152923583984375,2.01416015625,3.11279296875,-2.3193359375,-0.09521484375,-0.583251953125,-0.7882080078125,-204.0,98.0,244.0,102190.0,-7.178000450134277,0,0
127.443031,0.28326416015625,-0.7518310546875,0.57537841796875,-0.152923583984375,2.01416015625,3.11279296875,-2.3193359375,-0.09521484375,-0.583251953125,-0.7882080078125,-204.0,98.0,244.0,102190.0,-7.178000450134277,0,0
127.449995,0.283203125,-0.751922607421875,0.575286865234375,-0.152923583984375,-3.41796875,1.52587890625,2.38037109375,-0.052001953125,-0.6348876953125,-0.784912109375,-204.0,98.0,244.0,102190.0,-7.178000450134277,0,0
127.456994,0.28314208984375,-0.751922607421875,0.575347900390625,-0.15289306640625,-0.67138671875,2.197265625,-1.3427734375,-0.1038818359375,-0.55322265625,-0.7557373046875,-204.0,98.0,244.0,102190.0,-7.178000450134277,0,0
127.477993,0.283172607421875,-0.75189208984375,0.575347900390625,-0.152923583984375,-1.708984375,1.220703125,-0.18310546875,-0.0950927734375,-0.602783203125,-0.790283203125,-204.0,98.0,244.0,102190.0,-7.178000450134277,0,0
127.484993,0.283203125,-0.751861572265625,0.57537841796875,-0.152923583984375,1.5869140625,-0.3662109375,0.48828125,-0.093017578125,-0.6029052734375,-0.81201171875,-204.0,98.0,244.0,102190.0,-7.178000450134277,0,0
127.491996,0.283172607421875,-0.751922607421875,0.575347900390625,-0.15289306640625,-2.13623046875,0.54931640625,-1.40380859375,-0.1068115234375,-0.592529296875,-0.7728271484375,-204.0,98.0,244.0,102190.0,-7.178000450134277,0,0
127.498996,0.28314208984375,-0.75189208984375,0.57537841796875,-0.152923583984375,-3.84521484375,0.91552734375,-0.732421875,-0.112060546875,-0.6148681640625,-0.760009765625,-204.0,98.0,244.0,102190.0,-7.178000450134277,0,0
127.505995,0.2830810546875,-0.75189208984375,0.57537841796875,-0.1529541015625,-1.03759765625,-1.0986328125,1.77001953125,-0.0582275390625,-0.6077880859375,-0.795166015625,-204.0,98.0,244.0,102190.0,-7.178000450134277,0,0
127.512995,0.282958984375,-0.751983642578125,0.575347900390625,-0.15283203125,-7.62939453125,2.0751953125,-3.2958984375,-0.135009765625,-0.606689453125,-0.7462158203125,-204.0,98.0,244.0,102190.0,-7.178000450134277,0,0
127.519994,0.28302001953125,-0.751861572265625,0.575531005859375,-0.15264892578125,2.86865234375,-0.3662109375,1.3427734375,-0.1435546875,-0.5633544921875,-0.805419921875,-204.0,98.0,244.0,102189.0,-7.176000118255615,0,0
127.526995,0.2830810546875,-0.752166748046875,0.5751953125,-0.15240478515625,0.06103515625,0.54931640625,-0.30517578125,-0.129150390625,-0.58349609375,-0.814697265625,-203.0,97.0,243.0,102189.0,-7.176000118255615,0,0
127.533026,0.2830810546875,-0.752166748046875,0.5751953125,-0.15240478515625,0.06103515625,0.54931640625,-0.30517578125,-0.129150390625,-0.58349609375,-0.814697265625,-203.0,97.0,243.0,102189.0,-7.176000118255615,0,0
127.539995,0.283172607421875,-0.752044677734375,0.575408935546875,-0.15191650390625,0.6103515625,-4.638671875,7.4462890625,-0.0701904296875,-0.5894775390625,-0.8280029296875,-203.0,97.0,243.0,102189.0,-7.176000118255615,0,0
127.546994,0.28314208984375,-0.7520751953125,0.575408935546875,-0.151824951171875,5.4931640625,-0.67138671875,-1.89208984375,-0.1121826171875,-0.5565185546875,-0.769287109375,-203.0,97.0,243.0,102189.0,-7.176000118255615,0,0
127.567993,0.28302001953125,-0.752044677734375,0.575592041015625,-0.1514892578125,0.79345703125,-3.662109375,2.86865234375,-0.13525390625,-0.5596923828125,-0.82568359375,-203.0,97.0,243.0,102189.0,-7.176000118255615,0,0
127.574993,0.282928466796875,-0.7520751953125,0.57562255859375,-0.15130615234375,-3.0517578125,-0.3662109375,-0.244140625,-0.1209716796875,-0.5782470703125,-0.7967529296875,-203.0,97.0,243.0,102189.0,-7.176000118255615,0,0
127.581996,0.283233642578125,-0.751953125,0.57562255859375,-0.151458740234375,6.16455078125,1.15966796875,-4.39453125,-0.1336669921875,-0.5240478515625,-0.7652587890625,-203.0,97.0,243.0,102189.0,-7.176000118255615,0,0
127.588996,0.28326416015625,-0.75189208984375,0.575653076171875,-0.151641845703125,3.662109375,3.2958984375,0.48828125,-0.0909423828125,-0.6083984375,-0.79541015625,-203.0,97.0,243.0,102189.0,-7.176000118255615,0,0
127.595995,0.283294677734375,-0.751739501953125,0.575836181640625,-0.151611328125,-4.150390625,1.953125,0.244140625,-0.1090087890625,-0.6292724609375,-0.755859375,-203.0,97.0,243.0,102189.0,-7.176000118255615,0,0
127.602995,0.2833251953125,-0.751800537109375,0.575714111328125,-0.151763916015625,1.220703125,1.5869140625,-4.21142578125,-0.0906982421875,-0.6065673828125,-0.7684326171875,-203.0,97.0,243.0,102189.0,-7.176000118255615,0,0
127.609994,0.28326416015625,-0.7518310546875,0.575653076171875,-0.15185546875,-0.06103515625,1.953125,-2.62451171875,-0.09033203125,-0.595703125,-0.7872314453125,-203.0,97.0,243.0,102189.0,-7.176000118255615,0,0
127.616995,0.283203125,-0.752044677734375,0.5755615234375,-0.15142822265625,-1.953125,-1.46484375,1.64794921875,-0.0880126953125,-0.6409912109375,-0.7957763671875,-203.0,97.0,243.0,102190.0,-7.177000522613525,0,0
127.623026,0.283203125,-0.752044677734375,0.5755615234375,-0.15142822265625,-1.953125,-1.46484375,1.64794921875,-0.0880126953125,-0.6409912109375,-0.7957763671875,-203.0,97.0,243.0,102190.0,-7.177000522613525,0,0
127.629995,0.2833251953125,-0.752227783203125,0.5753173828125,-0.151123046875,-2.38037109375,-4.39453125,2.5634765625,-0.08251953125,-0.6309814453125,-0.7774658203125,-203.0,97.0,244.0,102190.0,-7.177000522613525,0,0
127.636994,0.283447265625,-0.7520751953125,0.57537841796875,-0.151397705078125,0.30517578125,-0.48828125,-0.3662109375,-0.1224365234375,-0.5640869140625,-0.7728271484375,-203.0,97.0,244.0,102190.0,-7.177000522613525,0,0
127.643995,0.28338623046875,-0.752105712890625,0.57537841796875,-0.15142822265625,-3.60107421875,3.7841796875,-2.62451171875,-0.119873046875,-0.6121826171875,-0.758056640625,-203.0,97.0,244.0,102190.0,-7.177000522613525,0,0
127.650994,0.28338623046875,-0.75201416015625,0.575531005859375,-0.15118408203125,-2.86865234375,1.03759765625,1.03759765625,-0.1065673828125,-0.5543212890625,-0.79638671875,-203.0,97.0,244.0,102190.0,-7.177000522613525,0,0
127.657994,0.283355712890625,-0.752197265625,0.57537841796875,-0.151031494140625,4.57763671875,-2.50244140625,-0.244140625,-0.053466796875,-0.594482421875,-0.8447265625,-203.0,97.0,244.0,102190.0,-7.177000522613525,0,0
127.664997,0.283538818359375,-0.75201416015625,0.575469970703125,-0.151214599609375,3.72314453125,2.13623046875,5.55419921875,-0.0904541015625,-0.656982421875,-0.791259765625,-203.0,97.0,244.0,102190.0,-7.177000522613525,0,0
127.671997,0.283477783203125,-0.752105712890625,0.575286865234375,-0.151611328125,1.8310546875,2.9296875,-6.4697265625,-0.14208984375,-0.5384521484375,-0.75927734375,-203.0,97.0,244.0,102190.0,-7.177000522613525,0,0
127.678996,0.283447265625,-0.752044677734375,0.57537841796875,-0.1514892578125,7.32421875,-2.25830078125,-0.18310546875,-0.1175537109375,-0.5894775390625,-0.8311767578125,-203.0,97.0,244.0,102190.0,-7.177000522613525,0,0
127.685995,0.283416748046875,-0.752166748046875,0.575347900390625,-0.1512451171875,-4.638671875,-3.7841796875,-2.197265625,-0.116455078125,-0.5655517578125,-0.7723388671875,-203.0,97.0,244.0,102190.0,-7.177000522613525,0,0
127.692995,0.283447265625,-0.7523193359375,0.57513427734375,-0.151214599609375,-0.8544921875,-2.38037109375,-1.28173828125,-0.0914306640625,-0.59814453125,-0.790283203125,-203.0,97.0,244.0,102190.0,-7.177000522613525,0,0
127.699994,0.283416748046875,-0.752288818359375,0.5753173828125,-0.15069580078125,-3.84521484375,-4.150390625,4.39453125,-0.10546875,-0.587158203125,-0.8123779296875,-203.0,97.0,244.0,102190.0,-7.177000522613525,0,0
127.706999,0.283447265625,-0.752227783203125,0.57537841796875,-0.150604248046875,-2.8076171875,1.220703125,-2.5634765625,-0.1605224609375,-0.57373046875,-0.75439453125,-203.0,97.0,244.0,102190.0,-7.177000522613525,0,0
127.713994,0.283538818359375,-0.752166748046875,0.575439453125,-0.150634765625,6.16455078125,2.44140625,0.3662109375,-0.1416015625,-0.56494140625,-0.8187255859375,-203.0,97.0,244.0,102190.0,-7.177000522613525,0,0
127.720026,0.283538818359375,-0.752166748046875,0.575439453125,-0.150634765625,6.16455078125,2.44140625,0.3662109375,-0.1416015625,-0.56494140625,-0.8187255859375,-203.0,97.0,244.0,102190.0,-7.177000522613525,0,0
127.740994,0.283416748046875,-0.752227783203125,0.5751953125,-0.1513671875,1.0986328125,1.0986328125,1.953125,-0.0672607421875,-0.6075439453125,-0.8231201171875,-204.0,97.0,244.0,102190.0,-7.178000450134277,0,0
127.747993,0.283477783203125,-0.75225830078125,0.575164794921875,-0.1513671875,-3.173828125,0.67138671875,-1.5869140625,-0.1043701171875,-0.58349609375,-0.7486572265625,-204.0,97.0,244.0,102190.0,-7.178000450134277,0,0
127.754993,0.283447265625,-0.75225830078125,0.575164794921875,-0.151336669921875,-0.6103515625,-0.9765625,1.0986328125,-0.0830078125,-0.5911865234375,-0.789306640625,-204.0,97.0,244.0,102190.0,-7.178000450134277,0,0
127.761996,0.283447265625,-0.7523193359375,0.57513427734375,-0.151123046875,-2.62451171875,-1.3427734375,-1.0986328125,-0.104736328125,-0.5989990234375,-0.789794921875,-204.0,97.0,244.0,102190.0,-7.178000450134277,0,0
127.768996,0.283477783203125,-0.7523193359375,0.57513427734375,-0.15106201171875,-1.220703125,-1.708984375,0.3662109375,-0.0965576171875,-0.6065673828125,-0.781982421875,-204.0,97.0,244.0,102190.0,-7.178000450134277,0,0
127.775995,0.283447265625,-0.752349853515625,0.575103759765625,-0.151031494140625,-1.40380859375,0.1220703125,-1.220703125,-0.10205078125,-0.591552734375,-0.7806396484375,-204.0,97.0,244.0,102190.0,-7.178000450134277,0,0
127.782995,0.283447265625,-0.752288818359375,0.575164794921875,-0.151153564453125,0.8544921875,0.6103515625,1.15966796875,-0.09814453125,-0.59912109375,-0.7969970703125,-204.0,97.0,244.0,102190.0,-7.178000450134277,0,0
127.789994,0.28338623046875,-0.7523193359375,0.575164794921875,-0.151123046875,-3.84521484375,2.197265625,-2.01416015625,-0.120361328125,-0.5987548828125,-0.7469482421875,-204.0,97.0,244.0,102190.0,-7.178000450134277,0,0
127.796995,0.283599853515625,-0.75225830078125,0.57513427734375,-0.151275634765625,4.638671875,0.30517578125,1.953125,-0.1153564453125,-0.5771484375,-0.8414306640625,-204.0,97.0,244.0,102190.0,-7.178000450134277,0,0
127.803993,0.28369140625,-0.752288818359375,0.574981689453125,-0.1514892578125,5.2490234375,0.48828125,-4.21142578125,-0.076904296875,-0.5809326171875,-0.7568359375,-204.0,97.0,244.0,102190.0,-7.178000450134277,0,0
127.810021,0.28369140625,-0.752288818359375,0.574981689453125,-0.1514892578125,5.2490234375,0.48828125,-4.21142578125,-0.076904296875,-0.5809326171875,-0.7568359375,-204.0,97.0,244.0,102190.0,-7.178000450134277,0,0
127.830993,0.28369140625,-0.752288818359375,0.57489013671875,-0.151702880859375,6.591796875,-1.40380859375,1.708984375,-0.06591796875,-0.6048583984375,-0.817626953125,-205.0,97.0,244.0,102190.0,-7.179000377655029,0,0
127.837993,0.283660888671875,-0.752227783203125,0.5750732421875,-0.1513671875,-5.79833984375,-2.01416015625,1.03759765625,-0.1278076171875,-0.6112060546875,-0.7711181640625,-205.0,97.0,244.0,102190.0,-7.179000377655029,0,0
127.844993,0.283538818359375,-0.752349853515625,0.574981689453125,-0.151397705078125,-1.77001953125,5.43212890625,-7.568359375,-0.1552734375,-0.5421142578125,-0.7431640625,-205.0,97.0,244.0,102190.0,-7.179000377655029,0,0
127.851996,0.283355712890625,-0.752288818359375,0.575164794921875,-0.15142822265625,-3.41796875,1.953125,0.8544921875,-0.052734375,-0.6160888671875,-0.81689453125,-205.0,97.0,244.0,102190.0,-7.179000377655029,0,0
127.858996,0.283355712890625,-0.7523193359375,0.575103759765625,-0.15142822265625,3.662109375,2.25830078125,-1.3427734375,-0.0775146484375,-0.591552734375,-0.8111572265625,-205.0,97.0,244.0,102190.0,-7.179000377655029,0,0
127.865995,0.28338623046875,-0.752288818359375,0.5750732421875,-0.151611328125,4.2724609375,4.21142578125,-2.44140625,-0.109130859375,-0.5823974609375,-0.7735595703125,-205.0,97.0,244.0,102190.0,-7.179000377655029,0,0
127.872995,0.283416748046875,-0.752197265625,0.575103759765625,-0.151824951171875,5.31005859375,3.11279296875,-1.52587890625,-0.0914306640625,-0.615234375,-0.802978515625,-205.0,97.0,244.0,102190.0,-7.179000377655029,0,0
127.879994,0.283447265625,-0.752166748046875,0.575164794921875,-0.151702880859375,2.0751953125,0.79345703125,-0.67138671875,-0.11474609375,-0.5877685546875,-0.7845458984375,-205.0,97.0,244.0,102190.0,-7.179000377655029,0,0
127.886995,0.283599853515625,-0.7520751953125,0.57513427734375,-0.152069091796875,6.77490234375,1.5869140625,0.244140625,-0.065185546875,-0.633544921875,-0.810302734375,-205.0,97.0,244.0,102190.0,-7.179000377655029,0,0
127.893993,0.283538818359375,-0.75213623046875,0.5750732421875,-0.152191162109375,-3.41796875,5.31005859375,-4.2724609375,-0.1229248046875,-0.618896484375,-0.72509765625,-205.0,97.0,244.0,102190.0,-7.179000377655029,0,0
127.900993,0.283477783203125,-0.752166748046875,0.5750732421875,-0.15203857421875,-5.2490234375,-3.7841796875,-2.38037109375,-0.116455078125,-0.5982666015625,-0.7926025390625,-205.0,97.0,244.0,102190.0,-7.179000377655029,0,0
127.907025,0.283477783203125,-0.752166748046875,0.5750732421875,-0.15203857421875,-5.2490234375,-3.7841796875,-2.38037109375,-0.116455078125,-0.5982666015625,-0.7926025390625,-205.0,97.0,244.0,102190.0,-7.179000377655029,0,0
127.913995,0.28363037109375,-0.752197265625,0.57501220703125,-0.15185546875,0.42724609375,1.953125,-5.06591796875,-0.1513671875,-0.533935546875,-0.7310791015625,-205.0,97.0,244.0,102190.0,-7.179000377655029,0,0
127.920993,0.28338623046875,-0.752166748046875,0.575042724609375,-0.15234375,5.9814453125,3.84521484375,2.50244140625,-0.0328369140625,-0.61279296875,-0.81640625,-205.0,99.0,243.0,102190.0,-7.178000450134277,0,0
127.927993,0.28326416015625,-0.752471923828125,0.574859619140625,-0.15185546875,-6.2255859375,-2.197265625,-1.03759765625,-0.134521484375,-0.575439453125,-0.8089599609375,-205.0,99.0,243.0,102190.0,-7.178000450134277,0,0
127.934993,0.28338623046875,-0.752593994140625,0.57464599609375,-0.15167236328125,-6.7138671875,-2.197265625,-3.7841796875,-0.1324462890625,-0.5875244140625,-0.792724609375,-205.0,99.0,243.0,102190.0,-7.178000450134277,0,0
127.941996,0.2833251953125,-0.752532958984375,0.574737548828125,-0.1517333984375,-3.23486328125,-0.18310546875,4.8828125,-0.04736328125,-0.648193359375,-0.802490234375,-205.0,99.0,243.0,102190.0,-7.178000450134277,0,0
127.948996,0.283233642578125,-0.752685546875,0.5745849609375,-0.1517333984375,-9.94873046875,3.2958984375,-7.6904296875,-0.13427734375,-0.570556640625,-0.7510986328125,-205.0,99.0,243.0,102190.0,-7.178000450134277,0,0
127.955995,0.283355712890625,-0.752716064453125,0.574432373046875,-0.1519775390625,2.50244140625,-1.52587890625,-3.60107421875,-0.1236572265625,-0.5997314453125,-0.79541015625,-205.0,99.0,243.0,102190.0,-7.178000450134277,0,0
127.962995,0.2833251953125,-0.752777099609375,0.574432373046875,-0.15167236328125,-8.4228515625,-2.9296875,0.18310546875,-0.091064453125,-0.622314453125,-0.7698974609375,-205.0,99.0,243.0,102190.0,-7.178000450134277,0,0
127.969994,0.28326416015625,-0.752838134765625,0.574493408203125,-0.15142822265625,-3.96728515625,-2.62451171875,0.8544921875,-0.113037109375,-0.582275390625,-0.80322265625,-205.0,99.0,243.0,102190.0,-7.178000450134277,0,0
127.976999,0.283355712890625,-0.752685546875,0.57452392578125,-0.151824951171875,-3.35693359375,2.5634765625,7.080078125,-0.03125,-0.705810546875,-0.7537841796875,-205.0,99.0,243.0,102190.0,-7.178000450134277,0,0
127.983994,0.2833251953125,-0.752655029296875,0.574554443359375,-0.1519775390625,2.01416015625,3.23486328125,-2.62451171875,-0.1048583984375,-0.5789794921875,-0.806396484375,-205.0,99.0,243.0,102190.0,-7.178000450134277,0,0
128.003999,0.283294677734375,-0.752716064453125,0.574462890625,-0.15191650390625,-4.5166015625,3.662109375,-9.09423828125,-0.126708984375,-0.573486328125,-0.7388916015625,-205.0,99.0,243.0,102190.0,-7.178000450134277,0,0
128.010994,0.283233642578125,-0.752593994140625,0.5745849609375,-0.152191162109375,-0.48828125,1.0986328125,8.11767578125,0.007080078125,-0.694580078125,-0.8341064453125,-205.0,99.0,243.0,102190.0,-7.178000450134277,0,0
128.017994,0.283233642578125,-0.75262451171875,0.57464599609375,-0.15191650390625,-7.080078125,0.9765625,-1.40380859375,-0.11572265625,-0.588134765625,-0.7393798828125,-206.0,97.0,241.0,102190.0,-7.179000377655029,0,0
128.024997,0.2833251953125,-0.752532958984375,0.57464599609375,-0.152191162109375,10.25390625,1.46484375,0.9765625,-0.075927734375,-0.5615234375,-0.8330078125,-206.0,97.0,241.0,102190.0,-7.179000377655029,0,0
128.031997,0.283294677734375,-0.752532958984375,0.57464599609375,-0.15216064453125,-2.38037109375,0.8544921875,-0.79345703125,-0.104736328125,-0.590576171875,-0.7620849609375,-206.0,97.0,241.0,102190.0,-7.179000377655029,0,0
128.038996,0.2833251953125,-0.752532958984375,0.57464599609375,-0.152069091796875,-2.38037109375,0.0,-4.39453125,-0.144287109375,-0.568603515625,-0.7645263671875,-206.0,97.0,241.0,102190.0,-7.179000377655029,0,0
128.045995,0.28338623046875,-0.752532958984375,0.57464599609375,-0.152008056640625,0.8544921875,-0.06103515625,-1.15966796875,-0.1263427734375,-0.5792236328125,-0.7659912109375,-206.0,97.0,241.0,102190.0,-7.179000377655029,0,0
128.052995,0.2833251953125,-0.752532958984375,0.57464599609375,-0.152099609375,-2.99072265625,0.91552734375,0.54931640625,-0.0797119140625,-0.597900390625,-0.76025390625,-206.0,97.0,241.0,102190.0,-7.179000377655029,0,0
128.059994,0.28338623046875,-0.75250244140625,0.57464599609375,-0.152099609375,3.41796875,-1.15966796875,1.03759765625,-0.0909423828125,-0.595458984375,-0.8074951171875,-206.0,97.0,241.0,102190.0,-7.179000377655029,0,0
128.066995,0.28338623046875,-0.752532958984375,0.57464599609375,-0.152099609375,-0.91552734375,0.67138671875,-1.0986328125,-0.107666015625,-0.5828857421875,-0.7586669921875,-206.0,97.0,241.0,102190.0,-7.179000377655029,0,0
128.073993,0.283355712890625,-0.752532958984375,0.57464599609375,-0.152099609375,-3.2958984375,0.9765625,-0.54931640625,-0.093505859375,-0.6031494140625,-0.77294921875,-206.0,97.0,241.0,102190.0,-7.179000377655029,0,0
128.09402,0.28338623046875,-0.7525634765625,0.574615478515625,-0.152099609375,5.37109375,-0.9765625,-0.06103515625,-0.1015625,-0.571533203125,-0.83447265625,-206.0,97.0,241.0,102190.0,-7.179000377655029,0,0
128.100993,0.28338623046875,-0.752532958984375,0.574554443359375,-0.152313232421875,-6.40869140625,3.0517578125,-4.57763671875,-0.1287841796875,-0.56298828125,-0.7073974609375,-206.0,97.0,241.0,102190.0,-7.179000377655029,0,0
128.107993,0.283355712890625,-0.752410888671875,0.574798583984375,-0.152099609375,0.54931640625,-1.28173828125,5.9814453125,-0.052734375,-0.6241455078125,-0.8450927734375,-206.0,97.0,241.0,102190.0,-7.179000377655029,0,0
128.114993,0.283294677734375,-0.75244140625,0.5748291015625,-0.1519775390625,-0.18310546875,1.0986328125,-1.3427734375,-0.1219482421875,-0.5740966796875,-0.7742919921875,-206.0,97.0,241.0,102190.0,-7.179000377655029,0,0
128.177993,0.283477783203125,-0.751953125,0.575225830078125,-0.15252685546875,-1.52587890625,6.77490234375,2.3193359375,-0.0716552734375,-0.62158203125,-0.7623291015625,-206.0,99.0,240.0,102190.0,-7.176000118255615,0,0
128.18402,0.283477783203125,-0.751953125,0.575225830078125,-0.15252685546875,-1.52587890625,6.77490234375,2.3193359375,-0.0716552734375,-0.62158203125,-0.7623291015625,-206.0,99.0,240.0,102190.0,-7.176000118255615,0,0
128.190993,0.283477783203125,-0.752044677734375,0.575103759765625,-0.152557373046875,2.44140625,-1.220703125,-5.18798828125,-0.1221923828125,-0.53955078125,-0.7655029296875,-206.0,99.0,240.0,102190.0,-7.176000118255615,0,0
128.197993,0.2833251953125,-0.752288818359375,0.574920654296875,-0.15228271484375,-5.67626953125,-3.0517578125,0.54931640625,-0.0531005859375,-0.6356201171875,-0.7750244140625,-206.0,99.0,240.0,102190.0,-7.176000118255615,0,0
128.204993,0.2833251953125,-0.752349853515625,0.574920654296875,-0.15203857421875,-1.708984375,-5.0048828125,0.67138671875,-0.107421875,-0.58251953125,-0.8170166015625,-206.0,99.0,240.0,102190.0,-7.176000118255615,0,0
128.211996,0.283416748046875,-0.75238037109375,0.5748291015625,-0.15203857421875,1.5869140625,0.6103515625,-4.57763671875,-0.130615234375,-0.568359375,-0.743408203125,-206.0,99.0,240.0,102190.0,-7.176000118255615,0,0
128.218996,0.28338623046875,-0.75238037109375,0.5748291015625,-0.152069091796875,-3.84521484375,0.30517578125,2.197265625,-0.1055908203125,-0.5999755859375,-0.7996826171875,-205.0,98.0,238.0,102190.0,-7.178000450134277,0,0
128.225995,0.2833251953125,-0.752105712890625,0.575225830078125,-0.152008056640625,-1.46484375,0.9765625,0.9765625,-0.10009765625,-0.6090087890625,-0.7708740234375,-205.0,98.0,238.0,102190.0,-7.178000450134277,0,0
128.232995,0.28350830078125,-0.7520751953125,0.575225830078125,-0.1519775390625,7.568359375,-1.5869140625,-0.42724609375,-0.12158203125,-0.5498046875,-0.8057861328125,-205.0,98.0,238.0,102190.0,-7.178000450134277,0,0
128.239994,0.283416748046875,-0.751861572265625,0.575408935546875,-0.15234375,6.8359375,4.33349609375,4.33349609375,-0.0611572265625,-0.6068115234375,-0.7847900390625,-205.0,98.0,238.0,102190.0,-7.178000450134277,0,0
128.246999,0.28338623046875,-0.751953125,0.575347900390625,-0.1522216796875,-1.89208984375,1.77001953125,-5.9814453125,-0.159423828125,-0.567626953125,-0.767578125,-205.0,98.0,238.0,102190.0,-7.178000450134277,0,0
128.267997,0.283447265625,-0.75213623046875,0.575164794921875,-0.15185546875,-1.5869140625,-1.03759765625,-2.86865234375,-0.118896484375,-0.6126708984375,-0.7559814453125,-205.0,98.0,238.0,102190.0,-7.178000450134277,0,0
128.274997,0.28350830078125,-0.75213623046875,0.5751953125,-0.1517333984375,0.18310546875,-1.40380859375,2.38037109375,-0.0859375,-0.5885009765625,-0.856689453125,-205.0,98.0,238.0,102190.0,-7.178000450134277,0,0
128.281029,0.28350830078125,-0.75213623046875,0.5751953125,-0.1517333984375,0.18310546875,-1.40380859375,2.38037109375,-0.0859375,-0.5885009765625,-0.856689453125,-205.0,98.0,238.0,102190.0,-7.178000450134277,0,0
128.287994,0.2833251953125,-0.75225830078125,0.5751953125,-0.15142822265625,-1.0986328125,-2.38037109375,-0.48828125,-0.09716796875,-0.5635986328125,-0.8223876953125,-205.0,98.0,238.0,102190.0,-7.178000450134277,0,0
128.294997,0.283355712890625,-0.752105712890625,0.5753173828125,-0.151641845703125,-4.08935546875,2.38037109375,3.2958984375,-0.0848388671875,-0.6627197265625,-0.7470703125,-205.0,98.0,238.0,102190.0,-7.178000450134277,0,0
128.301997,0.28338623046875,-0.752044677734375,0.575347900390625,-0.1517333984375,-0.06103515625,3.11279296875,0.30517578125,-0.1031494140625,-0.619140625,-0.7659912109375,-205.0,98.0,238.0,102190.0,-7.178000450134277,0,0
128.308996,0.28338623046875,-0.751983642578125,0.575347900390625,-0.152069091796875,-0.8544921875,3.11279296875,-1.40380859375,-0.090087890625,-0.630859375,-0.7965087890625,-205.0,98.0,238.0,102190.0,-7.178000450134277,0,0
128.315995,0.283416748046875,-0.751922607421875,0.575408935546875,-0.152099609375,4.82177734375,0.732421875,0.54931640625,-0.0931396484375,-0.571044921875,-0.82275390625,-205.0,98.0,238.0,102190.0,-7.178000450134277,0,0
128.322995,0.283416748046875,-0.751922607421875,0.575408935546875,-0.15216064453125,-0.91552734375,1.0986328125,0.244140625,-0.0960693359375,-0.6224365234375,-0.7802734375,-205.0,99.0,240.0,102190.0,-7.177000522613525,0,0
128.329994,0.28350830078125,-0.751983642578125,0.5753173828125,-0.15203857421875,1.28173828125,0.1220703125,-1.708984375,-0.1142578125,-0.5712890625,-0.79345703125,-205.0,99.0,240.0,102190.0,-7.177000522613525,0,0
128.350993,0.283416748046875,-0.752105712890625,0.57525634765625,-0.151763916015625,-0.06103515625,-0.6103515625,0.1220703125,-0.0921630859375,-0.588134765625,-0.7845458984375,-205.0,99.0,240.0,102190.0,-7.177000522613525,0,0
128.357993,0.283416748046875,-0.752105712890625,0.57525634765625,-0.151763916015625,-0.8544921875,0.30517578125,-0.1220703125,-0.0924072265625,-0.60107421875,-0.7916259765625,-205.0,99.0,240.0,102190.0,-7.177000522613525,0,0
128.364996,0.283416748046875,-0.752105712890625,0.57525634765625,-0.15179443359375,-0.48828125,1.3427734375,-1.46484375,-0.1102294921875,-0.5938720703125,-0.773681640625,-205.0,99.0,240.0,102190.0,-7.177000522613525,0,0
128.371029,0.283416748046875,-0.752105712890625,0.57525634765625,-0.15179443359375,-0.48828125,1.3427734375,-1.46484375,-0.1102294921875,-0.5938720703125,-0.773681640625,-205.0,99.0,240.0,102190.0,-7.177000522613525,0,0
128.377993,0.28338623046875,-0.752044677734375,0.5753173828125,-0.151947021484375,-3.5400390625,1.15966796875,3.35693359375,-0.05419921875,-0.6466064453125,-0.7623291015625,-205.0,99.0,240.0,102190.0,-7.177000522613525,0,0
128.384993,0.283447265625,-0.751953125,0.575408935546875,-0.1519775390625,-9.6435546875,1.89208984375,5.31005859375,-0.1016845703125,-0.697265625,-0.767578125,-205.0,99.0,240.0,102190.0,-7.177000522613525,0,0
128.391996,0.283477783203125,-0.75189208984375,0.57550048828125,-0.151763916015625,1.89208984375,-0.1220703125,1.46484375,-0.1600341796875,-0.5419921875,-0.81103515625,-205.0,99.0,240.0,102190.0,-7.177000522613525,0,0
128.398996,0.283721923828125,-0.7518310546875,0.575439453125,-0.151885986328125,5.37109375,-1.15966796875,-0.244140625,-0.085205078125,-0.55029296875,-0.797607421875,-205.0,99.0,240.0,102190.0,-7.177000522613525,0,0
128.405995,0.28369140625,-0.751861572265625,0.575347900390625,-0.152099609375,-2.197265625,3.173828125,-3.41796875,-0.0733642578125,-0.6290283203125,-0.7236328125,-205.0,99.0,240.0,102190.0,-7.177000522613525,0,0
128.412995,0.283538818359375,-0.751953125,0.575286865234375,-0.15228271484375,-1.03759765625,2.9296875,-2.685546875,-0.0548095703125,-0.5750732421875,-0.7569580078125,-205.0,99.0,240.0,102190.0,-7.177000522613525,0,0
128.419994,0.28338623046875,-0.75201416015625,0.5753173828125,-0.152130126953125,-5.31005859375,-0.9765625,-0.8544921875,-0.1092529296875,-0.5906982421875,-0.759033203125,-205.0,101.0,242.0,102190.0,-7.179000377655029,0,0
128.426995,0.283355712890625,-0.751983642578125,0.57537841796875,-0.152130126953125,-0.48828125,1.77001953125,-3.173828125,-0.128662109375,-0.60302734375,-0.78125,-205.0,101.0,242.0,102190.0,-7.179000377655029,0,0
128.433993,0.283294677734375,-0.75201416015625,0.5753173828125,-0.15228271484375,4.8828125,0.18310546875,-1.15966796875,-0.048095703125,-0.5594482421875,-0.8162841796875,-205.0,101.0,242.0,102190.0,-7.179000377655029,0,0
128.440993,0.283294677734375,-0.751922607421875,0.575347900390625,-0.152557373046875,3.47900390625,3.96728515625,-1.28173828125,-0.102294921875,-0.612060546875,-0.7879638671875,-205.0,101.0,242.0,102190.0,-7.179000377655029,0,0
128.447993,0.28326416015625,-0.751953125,0.5753173828125,-0.152557373046875,-1.3427734375,0.79345703125,-2.0751953125,-0.1051025390625,-0.5902099609375,-0.7841796875,-205.0,101.0,242.0,102190.0,-7.179000377655029,0,0
128.454996,0.283447265625,-0.7518310546875,0.575347900390625,-0.1527099609375,-2.25830078125,3.41796875,-3.7841796875,-0.1441650390625,-0.576416015625,-0.7332763671875,-205.0,101.0,242.0,102190.0,-7.179000377655029,0,0
128.461996,0.2833251953125,-0.7518310546875,0.57537841796875,-0.152801513671875,-2.38037109375,2.01416015625,1.8310546875,-0.06298828125,-0.62646484375,-0.8013916015625,-205.0,101.0,242.0,102190.0,-7.179000377655029,0,0
128.468023,0.2833251953125,-0.7518310546875,0.57537841796875,-0.152801513671875,-2.38037109375,2.01416015625,1.8310546875,-0.06298828125,-0.62646484375,-0.8013916015625,-205.0,101.0,242.0,102190.0,-7.179000377655029,0,0
128.474993,0.28326416015625,-0.751922607421875,0.575286865234375,-0.15277099609375,0.1220703125,0.9765625,-0.9765625,-0.10107421875,-0.589599609375,-0.78662109375,-205.0,101.0,242.0,102190.0,-7.179000377655029,0,0
128.481996,0.283172607421875,-0.75201416015625,0.575286865234375,-0.152679443359375,-4.8828125,-1.708984375,-0.06103515625,-0.0811767578125,-0.62109375,-0.80419921875,-205.0,101.0,242.0,102190.0,-7.179000377655029,0,0
128.488996,0.283294677734375,-0.751983642578125,0.57525634765625,-0.152587890625,0.0,-1.5869140625,3.47900390625,-0.0894775390625,-0.6270751953125,-0.798828125,-205.0,101.0,242.0,102190.0,-7.179000377655029,0,0
128.495995,0.283233642578125,-0.75189208984375,0.575347900390625,-0.15283203125,9.21630859375,1.15966796875,2.25830078125,-0.058837890625,-0.6212158203125,-0.80419921875,-205.0,101.0,242.0,102190.0,-7.179000377655029,0,0
128.502995,0.283172607421875,-0.751983642578125,0.57525634765625,-0.152862548828125,-4.2724609375,1.28173828125,-3.96728515625,-0.101318359375,-0.6256103515625,-0.7530517578125,-205.0,101.0,242.0,102190.0,-7.179000377655029,0,0
128.523993,0.28302001953125,-0.75225830078125,0.575042724609375,-0.152557373046875,-2.44140625,-6.16455078125,2.74658203125,-0.0889892578125,-0.6085205078125,-0.7904052734375,-204.0,101.0,242.0,102190.0,-7.176000118255615,0,0
128.530993,0.2828369140625,-0.751708984375,0.575775146484375,-0.15283203125,-4.7607421875,-1.03759765625,-8.36181640625,-0.171142578125,-0.5439453125,-0.7421875,-204.0,101.0,242.0,102190.0,-7.176000118255615,0,0
128.537993,0.282958984375,-0.751556396484375,0.57586669921875,-0.15301513671875,-1.953125,2.3193359375,1.89208984375,-0.084716796875,-0.616455078125,-0.767822265625,-204.0,101.0,242.0,102190.0,-7.176000118255615,0,0
128.544997,0.2828369140625,-0.75152587890625,0.575958251953125,-0.153106689453125,0.48828125,2.99072265625,-0.1220703125,-0.104248046875,-0.55126953125,-0.758056640625,-204.0,101.0,242.0,102190.0,-7.176000118255615,0,0
128.551996,0.282867431640625,-0.751495361328125,0.57598876953125,-0.153106689453125,1.52587890625,0.9765625,0.732421875,-0.1163330078125,-0.612548828125,-0.825927734375,-204.0,101.0,242.0,102190.0,-7.176000118255615,0,0
128.558028,0.282867431640625,-0.751495361328125,0.57598876953125,-0.153106689453125,1.52587890625,0.9765625,0.732421875,-0.1163330078125,-0.612548828125,-0.825927734375,-204.0,101.0,242.0,102190.0,-7.176000118255615,0,0
128.564997,0.282928466796875,-0.751373291015625,0.576171875,-0.15277099609375,8.36181640625,0.79345703125,-4.21142578125,-0.0914306640625,-0.5914306640625,-0.8133544921875,-204.0,101.0,242.0,102190.0,-7.176000118255615,0,0
128.571997,0.282867431640625,-0.75140380859375,0.576202392578125,-0.152801513671875,0.3662109375,2.5634765625,-1.03759765625,-0.1068115234375,-0.5880126953125,-0.7974853515625,-204.0,101.0,242.0,102190.0,-7.176000118255615,0,0
128.578996,0.282989501953125,-0.751373291015625,0.5762939453125,-0.15234375,-2.99072265625,-2.13623046875,2.685546875,-0.1263427734375,-0.5841064453125,-0.7828369140625,-204.0,101.0,242.0,102190.0,-7.176000118255615,0,0
128.585995,0.283111572265625,-0.7513427734375,0.576263427734375,-0.152374267578125,5.55419921875,-1.40380859375,0.0,-0.0975341796875,-0.607666015625,-0.82861328125,-204.0,101.0,242.0,102190.0,-7.176000118255615,0,0
128.592995,0.28326416015625,-0.751251220703125,0.576263427734375,-0.152496337890625,5.7373046875,-1.77001953125,2.38037109375,-0.0721435546875,-0.5999755859375,-0.7962646484375,-204.0,101.0,242.0,102190.0,-7.176000118255615,0,0
128.613994,0.283172607421875,-0.751373291015625,0.576202392578125,-0.15228271484375,-10.55908203125,-1.89208984375,7.26318359375,-0.02978515625,-0.708740234375,-0.7684326171875,-204.0,101.0,242.0,102190.0,-7.176000118255615,0,0
128.620994,0.28314208984375,-0.751312255859375,0.57623291015625,-0.15252685546875,-1.89208984375,-0.1220703125,-4.0283203125,-0.1253662109375,-0.6053466796875,-0.7916259765625,-204.0,102.0,242.0,102190.0,-7.178000450134277,0,0
128.627997,0.283294677734375,-0.751617431640625,0.5758056640625,-0.152435302734375,4.08935546875,0.67138671875,2.99072265625,-0.0858154296875,-0.6131591796875,-0.826904296875,-204.0,102.0,242.0,102190.0,-7.178000450134277,0,0
128.634997,0.283233642578125,-0.7515869140625,0.5758056640625,-0.152618408203125,-1.03759765625,2.86865234375,-2.8076171875,-0.11669921875,-0.5660400390625,-0.745849609375,-204.0,102.0,242.0,102190.0,-7.178000450134277,0,0
128.641996,0.28326416015625,-0.7515869140625,0.5758056640625,-0.15252685546875,0.06103515625,-1.89208984375,-0.67138671875,-0.1126708984375,-0.590087890625,-0.7947998046875,-204.0,102.0,242.0,102190.0,-7.178000450134277,0,0
128.648995,0.283203125,-0.75164794921875,0.575775146484375,-0.152496337890625,-3.41796875,-0.3662109375,-1.220703125,-0.0924072265625,-0.5897216796875,-0.744873046875,-204.0,102.0,242.0,102190.0,-7.178000450134277,0,0
128.655028,0.283203125,-0.75164794921875,0.575775146484375,-0.152496337890625,-3.41796875,-0.3662109375,-1.220703125,-0.0924072265625,-0.5897216796875,-0.744873046875,-204.0,102.0,242.0,102190.0,-7.178000450134277,0,0
128.661996,0.283233642578125,-0.75164794921875,0.57574462890625,-0.152435302734375,0.732421875,0.0,1.5869140625,-0.078857421875,-0.6046142578125,-0.7799072265625,-204.0,102.0,242.0,102190.0,-7.178000450134277,0,0
128.668996,0.283233642578125,-0.751708984375,0.575714111328125,-0.1524658203125,-0.54931640625,1.52587890625,-2.5634765625,-0.1099853515625,-0.586181640625,-0.7706298828125,-204.0,102.0,242.0,102190.0,-7.178000450134277,0,0
128.675995,0.28326416015625,-0.75164794921875,0.57574462890625,-0.152496337890625,2.50244140625,-1.708984375,1.0986328125,-0.08154296875,-0.5970458984375,-0.814697265625,-204.0,102.0,242.0,102190.0,-7.178000450134277,0,0
128.682995,0.283233642578125,-0.751708984375,0.57568359375,-0.15252685546875,-3.2958984375,2.62451171875,-4.0283203125,-0.11767578125,-0.5914306640625,-0.7294921875,-204.0,102.0,242.0,102190.0,-7.178000450134277,0,0
128.689994,0.283203125,-0.751678466796875,0.57574462890625,-0.152496337890625,1.46484375,-1.15966796875,4.638671875,-0.0538330078125,-0.6455078125,-0.8336181640625,-204.0,102.0,242.0,102190.0,-7.178000450134277,0,0
128.696995,0.283203125,-0.751556396484375,0.57598876953125,-0.15216064453125,-1.708984375,0.8544921875,0.06103515625,-0.1759033203125,-0.5694580078125,-0.7882080078125,-204.0,102.0,242.0,102190.0,-7.178000450134277,0,0
128.703993,0.283172607421875,-0.75146484375,0.576171875,-0.151947021484375,-0.9765625,2.50244140625,1.28173828125,-0.1458740234375,-0.55908203125,-0.8115234375,-204.0,102.0,242.0,102190.0,-7.178000450134277,0,0
128.710993,0.28326416015625,-0.75146484375,0.5760498046875,-0.152099609375,2.44140625,0.3662109375,-3.35693359375,-0.0836181640625,-0.5919189453125,-0.7305908203125,-204.0,102.0,242.0,102190.0,-7.178000450134277,0,0
128.717993,0.283355712890625,-0.75140380859375,0.576141357421875,-0.1519775390625,4.39453125,0.3662109375,-3.96728515625,-0.13623046875,-0.5755615234375,-0.7523193359375,-204.0,102.0,242.0,102190.0,-7.178000450134277,0,0
128.724996,0.283203125,-0.75140380859375,0.576263427734375,-0.151824951171875,-3.96728515625,0.48828125,2.8076171875,-0.1025390625,-0.593017578125,-0.8221435546875,-204.0,100.0,241.0,102190.0,-7.178000450134277,0,0
128.731996,0.283233642578125,-0.7513427734375,0.576263427734375,-0.152008056640625,-2.62451171875,0.48828125,-0.9765625,-0.10302734375,-0.574951171875,-0.7799072265625,-204.0,100.0,241.0,102190.0,-7.178000450134277,0,0
128.738995,0.283233642578125,-0.751312255859375,0.57635498046875,-0.151885986328125,-2.8076171875,-1.220703125,2.01416015625,-0.1043701171875,-0.625244140625,-0.76904296875,-204.0,100.0,241.0,102190.0,-7.178000450134277,0,0
128.745028,0.283233642578125,-0.751312255859375,0.57635498046875,-0.151885986328125,-2.8076171875,-1.220703125,2.01416015625,-0.1043701171875,-0.625244140625,-0.76904296875,-204.0,100.0,241.0,102190.0,-7.178000450134277,0,0
128.751996,0.28338623046875,-0.751220703125,0.576416015625,-0.15179443359375,3.2958984375,0.06103515625,4.69970703125,-0.0789794921875,-0.6085205078125,-0.8170166015625,-204.0,100.0,241.0,102190.0,-7.178000450134277,0,0
128.758996,0.28314208984375,-0.751220703125,0.5765380859375,-0.15191650390625,-2.685546875,5.18798828125,-3.35693359375,-0.1007080078125,-0.5958251953125,-0.756591796875,-204.0,100.0,241.0,102190.0,-7.178000450134277,0,0
128.765995,0.2833251953125,-0.751190185546875,0.576446533203125,-0.151947021484375,5.55419921875,-3.173828125,-0.732421875,-0.101806640625,-0.5943603515625,-0.793701171875,-204.0,100.0,241.0,102190.0,-7.178000450134277,0,0
128.786995,0.28314208984375,-0.751495361328125,0.576171875,-0.1517333984375,-7.99560546875,-2.685546875,1.953125,-0.0826416015625,-0.605712890625,-0.73828125,-204.0,100.0,241.0,102190.0,-7.177000522613525,0,0
128.793993,0.283233642578125,-0.751312255859375,0.576263427734375,-0.152191162109375,2.38037109375,-1.708984375,5.79833984375,-0.0684814453125,-0.6302490234375,-0.79736328125,-204.0,100.0,241.0,102190.0,-7.177000522613525,0,0
128.800993,0.28326416015625,-0.751190185546875,0.576416015625,-0.152191162109375,1.8310546875,-0.1220703125,7.38525390625,-0.06982421875,-0.60546875,-0.814208984375,-204.0,100.0,241.0,102190.0,-7.177000522613525,0,0
128.807993,0.283233642578125,-0.751251220703125,0.576385498046875,-0.1519775390625,-5.0048828125,-0.06103515625,-3.662109375,-0.160888671875,-0.5589599609375,-0.740966796875,-204.0,100.0,241.0,102190.0,-7.177000522613525,0,0
128.814996,0.283294677734375,-0.751251220703125,0.576416015625,-0.15185546875,-1.15966796875,-2.62451171875,2.197265625,-0.0689697265625,-0.615966796875,-0.830810546875,-204.0,100.0,241.0,102190.0,-7.177000522613525,0,0
128.821996,0.283203125,-0.751312255859375,0.576385498046875,-0.15185546875,-0.8544921875,-0.67138671875,-1.28173828125,-0.1005859375,-0.590576171875,-0.7764892578125,-205.0,101.0,241.0,102190.0,-7.177000522613525,0,0
128.828995,0.28326416015625,-0.751190185546875,0.576446533203125,-0.152099609375,5.615234375,0.91552734375,0.6103515625,-0.0634765625,-0.6175537109375,-0.814453125,-205.0,101.0,241.0,102190.0,-7.177000522613525,0,0
128.835995,0.283355712890625,-0.751129150390625,0.5765380859375,-0.15185546875,-1.52587890625,-1.52587890625,0.79345703125,-0.0982666015625,-0.6085205078125,-0.8109130859375,-205.0,101.0,241.0,102190.0,-7.177000522613525,0,0
128.842027,0.283355712890625,-0.751129150390625,0.5765380859375,-0.15185546875,-1.52587890625,-1.52587890625,0.79345703125,-0.0982666015625,-0.6085205078125,-0.8109130859375,-205.0,101.0,241.0,102190.0,-7.177000522613525,0,0
128.848996,0.283447265625,-0.751220703125,0.57635498046875,-0.15191650390625,1.77001953125,-0.79345703125,3.2958984375,-0.0426025390625,-0.603515625,-0.862060546875,-205.0,101.0,241.0,102190.0,-7.177000522613525,0,0
128.855995,0.28326416015625,-0.751373291015625,0.576385498046875,-0.15142822265625,-4.5166015625,-6.16455078125,3.60107421875,-0.0975341796875,-0.60009765625,-0.8153076171875,-205.0,101.0,241.0,102190.0,-7.177000522613525,0,0
128.876999,0.283416748046875,-0.751251220703125,0.576568603515625,-0.151092529296875,-1.0986328125,5.0048828125,-2.685546875,-0.10498046875,-0.5926513671875,-0.7601318359375,-205.0,101.0,241.0,102190.0,-7.179000377655029,0,0
128.883994,0.283355712890625,-0.75115966796875,0.576690673828125,-0.151123046875,3.84521484375,1.15966796875,3.0517578125,-0.0433349609375,-0.602783203125,-0.8182373046875,-205.0,101.0,241.0,102190.0,-7.179000377655029,0,0
128.890994,0.283294677734375,-0.751129150390625,0.57684326171875,-0.150787353515625,-8.6669921875,-0.48828125,3.7841796875,-0.1597900390625,-0.6060791015625,-0.786376953125,-205.0,101.0,241.0,102190.0,-7.179000377655029,0,0
128.897997,0.28338623046875,-0.751068115234375,0.576934814453125,-0.150543212890625,-0.79345703125,0.91552734375,-1.77001953125,-0.136474609375,-0.59033203125,-0.7862548828125,-205.0,101.0,241.0,102190.0,-7.179000377655029,0,0
128.904997,0.283447265625,-0.750946044921875,0.577056884765625,-0.1505126953125,2.99072265625,1.03759765625,1.77001953125,-0.107421875,-0.602294921875,-0.8271484375,-205.0,101.0,241.0,102190.0,-7.179000377655029,0,0
