Time stamp(sec),adc1,adc2,roll_angular_rate,pitch_angular_rate,yaw_angular_rate,acc_X,acc_Y,acc_Z,mag_X,mag_Y,mag_Z,pressure,altitude
0.0420973000000231,0.3817138671875,-0.4564208984375,0.300994873046875,-0.74517822265625,0.1220703125,0.732421875,1.953125,0.466552734375,-0.8160400390625,0.4022216796875,-297.0,152.0,-143.0,101712.0,-3.2240002155303955,0,0
0.0421621999994386,0.38177490234375,-0.4564208984375,0.301055908203125,-0.745147705078125,-0.1220703125,0.732421875,2.50244140625,0.46826171875,-0.82373046875,0.406005859375,-297.0,152.0,-143.0,101712.0,-3.2240002155303955,0,0
0.04222309999749996,0.3818359375,-0.45635986328125,0.301116943359375,-0.7451171875,0.06103515625,0.8544921875,2.3193359375,0.4578857421875,-0.82373046875,0.4095458984375,-297.0,152.0,-143.0,101712.0,-3.2240002155303955,0,0
0.042276799998944625,0.381866455078125,-0.456329345703125,0.3011474609375,-0.7451171875,0.48828125,0.244140625,0.8544921875,0.4400634765625,-0.814453125,0.4130859375,-297.0,152.0,-143.0,101712.0,-3.2240002155303955,0,0
0.04232980000961106,0.38189697265625,-0.456268310546875,0.30108642578125,-0.745147705078125,1.28173828125,-1.40380859375,-2.44140625,0.4351806640625,-0.7994384765625,0.41748046875,-297.0,152.0,-143.0,101712.0,-3.2240002155303955,0,0
0.042384800006402656,0.38189697265625,-0.456268310546875,0.30108642578125,-0.745147705078125,1.28173828125,-1.40380859375,-2.44140625,0.4351806640625,-0.7994384765625,0.41748046875,-297.0,152.0,-143.0,101712.0,-3.2240002155303955,0,0
0.04243780000251718,0.3819580078125,-0.456451416015625,0.300750732421875,-0.745147705078125,-0.244140625,-2.197265625,-4.57763671875,0.44140625,-0.7789306640625,0.40771484375,-297.0,153.0,-144.0,101712.0,-3.2240002155303955,0,0
0.042521199997281656,0.381866455078125,-0.456573486328125,0.3006591796875,-0.74517822265625,-0.48828125,-1.5869140625,-3.84521484375,0.4556884765625,-0.7840576171875,0.39501953125,-297.0,153.0,-144.0,101712.0,-3.2240002155303955,0,0
0.04263120000541676,0.381744384765625,-0.456695556640625,0.300628662109375,-0.74517822265625,-0.54931640625,-0.30517578125,-0.06103515625,0.462158203125,-0.7899169921875,0.3897705078125,-297.0,153.0,-144.0,101712.0,-3.2240002155303955,0,0
0.04268949999823235,0.381744384765625,-0.45672607421875,0.30059814453125,-0.745147705078125,-0.54931640625,-0.30517578125,-0.06103515625,0.462158203125,-0.7899169921875,0.3897705078125,-297.0,153.0,-144.0,101712.0,-3.2240002155303955,0,0
0.04274200000509154,0.381744384765625,-0.456756591796875,0.300628662109375,-0.745147705078125,0.18310546875,0.42724609375,1.220703125,0.458984375,-0.791748046875,0.383544921875,-297.0,153.0,-144.0,101712.0,-3.2240002155303955,0,0
0.04279870000027586,0.38177490234375,-0.45672607421875,0.300628662109375,-0.7451171875,1.52587890625,0.48828125,1.28173828125,0.4527587890625,-0.79052734375,0.3885498046875,-297.0,153.0,-144.0,101712.0,-3.2240002155303955,0,0
0.04285080000408925,0.381866455078125,-0.45660400390625,0.300628662109375,-0.745147705078125,0.3662109375,0.67138671875,1.5869140625,0.4510498046875,-0.7945556640625,0.4149169921875,-297.0,153.0,-144.0,101712.0,-3.2240002155303955,0,0
0.10890669999935199,0.381988525390625,-0.456451416015625,0.300750732421875,-0.745147705078125,-1.3427734375,0.18310546875,1.0986328125,0.4429931640625,-0.792724609375,0.4119873046875,-297.0,153.0,-144.0,101712.0,-3.2210001945495605,0,0
0.10897070000646636,0.381988525390625,-0.456451416015625,0.300811767578125,-0.7451171875,-0.54931640625,-0.1220703125,-0.18310546875,0.4464111328125,-0.8013916015625,0.401123046875,-297.0,153.0,-144.0,101712.0,-3.2210001945495605,0,0
0.10902940000232775,0.381988525390625,-0.456451416015625,0.30084228515625,-0.745086669921875,-0.30517578125,-0.3662109375,-0.54931640625,0.4468994140625,-0.8037109375,0.3944091796875,-297.0,153.0,-144.0,101712.0,-3.2210001945495605,0,0
0.10908540000673383,0.3819580078125,-0.456512451171875,0.30084228515625,-0.745086669921875,0.3662109375,-0.6103515625,-1.40380859375,0.4473876953125,-0.80126953125,0.390380859375,-297.0,153.0,-144.0,101712.0,-3.2210001945495605,0,0
0.10914010000124108,0.3819580078125,-0.456512451171875,0.30078125,-0.7451171875,1.46484375,-0.42724609375,-1.220703125,0.4566650390625,-0.8021240234375,0.3936767578125,-297.0,153.0,-144.0,101712.0,-3.2210001945495605,0,0
0.10929400000895839,0.381927490234375,-0.45654296875,0.30072021484375,-0.7451171875,0.79345703125,-0.1220703125,-0.6103515625,0.4561767578125,-0.8011474609375,0.4080810546875,-297.0,153.0,-144.0,101712.0,-3.2210001945495605,0,0
0.10934999999881256,0.3819580078125,-0.456512451171875,0.30072021484375,-0.745147705078125,0.06103515625,-0.48828125,-0.8544921875,0.4459228515625,-0.7919921875,0.409423828125,-297.0,153.0,-144.0,101712.0,-3.2210001945495605,0,0
0.10940400000254158,0.3819580078125,-0.456512451171875,0.300689697265625,-0.745147705078125,-0.244140625,-0.54931640625,-0.79345703125,0.4490966796875,-0.7923583984375,0.4072265625,-297.0,153.0,-144.0,101712.0,-3.2210001945495605,0,0
0.10945889999857172,0.3819580078125,-0.456512451171875,0.300689697265625,-0.745147705078125,0.3662109375,-0.42724609375,-0.732421875,0.4520263671875,-0.7955322265625,0.4049072265625,-297.0,153.0,-144.0,101712.0,-3.2210001945495605,0,0
0.10951210001076106,0.3819580078125,-0.456512451171875,0.300689697265625,-0.745147705078125,0.3662109375,-0.42724609375,-0.732421875,0.4520263671875,-0.7955322265625,0.4049072265625,-297.0,153.0,-144.0,101712.0,-3.2210001945495605,0,0
0.1095670000067912,0.3819580078125,-0.45648193359375,0.300689697265625,-0.745147705078125,-0.9765625,-0.244140625,0.244140625,0.452880859375,-0.7938232421875,0.408203125,-298.0,153.0,-144.0,101712.0,-3.2210001945495605,0,0
0.16824410000117496,0.382171630859375,-0.45654296875,0.300689697265625,-0.745025634765625,0.1220703125,0.42724609375,1.0986328125,0.45654296875,-0.8004150390625,0.402587890625,-298.0,153.0,-144.0,101712.0,-3.2210001945495605,0,0
0.16830859999754466,0.3822021484375,-0.45654296875,0.300689697265625,-0.745025634765625,-0.06103515625,0.30517578125,0.54931640625,0.4442138671875,-0.798095703125,0.398193359375,-298.0,153.0,-144.0,101712.0,-3.2210001945495605,0,0
0.16845670000475366,0.3822021484375,-0.456512451171875,0.300689697265625,-0.745025634765625,0.67138671875,-0.1220703125,0.06103515625,0.4442138671875,-0.7978515625,0.4007568359375,-298.0,153.0,-144.0,101712.0,-3.2210001945495605,0,0
0.16853070000070147,0.382171630859375,-0.456512451171875,0.3006591796875,-0.745025634765625,0.9765625,-0.244140625,-0.67138671875,0.443603515625,-0.7928466796875,0.40478515625,-298.0,153.0,-144.0,101712.0,-3.2210001945495605,0,0
0.16859430000477005,0.38214111328125,-0.45654296875,0.30059814453125,-0.74505615234375,0.30517578125,-0.8544921875,-1.15966796875,0.4481201171875,-0.7928466796875,0.4100341796875,-298.0,153.0,-144.0,101712.0,-3.2210001945495605,0,0
0.16876060000504367,0.38214111328125,-0.45654296875,0.30059814453125,-0.74505615234375,0.30517578125,-0.8544921875,-1.15966796875,0.4481201171875,-0.7928466796875,0.4100341796875,-298.0,153.0,-144.0,101712.0,-3.2210001945495605,0,0
0.16883740000776015,0.38214111328125,-0.456573486328125,0.30059814453125,-0.74505615234375,0.1220703125,-0.244140625,-0.6103515625,0.44970703125,-0.7979736328125,0.4019775390625,-298.0,153.0,-144.0,101712.0,-3.2210001945495605,0,0
0.16889369999989867,0.38214111328125,-0.456573486328125,0.30059814453125,-0.74505615234375,-0.1220703125,-0.244140625,-0.30517578125,0.45166015625,-0.79833984375,0.4002685546875,-298.0,153.0,-144.0,101712.0,-3.2210001945495605,0,0
0.16895279999880586,0.38214111328125,-0.456573486328125,0.30059814453125,-0.74505615234375,0.0,-0.06103515625,0.1220703125,0.453857421875,-0.79541015625,0.3994140625,-298.0,153.0,-144.0,101712.0,-3.2210001945495605,0,0
0.16903109999839216,0.382110595703125,-0.456573486328125,0.30059814453125,-0.74505615234375,0.48828125,0.1220703125,0.0,0.450927734375,-0.7918701171875,0.3985595703125,-298.0,153.0,-144.0,101712.0,-3.2210001945495605,0,0
0.16916270001092926,0.382110595703125,-0.456573486328125,0.300567626953125,-0.74505615234375,0.244140625,0.0,0.244140625,0.4521484375,-0.7943115234375,0.4029541015625,-298.0,153.0,-144.0,101712.0,-3.2210001945495605,0,0
0.23096719999739435,0.382110595703125,-0.456573486328125,0.300567626953125,-0.74505615234375,-0.18310546875,0.18310546875,0.42724609375,0.4515380859375,-0.791748046875,0.405029296875,-298.0,153.0,-144.0,101712.0,-3.2210001945495605,0,0
0.23103429999900982,0.382110595703125,-0.456573486328125,0.300567626953125,-0.74505615234375,-0.42724609375,0.0,0.732421875,0.451904296875,-0.7950439453125,0.403076171875,-298.0,153.0,-144.0,101712.0,-3.2210001945495605,0,0
0.23109450000629295,0.382110595703125,-0.456573486328125,0.300567626953125,-0.74505615234375,-0.06103515625,0.18310546875,0.6103515625,0.4500732421875,-0.79833984375,0.4034423828125,-298.0,153.0,-144.0,101712.0,-3.2210001945495605,0,0
0.2311515000037616,0.382110595703125,-0.456573486328125,0.30059814453125,-0.74505615234375,0.06103515625,0.54931640625,0.79345703125,0.449462890625,-0.8006591796875,0.402587890625,-298.0,153.0,-144.0,101712.0,-3.2210001945495605,0,0
0.2312075000081677,0.382110595703125,-0.456573486328125,0.30059814453125,-0.74505615234375,0.06103515625,0.54931640625,0.79345703125,0.449462890625,-0.8006591796875,0.402587890625,-298.0,153.0,-144.0,101712.0,-3.2210001945495605,0,0
0.23126440000487491,0.382110595703125,-0.456573486328125,0.30059814453125,-0.74505615234375,0.06103515625,-0.06103515625,-0.06103515625,0.449462890625,-0.798828125,0.4017333984375,-298.0,153.0,-144.0,101712.0,-3.2210001945495605,0,0
0.2313202000077581,0.38214111328125,-0.456573486328125,0.30059814453125,-0.74505615234375,0.244140625,-0.244140625,-0.9765625,0.4466552734375,-0.795654296875,0.401123046875,-298.0,153.0,-144.0,101712.0,-3.2230000495910645,0,0
0.23139260000607464,0.382110595703125,-0.456573486328125,0.30059814453125,-0.74505615234375,0.06103515625,-0.3662109375,-1.28173828125,0.4473876953125,-0.7947998046875,0.401611328125,-298.0,154.0,-145.0,101712.0,-3.2230000495910645,0,0
0.23144870001124218,0.3822021484375,-0.456634521484375,0.30047607421875,-0.745025634765625,-0.1220703125,-0.67138671875,-1.0986328125,0.4483642578125,-0.7940673828125,0.403564453125,-298.0,154.0,-145.0,101712.0,-3.2230000495910645,0,0
0.2315041999972891,0.3822021484375,-0.456634521484375,0.30047607421875,-0.745025634765625,0.67138671875,-0.67138671875,-0.67138671875,0.4521484375,-0.793701171875,0.4034423828125,-298.0,154.0,-145.0,101712.0,-3.2230000495910645,0,0
0.23155900000710972,0.3822021484375,-0.456634521484375,0.30047607421875,-0.745025634765625,0.18310546875,-0.18310546875,0.0,0.453857421875,-0.797119140625,0.40478515625,-298.0,154.0,-145.0,101712.0,-3.2230000495910645,0,0
0.2316253000026336,0.3822021484375,-0.456634521484375,0.30047607421875,-0.745025634765625,0.244140625,0.06103515625,0.54931640625,0.45458984375,-0.7994384765625,0.404541015625,-298.0,154.0,-145.0,101712.0,-3.2230000495910645,0,0
0.23168019999866374,0.3822021484375,-0.456634521484375,0.300445556640625,-0.745025634765625,0.06103515625,0.0,0.42724609375,0.45458984375,-0.7960205078125,0.40380859375,-298.0,154.0,-145.0,101712.0,-3.2230000495910645,0,0
0.29759080000803806,0.3822021484375,-0.456634521484375,0.30047607421875,-0.745025634765625,-0.18310546875,0.1220703125,0.18310546875,0.446533203125,-0.7958984375,0.400390625,-298.0,154.0,-145.0,101712.0,-3.2230000495910645,0,0
0.29765940000652336,0.3822021484375,-0.456634521484375,0.30047607421875,-0.745025634765625,0.244140625,0.1220703125,0.06103515625,0.4461669921875,-0.7918701171875,0.4005126953125,-298.0,154.0,-145.0,101712.0,-3.2230000495910645,0,0
0.29772080000839196,0.3822021484375,-0.456634521484375,0.30047607421875,-0.745025634765625,0.244140625,0.18310546875,0.244140625,0.4493408203125,-0.794189453125,0.4019775390625,-298.0,154.0,-145.0,101712.0,-3.2230000495910645,0,0
0.2977794000034919,0.3822021484375,-0.456634521484375,0.30047607421875,-0.745025634765625,0.18310546875,-0.18310546875,-0.244140625,0.451171875,-0.798095703125,0.402587890625,-298.0,154.0,-145.0,101712.0,-3.2230000495910645,0,0
0.29783760001009796,0.3822021484375,-0.456634521484375,0.30047607421875,-0.745025634765625,0.0,-0.3662109375,-0.3662109375,0.447509765625,-0.797119140625,0.4017333984375,-298.0,154.0,-145.0,101712.0,-3.2230000495910645,0,0
0.29794889999902807,0.3822021484375,-0.456634521484375,0.30047607421875,-0.745025634765625,0.06103515625,-0.18310546875,-0.30517578125,0.450439453125,-0.7965087890625,0.40087890625,-298.0,154.0,-145.0,101712.0,-3.2230000495910645,0,0
0.298007300007157,0.3822021484375,-0.456634521484375,0.30047607421875,-0.745025634765625,0.30517578125,-0.18310546875,-0.18310546875,0.453857421875,-0.79833984375,0.402099609375,-298.0,154.0,-145.0,101712.0,-3.2230000495910645,0,0
0.2980658000014955,0.3822021484375,-0.456634521484375,0.30047607421875,-0.745025634765625,-0.244140625,-0.30517578125,-0.42724609375,0.4512939453125,-0.7977294921875,0.4044189453125,-298.0,154.0,-145.0,101712.0,-3.2230000495910645,0,0
0.2981242000096245,0.3822021484375,-0.456634521484375,0.30047607421875,-0.745025634765625,-0.244140625,-0.30517578125,-0.42724609375,0.4512939453125,-0.7977294921875,0.4044189453125,-298.0,154.0,-145.0,101712.0,-3.2230000495910645,0,0
0.29818140000861604,0.3822021484375,-0.456634521484375,0.30047607421875,-0.745025634765625,0.18310546875,-0.1220703125,-0.42724609375,0.4508056640625,-0.79541015625,0.40185546875,-298.0,154.0,-145.0,101712.0,-3.2230000495910645,0,0
0.2982398000021931,0.3822021484375,-0.456634521484375,0.30047607421875,-0.745025634765625,-0.06103515625,-0.30517578125,-0.1220703125,0.4493408203125,-0.7957763671875,0.40234375,-298.0,154.0,-145.0,101712.0,-3.2230000495910645,0,0
0.35849250000319444,0.3822021484375,-0.45660400390625,0.30047607421875,-0.745025634765625,-0.1220703125,0.1220703125,0.244140625,0.4521484375,-0.798583984375,0.4039306640625,-297.0,153.0,-146.0,101712.0,-3.2210001945495605,0,0
0.3585650000022724,0.382232666015625,-0.45660400390625,0.30047607421875,-0.745025634765625,0.3662109375,-0.1220703125,0.18310546875,0.4520263671875,-0.7998046875,0.4031982421875,-297.0,153.0,-146.0,101712.0,-3.2210001945495605,0,0
0.35862310000811704,0.382232666015625,-0.45660400390625,0.30047607421875,-0.745025634765625,0.1220703125,0.18310546875,0.244140625,0.4510498046875,-0.798095703125,0.40380859375,-297.0,153.0,-146.0,101712.0,-3.2210001945495605,0,0
0.3586783000064315,0.382232666015625,-0.45660400390625,0.30047607421875,-0.745025634765625,-0.18310546875,-0.30517578125,0.1220703125,0.4490966796875,-0.796630859375,0.4017333984375,-297.0,153.0,-146.0,101712.0,-3.2210001945495605,0,0
0.358732599997893,0.382232666015625,-0.45660400390625,0.30047607421875,-0.745025634765625,-0.18310546875,-0.30517578125,0.1220703125,0.4490966796875,-0.796630859375,0.4017333984375,-297.0,153.0,-146.0,101712.0,-3.2210001945495605,0,0
0.35880380000162404,0.382232666015625,-0.456573486328125,0.30047607421875,-0.74505615234375,0.06103515625,-0.1220703125,-0.244140625,0.4481201171875,-0.7957763671875,0.4058837890625,-297.0,153.0,-146.0,101712.0,-3.2210001945495605,0,0
0.3588583000091603,0.382232666015625,-0.456573486328125,0.300445556640625,-0.74505615234375,-0.1220703125,-0.18310546875,-0.18310546875,0.45068359375,-0.794677734375,0.4039306640625,-297.0,153.0,-146.0,101712.0,-3.2210001945495605,0,0
0.3589139000105206,0.382232666015625,-0.456573486328125,0.30047607421875,-0.74505615234375,-0.06103515625,-0.30517578125,0.06103515625,0.44921875,-0.7955322265625,0.402587890625,-297.0,153.0,-146.0,101712.0,-3.2210001945495605,0,0
0.35896800000045914,0.382232666015625,-0.456573486328125,0.30047607421875,-0.74505615234375,-0.18310546875,-0.18310546875,-0.244140625,0.449462890625,-0.7972412109375,0.39990234375,-297.0,153.0,-146.0,101712.0,-3.2210001945495605,0,0
0.35902119999809656,0.382232666015625,-0.456573486328125,0.30047607421875,-0.74505615234375,0.18310546875,-0.3662109375,-0.3662109375,0.448486328125,-0.79541015625,0.4002685546875,-297.0,153.0,-146.0,101712.0,-3.2210001945495605,0,0
0.359074200008763,0.382232666015625,-0.456573486328125,0.30047607421875,-0.74505615234375,-0.06103515625,-0.18310546875,-0.18310546875,0.44873046875,-0.796142578125,0.40234375,-297.0,153.0,-146.0,101712.0,-3.2210001945495605,0,0
0.42669300000125077,0.382232666015625,-0.456573486328125,0.30047607421875,-0.74505615234375,0.0,-0.18310546875,-0.06103515625,0.4495849609375,-0.7969970703125,0.4033203125,-297.0,153.0,-146.0,101712.0,-3.2210001945495605,0,0
0.42675870000675786,0.382232666015625,-0.456573486328125,0.30047607421875,-0.74505615234375,0.1220703125,-0.18310546875,-0.1220703125,0.447998046875,-0.795166015625,0.4031982421875,-297.0,153.0,-146.0,101712.0,-3.2210001945495605,0,0
0.42681660001107957,0.382232666015625,-0.456573486328125,0.300445556640625,-0.74505615234375,-0.1220703125,0.0,0.1220703125,0.450927734375,-0.794677734375,0.403076171875,-297.0,153.0,-146.0,101712.0,-3.2210001945495605,0,0
0.42687409999780357,0.382232666015625,-0.456573486328125,0.300445556640625,-0.74505615234375,-0.1220703125,0.0,0.1220703125,0.450927734375,-0.794677734375,0.403076171875,-297.0,153.0,-146.0,101712.0,-3.2210001945495605,0,0
0.4269321000028867,0.382232666015625,-0.456573486328125,0.300445556640625,-0.74505615234375,0.1220703125,-0.06103515625,0.0,0.4525146484375,-0.7957763671875,0.401123046875,-297.0,153.0,-146.0,101712.0,-3.2210001945495605,0,0
0.42698740000196267,0.382232666015625,-0.456573486328125,0.300445556640625,-0.74505615234375,-0.1220703125,0.18310546875,0.244140625,0.45166015625,-0.7967529296875,0.4049072265625,-297.0,153.0,-146.0,101712.0,-3.2210001945495605,0,0
0.4270414000056917,0.382232666015625,-0.456573486328125,0.300445556640625,-0.74505615234375,0.06103515625,-0.244140625,0.1220703125,0.450927734375,-0.7991943359375,0.4036865234375,-297.0,153.0,-146.0,101712.0,-3.2210001945495605,0,0
0.4288727000093786,0.382232666015625,-0.456573486328125,0.300445556640625,-0.74505615234375,0.1220703125,-0.1220703125,0.0,0.4498291015625,-0.798583984375,0.402099609375,-297.0,153.0,-146.0,101712.0,-3.2210001945495605,0,0
0.4289322999975411,0.382232666015625,-0.456573486328125,0.300445556640625,-0.74505615234375,-0.1220703125,-0.06103515625,0.0,0.4488525390625,-0.7989501953125,0.405029296875,-297.0,153.0,-146.0,101712.0,-3.2230000495910645,0,0
0.42898840000270866,0.38226318359375,-0.45654296875,0.300445556640625,-0.74505615234375,0.1220703125,-0.1220703125,0.06103515625,0.449462890625,-0.7974853515625,0.4044189453125,-297.0,152.0,-146.0,101712.0,-3.2230000495910645,0,0
0.42904480001016054,0.38226318359375,-0.45654296875,0.300445556640625,-0.74505615234375,0.0,0.06103515625,-0.1220703125,0.4483642578125,-0.795654296875,0.4036865234375,-297.0,152.0,-146.0,101712.0,-3.2230000495910645,0,0
0.42910049999773037,0.38226318359375,-0.45654296875,0.300445556640625,-0.74505615234375,-0.18310546875,-0.18310546875,-0.1220703125,0.449462890625,-0.79541015625,0.4053955078125,-297.0,152.0,-146.0,101712.0,-3.2230000495910645,0,0
0.4291527000023052,0.38226318359375,-0.45654296875,0.300445556640625,-0.74505615234375,-0.18310546875,-0.18310546875,-0.1220703125,0.449462890625,-0.79541015625,0.4053955078125,-297.0,152.0,-146.0,101712.0,-3.2230000495910645,0,0
0.48942640000313986,0.38226318359375,-0.456512451171875,0.300445556640625,-0.745086669921875,0.1220703125,-0.06103515625,0.06103515625,0.450927734375,-0.798828125,0.4034423828125,-297.0,152.0,-146.0,101712.0,-3.2230000495910645,0,0
0.48948720000043977,0.38226318359375,-0.456512451171875,0.300445556640625,-0.745086669921875,-0.06103515625,0.18310546875,0.0,0.4503173828125,-0.796630859375,0.404541015625,-297.0,152.0,-146.0,101712.0,-3.2230000495910645,0,0
0.48954300000332296,0.38226318359375,-0.456512451171875,0.300445556640625,-0.745086669921875,-0.06103515625,-0.18310546875,-0.244140625,0.4508056640625,-0.796630859375,0.4024658203125,-297.0,152.0,-146.0,101712.0,-3.2230000495910645,0,0
0.4895959999994375,0.38226318359375,-0.456512451171875,0.300445556640625,-0.745086669921875,0.06103515625,-0.54931640625,0.06103515625,0.4486083984375,-0.795654296875,0.40283203125,-297.0,152.0,-146.0,101712.0,-3.2230000495910645,0,0
0.48964850000629667,0.38226318359375,-0.456512451171875,0.300445556640625,-0.745086669921875,0.18310546875,-0.18310546875,-0.18310546875,0.4483642578125,-0.79736328125,0.4027099609375,-297.0,152.0,-146.0,101712.0,-3.2230000495910645,0,0
0.4911137000017334,0.38226318359375,-0.456512451171875,0.300445556640625,-0.745086669921875,-0.06103515625,-0.1220703125,-0.06103515625,0.4512939453125,-0.796630859375,0.4013671875,-297.0,152.0,-146.0,101712.0,-3.2230000495910645,0,0
0.49119539999810513,0.38226318359375,-0.456512451171875,0.300445556640625,-0.745086669921875,0.30517578125,-0.244140625,-0.244140625,0.448486328125,-0.796630859375,0.4031982421875,-297.0,152.0,-146.0,101712.0,-3.2230000495910645,0,0
0.49125560000538826,0.38226318359375,-0.456512451171875,0.300445556640625,-0.745086669921875,0.30517578125,-0.244140625,-0.244140625,0.448486328125,-0.796630859375,0.4031982421875,-297.0,152.0,-146.0,101712.0,-3.2230000495910645,0,0
0.4913117000105558,0.38226318359375,-0.456512451171875,0.300445556640625,-0.745086669921875,-0.06103515625,-0.3662109375,-0.06103515625,0.45166015625,-0.7960205078125,0.4027099609375,-297.0,152.0,-146.0,101712.0,-3.2230000495910645,0,0
0.49136549999821,0.38226318359375,-0.456512451171875,0.300445556640625,-0.745086669921875,0.18310546875,-0.244140625,0.1220703125,0.45166015625,-0.7960205078125,0.403076171875,-297.0,152.0,-146.0,101712.0,-3.2230000495910645,0,0
0.49141919999965467,0.38226318359375,-0.456512451171875,0.3004150390625,-0.745086669921875,-0.1220703125,-0.06103515625,-0.1220703125,0.4481201171875,-0.7957763671875,0.40380859375,-297.0,152.0,-146.0,101712.0,-3.2230000495910645,0,0
0.5519414000009419,0.38226318359375,-0.456512451171875,0.3004150390625,-0.745086669921875,-0.42724609375,-0.18310546875,0.06103515625,0.450927734375,-0.7960205078125,0.4031982421875,-297.0,152.0,-146.0,101712.0,-3.2230000495910645,0,0
0.5520023999997647,0.38226318359375,-0.456512451171875,0.3004150390625,-0.745086669921875,-0.42724609375,-0.18310546875,0.06103515625,0.450927734375,-0.7960205078125,0.4031982421875,-297.0,152.0,-146.0,101713.0,-3.2250001430511475,0,0
0.5520568000065396,0.38226318359375,-0.456512451171875,0.3004150390625,-0.745086669921875,0.244140625,0.06103515625,0.06103515625,0.4498291015625,-0.795654296875,0.4031982421875,-297.0,152.0,-146.0,101713.0,-3.2250001430511475,0,0
0.5521103000064613,0.38226318359375,-0.456512451171875,0.3004150390625,-0.745086669921875,0.244140625,0.06103515625,0.06103515625,0.4498291015625,-0.795654296875,0.4031982421875,-297.0,152.0,-146.0,101713.0,-3.2250001430511475,0,0
0.5521645999979228,0.38226318359375,-0.456512451171875,0.3004150390625,-0.745086669921875,-0.06103515625,-0.30517578125,0.06103515625,0.4508056640625,-0.796875,0.4012451171875,-297.0,152.0,-146.0,101713.0,-3.2250001430511475,0,0
0.5526007000007667,0.38226318359375,-0.45648193359375,0.3004150390625,-0.745086669921875,0.1220703125,-0.06103515625,-0.06103515625,0.451171875,-0.7967529296875,0.4033203125,-297.0,152.0,-146.0,101713.0,-3.2250001430511475,0,0
0.552653000006103,0.38226318359375,-0.45648193359375,0.3004150390625,-0.7451171875,0.06103515625,-0.18310546875,-0.18310546875,0.449462890625,-0.796142578125,0.40576171875,-297.0,152.0,-146.0,101713.0,-3.2250001430511475,0,0
0.5527395000099204,0.382293701171875,-0.45648193359375,0.3004150390625,-0.7451171875,0.244140625,-0.06103515625,-0.30517578125,0.451416015625,-0.797607421875,0.405517578125,-297.0,152.0,-146.0,101713.0,-3.2250001430511475,0,0
0.5527914999984205,0.382293701171875,-0.45648193359375,0.3004150390625,-0.7451171875,0.30517578125,-0.3662109375,-0.18310546875,0.4493408203125,-0.7945556640625,0.4051513671875,-297.0,152.0,-146.0,101713.0,-3.2250001430511475,0,0
0.5528438000037568,0.382293701171875,-0.456451416015625,0.3004150390625,-0.7451171875,0.1220703125,0.18310546875,0.3662109375,0.4508056640625,-0.79638671875,0.4036865234375,-297.0,152.0,-146.0,101713.0,-3.2250001430511475,0,0
0.5528950000007171,0.382293701171875,-0.456451416015625,0.3004150390625,-0.7451171875,0.18310546875,0.1220703125,0.30517578125,0.4500732421875,-0.797607421875,0.4061279296875,-297.0,152.0,-146.0,101713.0,-3.2250001430511475,0,0
0.6127298000064911,0.382293701171875,-0.456451416015625,0.3004150390625,-0.7451171875,-0.244140625,-0.244140625,0.18310546875,0.450927734375,-0.796630859375,0.4053955078125,-297.0,152.0,-146.0,101713.0,-3.2250001430511475,0,0
0.6128037000016775,0.382293701171875,-0.456451416015625,0.3004150390625,-0.7451171875,0.0,0.06103515625,0.06103515625,0.4525146484375,-0.7974853515625,0.40380859375,-297.0,152.0,-146.0,101713.0,-3.2250001430511475,0,0
0.6128661000111606,0.382293701171875,-0.456451416015625,0.3004150390625,-0.7451171875,0.0,0.06103515625,0.06103515625,0.4525146484375,-0.7974853515625,0.40380859375,-297.0,152.0,-146.0,101713.0,-3.2250001430511475,0,0
0.6129262000031304,0.382293701171875,-0.456451416015625,0.300384521484375,-0.7451171875,-0.244140625,-0.244140625,-0.244140625,0.4512939453125,-0.7952880859375,0.4013671875,-297.0,152.0,-146.0,101713.0,-3.2250001430511475,0,0
0.6130532000097446,0.382293701171875,-0.456451416015625,0.3004150390625,-0.7451171875,0.1220703125,-0.244140625,-0.1220703125,0.4476318359375,-0.794921875,0.402099609375,-297.0,152.0,-146.0,101713.0,-3.2250001430511475,0,0
0.6133755000046222,0.382293701171875,-0.456451416015625,0.300384521484375,-0.7451171875,0.06103515625,-0.42724609375,-0.48828125,0.45068359375,-0.7933349609375,0.4010009765625,-297.0,152.0,-146.0,101713.0,-3.2250001430511475,0,0
0.6135331999976188,0.382293701171875,-0.456451416015625,0.300384521484375,-0.7451171875,0.1220703125,-0.18310546875,-0.30517578125,0.45166015625,-0.794677734375,0.4033203125,-297.0,152.0,-146.0,101713.0,-3.2250001430511475,0,0
0.614898700005142,0.38226318359375,-0.456451416015625,0.300384521484375,-0.7451171875,-0.1220703125,0.0,0.0,0.45166015625,-0.7950439453125,0.402587890625,-297.0,152.0,-146.0,101713.0,-3.2250001430511475,0,0
0.6149665999982972,0.38226318359375,-0.456451416015625,0.300384521484375,-0.7451171875,0.06103515625,-0.18310546875,0.244140625,0.4508056640625,-0.79638671875,0.403564453125,-297.0,152.0,-146.0,101713.0,-3.2250001430511475,0,0
0.6151293000002624,0.38226318359375,-0.456451416015625,0.300384521484375,-0.7451171875,0.0,0.18310546875,0.0,0.451171875,-0.796142578125,0.4044189453125,-297.0,152.0,-146.0,101713.0,-3.2250001430511475,0,0
0.6151965000026394,0.38226318359375,-0.456451416015625,0.300384521484375,-0.745147705078125,-0.1220703125,-0.06103515625,0.0,0.4505615234375,-0.7930908203125,0.4051513671875,-297.0,152.0,-146.0,101712.0,-3.2210001945495605,0,0
0.6154821000091033,0.38226318359375,-0.456451416015625,0.300384521484375,-0.745147705078125,-0.1220703125,-0.06103515625,0.0,0.4505615234375,-0.7930908203125,0.4051513671875,-297.0,152.0,-146.0,101712.0,-3.2210001945495605,0,0
0.6155523000052199,0.38226318359375,-0.456451416015625,0.300384521484375,-0.745147705078125,-0.1220703125,-0.18310546875,0.1220703125,0.4495849609375,-0.7967529296875,0.4027099609375,-298.0,154.0,-148.0,101712.0,-3.2210001945495605,0,0
0.6818343000049936,0.38226318359375,-0.456451416015625,0.300384521484375,-0.745147705078125,0.06103515625,0.0,0.06103515625,0.4501953125,-0.798583984375,0.4034423828125,-298.0,154.0,-148.0,101712.0,-3.2210001945495605,0,0
0.6819029000034789,0.382293701171875,-0.456451416015625,0.300384521484375,-0.745147705078125,0.0,-0.18310546875,-0.244140625,0.44921875,-0.7974853515625,0.40380859375,-298.0,154.0,-148.0,101712.0,-3.2210001945495605,0,0
0.6819643000053475,0.382293701171875,-0.456451416015625,0.300384521484375,-0.745147705078125,0.1220703125,-0.1220703125,-0.244140625,0.44970703125,-0.796142578125,0.4044189453125,-298.0,154.0,-148.0,101712.0,-3.2210001945495605,0,0
0.6820249000011245,0.382293701171875,-0.456451416015625,0.300384521484375,-0.745147705078125,0.06103515625,-0.18310546875,-0.3662109375,0.45166015625,-0.7974853515625,0.402099609375,-298.0,154.0,-148.0,101712.0,-3.2210001945495605,0,0
0.6821782000042731,0.382293701171875,-0.456451416015625,0.300384521484375,-0.745147705078125,0.244140625,-0.18310546875,-0.244140625,0.4508056640625,-0.7952880859375,0.4007568359375,-298.0,154.0,-148.0,101712.0,-3.2210001945495605,0,0
0.6823033000109717,0.38226318359375,-0.456451416015625,0.300384521484375,-0.7451171875,0.1220703125,0.06103515625,-0.244140625,0.448974609375,-0.797607421875,0.3983154296875,-298.0,154.0,-148.0,101712.0,-3.2210001945495605,0,0
0.6823691000026884,0.38226318359375,-0.456451416015625,0.300384521484375,-0.7451171875,0.1220703125,0.06103515625,-0.244140625,0.448974609375,-0.797607421875,0.3983154296875,-298.0,154.0,-148.0,101712.0,-3.2210001945495605,0,0
0.6824294000107329,0.38226318359375,-0.45648193359375,0.300384521484375,-0.7451171875,0.0,-0.244140625,-0.06103515625,0.45263671875,-0.7960205078125,0.401123046875,-298.0,154.0,-148.0,101712.0,-3.2210001945495605,0,0
0.6824866000097245,0.38226318359375,-0.45648193359375,0.300384521484375,-0.7451171875,0.06103515625,0.0,0.1220703125,0.4503173828125,-0.7965087890625,0.403076171875,-298.0,154.0,-148.0,101712.0,-3.2210001945495605,0,0
0.6825455000071088,0.382293701171875,-0.45648193359375,0.3004150390625,-0.7451171875,0.06103515625,0.0,-0.06103515625,0.44873046875,-0.797119140625,0.400634765625,-298.0,154.0,-148.0,101712.0,-3.2210001945495605,0,0
0.6826054999983171,0.382293701171875,-0.456451416015625,0.3004150390625,-0.7451171875,-0.06103515625,-0.244140625,0.18310546875,0.4486083984375,-0.7984619140625,0.4024658203125,-298.0,154.0,-148.0,101712.0,-3.2210001945495605,0,0
0.7405970000108937,0.38226318359375,-0.45648193359375,0.3004150390625,-0.7451171875,0.0,-0.1220703125,-0.244140625,0.453369140625,-0.7978515625,0.400634765625,-298.0,154.0,-148.0,101712.0,-3.2210001945495605,0,0
0.7406614000065019,0.38226318359375,-0.45648193359375,0.3004150390625,-0.7451171875,0.18310546875,-0.06103515625,-0.06103515625,0.4495849609375,-0.79736328125,0.4002685546875,-298.0,154.0,-148.0,101712.0,-3.2210001945495605,0,0
0.7407208000076935,0.38226318359375,-0.45648193359375,0.3004150390625,-0.7451171875,0.18310546875,-0.06103515625,-0.06103515625,0.4495849609375,-0.79736328125,0.4002685546875,-298.0,154.0,-148.0,101712.0,-3.2210001945495605,0,0
0.740777099999832,0.38226318359375,-0.45648193359375,0.3004150390625,-0.745086669921875,0.06103515625,-0.30517578125,-0.1220703125,0.44970703125,-0.796630859375,0.4002685546875,-298.0,153.0,-148.0,101712.0,-3.2240002155303955,0,0
0.7422487000003457,0.382171630859375,-0.456451416015625,0.30047607421875,-0.745147705078125,0.18310546875,0.06103515625,-0.06103515625,0.451416015625,-0.7977294921875,0.4024658203125,-298.0,153.0,-148.0,101712.0,-3.2240002155303955,0,0
0.7423458999983268,0.382171630859375,-0.456451416015625,0.30047607421875,-0.745147705078125,0.06103515625,0.0,-0.06103515625,0.449951171875,-0.795654296875,0.4019775390625,-298.0,153.0,-148.0,101712.0,-3.2240002155303955,0,0
0.7424075000017183,0.382171630859375,-0.456451416015625,0.30047607421875,-0.745147705078125,-0.1220703125,-0.06103515625,-0.30517578125,0.450927734375,-0.7969970703125,0.4010009765625,-298.0,153.0,-148.0,101712.0,-3.2240002155303955,0,0
0.7424651000037557,0.382171630859375,-0.456451416015625,0.30047607421875,-0.745147705078125,0.1220703125,-0.06103515625,0.0,0.449951171875,-0.793212890625,0.404052734375,-298.0,153.0,-148.0,101712.0,-3.2240002155303955,0,0
0.7425221000012243,0.382171630859375,-0.456451416015625,0.30047607421875,-0.745147705078125,-0.42724609375,-0.1220703125,-0.1220703125,0.4510498046875,-0.7958984375,0.4017333984375,-298.0,153.0,-148.0,101712.0,-3.2240002155303955,0,0
0.7425806000101147,0.382171630859375,-0.45648193359375,0.30047607421875,-0.745147705078125,0.0,-0.06103515625,0.0,0.4503173828125,-0.7969970703125,0.39990234375,-298.0,153.0,-148.0,101712.0,-3.2240002155303955,0,0
0.7426866000023438,0.38214111328125,-0.45648193359375,0.300506591796875,-0.745147705078125,0.1220703125,-0.1220703125,0.06103515625,0.4520263671875,-0.7958984375,0.4007568359375,-298.0,153.0,-148.0,101712.0,-3.2240002155303955,0,0
0.742744400005904,0.38214111328125,-0.45648193359375,0.300506591796875,-0.7451171875,0.18310546875,-0.42724609375,-0.06103515625,0.45166015625,-0.796875,0.3984375,-298.0,153.0,-148.0,101712.0,-3.2240002155303955,0,0
0.8153010000096401,0.38214111328125,-0.45648193359375,0.300506591796875,-0.7451171875,0.18310546875,-0.42724609375,-0.06103515625,0.45166015625,-0.796875,0.3984375,-298.0,153.0,-148.0,101712.0,-3.2240002155303955,0,0
0.8153687000012724,0.38214111328125,-0.45648193359375,0.300506591796875,-0.7451171875,0.06103515625,-0.1220703125,0.1220703125,0.44921875,-0.79296875,0.4005126953125,-298.0,153.0,-148.0,101712.0,-3.2240002155303955,0,0
0.8154248000064399,0.38214111328125,-0.456512451171875,0.300506591796875,-0.7451171875,0.18310546875,-0.06103515625,-0.06103515625,0.448974609375,-0.7960205078125,0.3985595703125,-298.0,153.0,-148.0,101712.0,-3.2240002155303955,0,0
0.81547970000247,0.38214111328125,-0.456512451171875,0.300506591796875,-0.7451171875,0.18310546875,-0.244140625,0.18310546875,0.45166015625,-0.7962646484375,0.4017333984375,-298.0,153.0,-148.0,101712.0,-3.2240002155303955,0,0
0.8155358000076376,0.38214111328125,-0.456512451171875,0.300506591796875,-0.7451171875,0.18310546875,-0.06103515625,0.18310546875,0.449951171875,-0.797119140625,0.40185546875,-298.0,153.0,-148.0,101712.0,-3.2240002155303955,0,0
0.8155899999983376,0.38214111328125,-0.456512451171875,0.300506591796875,-0.7451171875,0.0,-0.18310546875,0.18310546875,0.4501953125,-0.7972412109375,0.402099609375,-298.0,153.0,-148.0,101712.0,-3.2240002155303955,0,0
0.8156667000002926,0.38214111328125,-0.456512451171875,0.300506591796875,-0.7451171875,0.1220703125,-0.06103515625,0.1220703125,0.4486083984375,-0.79736328125,0.4017333984375,-298.0,153.0,-148.0,101712.0,-3.2240002155303955,0,0
0.8157257999991998,0.38214111328125,-0.456512451171875,0.300506591796875,-0.7451171875,-0.1220703125,0.0,0.1220703125,0.449951171875,-0.7977294921875,0.4027099609375,-298.0,153.0,-148.0,101712.0,-3.2240002155303955,0,0
0.8157829999981914,0.38214111328125,-0.456512451171875,0.300506591796875,-0.7451171875,0.42724609375,-0.18310546875,-0.06103515625,0.4488525390625,-0.798095703125,0.4013671875,-298.0,153.0,-148.0,101712.0,-3.2240002155303955,0,0
0.8158357000065735,0.38214111328125,-0.456512451171875,0.300506591796875,-0.7451171875,0.42724609375,-0.18310546875,-0.06103515625,0.4488525390625,-0.798095703125,0.4013671875,-298.0,153.0,-148.0,101712.0,-3.2240002155303955,0,0
0.8158918999979505,0.38214111328125,-0.456512451171875,0.300506591796875,-0.7451171875,0.3662109375,-0.18310546875,-0.30517578125,0.450927734375,-0.796630859375,0.4010009765625,-298.0,153.0,-148.0,101712.0,-3.2240002155303955,0,0
0.8159452000109013,0.38214111328125,-0.456512451171875,0.300506591796875,-0.7451171875,0.3662109375,-0.30517578125,-0.30517578125,0.4505615234375,-0.7960205078125,0.4012451171875,-298.0,153.0,-148.0,101712.0,-3.2240002155303955,0,0
0.8704634000023361,0.382049560546875,-0.45648193359375,0.30059814453125,-0.745147705078125,0.244140625,-0.06103515625,0.06103515625,0.4488525390625,-0.7974853515625,0.4014892578125,-298.0,152.0,-148.0,101712.0,-3.2240002155303955,0,0
0.8705276000109734,0.382049560546875,-0.45648193359375,0.30059814453125,-0.745147705078125,0.06103515625,0.0,-0.1220703125,0.4500732421875,-0.794677734375,0.401123046875,-298.0,152.0,-148.0,101712.0,-3.2240002155303955,0,0
0.8705836000008276,0.382049560546875,-0.45648193359375,0.30059814453125,-0.745147705078125,0.244140625,-0.18310546875,-0.06103515625,0.451171875,-0.793701171875,0.4007568359375,-298.0,152.0,-148.0,101712.0,-3.2240002155303955,0,0
0.8706380000076024,0.382049560546875,-0.456512451171875,0.30059814453125,-0.745147705078125,-0.1220703125,-0.06103515625,0.06103515625,0.4530029296875,-0.7978515625,0.3988037109375,-298.0,152.0,-148.0,101712.0,-3.2240002155303955,0,0
0.8706907000014326,0.38201904296875,-0.456512451171875,0.30059814453125,-0.745147705078125,0.0,-0.244140625,-0.18310546875,0.452880859375,-0.795166015625,0.4022216796875,-298.0,152.0,-148.0,101712.0,-3.2240002155303955,0,0
0.8713986000075238,0.38201904296875,-0.456512451171875,0.30059814453125,-0.745147705078125,0.0,-0.244140625,-0.18310546875,0.452880859375,-0.795166015625,0.4022216796875,-298.0,152.0,-148.0,101712.0,-3.2240002155303955,0,0
0.8714556000049924,0.38201904296875,-0.456512451171875,0.30059814453125,-0.745147705078125,0.1220703125,0.0,0.18310546875,0.4522705078125,-0.7982177734375,0.3992919921875,-298.0,152.0,-148.0,101712.0,-3.2240002155303955,0,0
0.8715100999979768,0.38201904296875,-0.456512451171875,0.30059814453125,-0.745147705078125,0.1220703125,0.0,0.18310546875,0.4522705078125,-0.7982177734375,0.3992919921875,-298.0,152.0,-148.0,101712.0,-3.2240002155303955,0,0
0.8715614000102505,0.38201904296875,-0.456512451171875,0.30059814453125,-0.745147705078125,0.30517578125,0.0,-0.06103515625,0.4493408203125,-0.7977294921875,0.4017333984375,-298.0,152.0,-148.0,101712.0,-3.2240002155303955,0,0
0.8716160000039963,0.38201904296875,-0.456512451171875,0.30059814453125,-0.745147705078125,0.1220703125,-0.1220703125,-0.06103515625,0.4493408203125,-0.7962646484375,0.4019775390625,-298.0,152.0,-148.0,101712.0,-3.2240002155303955,0,0
0.8716722000099253,0.38201904296875,-0.456512451171875,0.30059814453125,-0.745147705078125,0.06103515625,-0.1220703125,-0.1220703125,0.4505615234375,-0.7972412109375,0.401611328125,-298.0,152.0,-148.0,101712.0,-3.2240002155303955,0,0
0.8717261999991024,0.38201904296875,-0.45654296875,0.30059814453125,-0.745147705078125,0.06103515625,-0.1220703125,-0.1220703125,0.4505615234375,-0.7972412109375,0.401611328125,-298.0,152.0,-148.0,101712.0,-3.2240002155303955,0,0
0.9440532000007806,0.38201904296875,-0.45654296875,0.30059814453125,-0.7451171875,0.06103515625,-0.1220703125,-0.06103515625,0.451171875,-0.7969970703125,0.400146484375,-298.0,152.0,-148.0,101712.0,-3.2240002155303955,0,0
0.9441136000095867,0.38201904296875,-0.45654296875,0.30059814453125,-0.7451171875,0.0,-0.30517578125,0.0,0.4508056640625,-0.7960205078125,0.401611328125,-298.0,152.0,-148.0,101712.0,-3.2240002155303955,0,0
0.9441672000102699,0.38201904296875,-0.45654296875,0.30059814453125,-0.7451171875,0.06103515625,-0.06103515625,-0.18310546875,0.4512939453125,-0.7972412109375,0.40185546875,-298.0,152.0,-148.0,101712.0,-3.2240002155303955,0,0
0.9442233000008855,0.38201904296875,-0.45654296875,0.30059814453125,-0.7451171875,-0.244140625,-0.1220703125,-0.06103515625,0.449951171875,-0.79833984375,0.4005126953125,-299.0,152.0,-148.0,101712.0,-3.2240002155303955,0,0
0.9442959000007249,0.38201904296875,-0.45654296875,0.30059814453125,-0.7451171875,-0.1220703125,-0.244140625,-0.30517578125,0.4503173828125,-0.7960205078125,0.4017333984375,-299.0,152.0,-148.0,101712.0,-3.2240002155303955,0,0
0.9443518000043696,0.38201904296875,-0.45654296875,0.30059814453125,-0.7451171875,0.18310546875,-0.244140625,0.0,0.4500732421875,-0.794677734375,0.40283203125,-299.0,152.0,-148.0,101712.0,-3.2240002155303955,0,0
0.9444055000058142,0.38201904296875,-0.45654296875,0.30059814453125,-0.7451171875,0.244140625,0.0,-0.1220703125,0.4498291015625,-0.7945556640625,0.4022216796875,-299.0,152.0,-148.0,101712.0,-3.2240002155303955,0,0
0.9444603000010829,0.38201904296875,-0.45654296875,0.30059814453125,-0.7451171875,0.0,-0.18310546875,0.18310546875,0.4466552734375,-0.795654296875,0.4024658203125,-299.0,152.0,-148.0,101712.0,-3.2240002155303955,0,0
0.9445146000070963,0.38201904296875,-0.45654296875,0.30059814453125,-0.7451171875,0.30517578125,-0.30517578125,0.30517578125,0.4508056640625,-0.7950439453125,0.4012451171875,-299.0,152.0,-148.0,101712.0,-3.2240002155303955,0,0
0.944570300009218,0.38201904296875,-0.45654296875,0.30059814453125,-0.7451171875,0.0,0.1220703125,0.06103515625,0.450439453125,-0.797607421875,0.4014892578125,-299.0,152.0,-148.0,101712.0,-3.2240002155303955,0,0
0.9446405000053346,0.38201904296875,-0.45654296875,0.30059814453125,-0.7451171875,0.0,0.1220703125,0.06103515625,0.450439453125,-0.797607421875,0.4014892578125,-299.0,152.0,-148.0,101712.0,-3.2240002155303955,0,0
0.9983035000041127,0.38201904296875,-0.45654296875,0.30059814453125,-0.7451171875,0.1220703125,0.30517578125,-0.1220703125,0.449462890625,-0.7955322265625,0.4014892578125,-299.0,152.0,-148.0,101712.0,-3.2240002155303955,0,0
0.9983674000104656,0.38201904296875,-0.45654296875,0.300628662109375,-0.7451171875,-0.1220703125,-0.1220703125,0.06103515625,0.44921875,-0.795654296875,0.4007568359375,-299.0,152.0,-148.0,101712.0,-3.2240002155303955,0,0
0.9984248999971896,0.38201904296875,-0.45654296875,0.300628662109375,-0.7451171875,0.30517578125,-0.30517578125,0.0,0.449462890625,-0.7979736328125,0.4024658203125,-299.0,152.0,-148.0,101712.0,-3.2240002155303955,0,0
0.9984796000062488,0.38201904296875,-0.45654296875,0.300628662109375,-0.7451171875,-0.3662109375,-0.1220703125,-0.06103515625,0.44921875,-0.7958984375,0.4005126953125,-299.0,152.0,-148.0,101712.0,-3.2240002155303955,0,0
0.9985339999984717,0.38201904296875,-0.45654296875,0.300628662109375,-0.7451171875,-0.30517578125,-0.3662109375,-0.18310546875,0.4520263671875,-0.7972412109375,0.4012451171875,-299.0,152.0,-148.0,101712.0,-3.2240002155303955,0,0
0.9985879000014393,0.38201904296875,-0.45654296875,0.300628662109375,-0.7451171875,0.1220703125,-0.18310546875,0.0,0.4488525390625,-0.7979736328125,0.4014892578125,-299.0,152.0,-148.0,101712.0,-3.2240002155303955,0,0
1.0019687000021804,0.38201904296875,-0.45654296875,0.300628662109375,-0.7451171875,-0.1220703125,-0.244140625,-0.244140625,0.44921875,-0.7957763671875,0.3995361328125,-299.0,152.0,-148.0,101712.0,-3.2240002155303955,0,0
1.0020282000041334,0.38201904296875,-0.45654296875,0.300628662109375,-0.7451171875,0.06103515625,-0.06103515625,-0.18310546875,0.4508056640625,-0.7950439453125,0.4019775390625,-299.0,152.0,-148.0,101712.0,-3.2240002155303955,0,0
1.002083200000925,0.38201904296875,-0.45654296875,0.300628662109375,-0.7451171875,0.06103515625,-0.06103515625,-0.18310546875,0.4508056640625,-0.7950439453125,0.4019775390625,-299.0,152.0,-148.0,101712.0,-3.2240002155303955,0,0
1.0021375000069384,0.38201904296875,-0.45654296875,0.300628662109375,-0.7451171875,-0.1220703125,-0.30517578125,-0.1220703125,0.4508056640625,-0.795166015625,0.4017333984375,-299.0,152.0,-148.0,101712.0,-3.2240002155303955,0,0
1.0021910000068601,0.38201904296875,-0.45654296875,0.300628662109375,-0.7451171875,0.0,-0.1220703125,-0.18310546875,0.4508056640625,-0.7962646484375,0.4027099609375,-299.0,152.0,-148.0,101712.0,-3.2240002155303955,0,0
1.0022468000097433,0.38201904296875,-0.45654296875,0.300628662109375,-0.7451171875,-0.1220703125,-0.18310546875,0.0,0.4501953125,-0.7967529296875,0.4013671875,-299.0,152.0,-148.0,101712.0,-3.2240002155303955,0,0
1.0696325000026263,0.38201904296875,-0.45654296875,0.300628662109375,-0.7451171875,-0.18310546875,-0.1220703125,0.1220703125,0.4486083984375,-0.795166015625,0.40283203125,-299.0,152.0,-147.0,101713.0,-3.2250001430511475,0,0
1.0696947000105865,0.38201904296875,-0.45654296875,0.300628662109375,-0.7451171875,-0.18310546875,-0.30517578125,-0.1220703125,0.45068359375,-0.7930908203125,0.4007568359375,-299.0,152.0,-147.0,101713.0,-3.2250001430511475,0,0
1.0697497000073781,0.38201904296875,-0.45654296875,0.300628662109375,-0.7451171875,0.3662109375,-0.18310546875,-0.48828125,0.449462890625,-0.7952880859375,0.4010009765625,-299.0,152.0,-147.0,101713.0,-3.2250001430511475,0,0
1.069805200007977,0.38201904296875,-0.456573486328125,0.300628662109375,-0.7451171875,0.3662109375,-0.18310546875,-0.1220703125,0.45068359375,-0.79443359375,0.4010009765625,-299.0,152.0,-147.0,101713.0,-3.2250001430511475,0,0
1.0698598000017228,0.38201904296875,-0.456573486328125,0.300628662109375,-0.7451171875,0.3662109375,-0.18310546875,-0.1220703125,0.45068359375,-0.79443359375,0.4010009765625,-299.0,152.0,-147.0,101713.0,-3.2250001430511475,0,0
1.0699572000012267,0.38201904296875,-0.456573486328125,0.300628662109375,-0.7451171875,0.244140625,0.06103515625,0.0,0.4500732421875,-0.795654296875,0.4012451171875,-299.0,152.0,-147.0,101713.0,-3.2250001430511475,0,0
1.0700101000111317,0.38201904296875,-0.45654296875,0.300628662109375,-0.7451171875,0.0,-0.244140625,0.0,0.4493408203125,-0.7969970703125,0.4027099609375,-299.0,152.0,-147.0,101713.0,-3.2250001430511475,0,0
1.070062800004962,0.38201904296875,-0.45654296875,0.300628662109375,-0.7451171875,0.0,-0.244140625,0.0,0.4493408203125,-0.7969970703125,0.4027099609375,-299.0,152.0,-147.0,101713.0,-3.2250001430511475,0,0
1.0701153999980306,0.38201904296875,-0.45654296875,0.300628662109375,-0.7451171875,-0.1220703125,-0.1220703125,0.1220703125,0.4500732421875,-0.7969970703125,0.4041748046875,-299.0,152.0,-147.0,101713.0,-3.2250001430511475,0,0
1.0701696000032825,0.38201904296875,-0.45654296875,0.300628662109375,-0.7451171875,0.06103515625,-0.1220703125,0.1220703125,0.451416015625,-0.79736328125,0.4051513671875,-299.0,152.0,-147.0,101713.0,-3.2250001430511475,0,0
1.0702222999971127,0.38201904296875,-0.45654296875,0.300628662109375,-0.7451171875,-0.54931640625,-0.1220703125,-0.06103515625,0.4510498046875,-0.7960205078125,0.4019775390625,-299.0,152.0,-147.0,101713.0,-3.2250001430511475,0,0
1.070276800004649,0.382049560546875,-0.45654296875,0.30072021484375,-0.74505615234375,-0.06103515625,-0.06103515625,0.732421875,0.45263671875,-0.795166015625,0.399169921875,-299.0,152.0,-147.0,101713.0,-3.2250001430511475,0,0
1.1217897000024095,0.382171630859375,-0.456451416015625,0.300872802734375,-0.7449951171875,0.6103515625,0.6103515625,2.25830078125,0.4505615234375,-0.7972412109375,0.3961181640625,-299.0,152.0,-147.0,101713.0,-3.2250001430511475,0,0
1.1218540999980178,0.382171630859375,-0.456451416015625,0.300872802734375,-0.7449951171875,0.0,0.244140625,1.708984375,0.44873046875,-0.7984619140625,0.4036865234375,-299.0,152.0,-147.0,101713.0,-3.2250001430511475,0,0
1.1219082000025082,0.382232666015625,-0.456390380859375,0.300933837890625,-0.7449951171875,-0.54931640625,0.0,0.30517578125,0.4447021484375,-0.8026123046875,0.405029296875,-299.0,152.0,-147.0,101713.0,-3.2250001430511475,0,0
1.1219630999985384,0.382232666015625,-0.456390380859375,0.300933837890625,-0.7449951171875,0.18310546875,-0.42724609375,-0.732421875,0.4437255859375,-0.8046875,0.4017333984375,-299.0,152.0,-147.0,101713.0,-3.2250001430511475,0,0
1.122022299998207,0.382171630859375,-0.4564208984375,0.300872802734375,-0.7449951171875,0.42724609375,-0.91552734375,-1.64794921875,0.446533203125,-0.8028564453125,0.4046630859375,-299.0,152.0,-147.0,101713.0,-3.2250001430511475,0,0
1.1229222000110894,0.382171630859375,-0.4564208984375,0.300872802734375,-0.7449951171875,0.06103515625,-0.8544921875,-2.13623046875,0.4461669921875,-0.801513671875,0.4041748046875,-299.0,152.0,-147.0,101712.0,-3.2240002155303955,0,0
1.1229832000099123,0.3819580078125,-0.45648193359375,0.300811767578125,-0.7451171875,0.79345703125,-1.220703125,-2.01416015625,0.45166015625,-0.7939453125,0.400634765625,-299.0,151.0,-147.0,101712.0,-3.2240002155303955,0,0
1.1230371999990894,0.381927490234375,-0.456512451171875,0.300750732421875,-0.745147705078125,0.54931640625,-0.42724609375,-1.64794921875,0.4530029296875,-0.7928466796875,0.39990234375,-299.0,151.0,-147.0,101712.0,-3.2240002155303955,0,0
1.1230938000080641,0.381927490234375,-0.456512451171875,0.300750732421875,-0.745147705078125,0.54931640625,-0.42724609375,-1.64794921875,0.4530029296875,-0.7928466796875,0.39990234375,-299.0,151.0,-147.0,101712.0,-3.2240002155303955,0,0
1.1231498999986798,0.38189697265625,-0.456512451171875,0.300689697265625,-0.745147705078125,-0.30517578125,0.0,0.67138671875,0.453125,-0.7919921875,0.4034423828125,-299.0,151.0,-147.0,101712.0,-3.2240002155303955,0,0
1.1232059000030858,0.38189697265625,-0.456512451171875,0.300689697265625,-0.745147705078125,-0.1220703125,0.244140625,1.0986328125,0.4542236328125,-0.795166015625,0.400390625,-299.0,151.0,-147.0,101712.0,-3.2240002155303955,0,0
1.1915889000083553,0.381927490234375,-0.456512451171875,0.30072021484375,-0.745147705078125,0.30517578125,0.30517578125,1.5869140625,0.44970703125,-0.79345703125,0.3988037109375,-299.0,151.0,-147.0,101712.0,-3.2240002155303955,0,0
1.1916667000041343,0.381988525390625,-0.456451416015625,0.300750732421875,-0.745147705078125,0.18310546875,0.42724609375,1.64794921875,0.4498291015625,-0.7955322265625,0.40380859375,-299.0,151.0,-147.0,101712.0,-3.2240002155303955,0,0
1.1917296000028728,0.38201904296875,-0.4564208984375,0.30078125,-0.7451171875,-0.3662109375,0.244140625,1.03759765625,0.4482421875,-0.8004150390625,0.40478515625,-299.0,151.0,-147.0,101712.0,-3.2240002155303955,0,0
1.1917889000033028,0.38201904296875,-0.4564208984375,0.300811767578125,-0.7451171875,-0.30517578125,0.244140625,0.9765625,0.445068359375,-0.80078125,0.4044189453125,-299.0,151.0,-147.0,101712.0,-3.2240002155303955,0,0
1.1918472999968799,0.382049560546875,-0.456390380859375,0.300811767578125,-0.7451171875,-0.244140625,-0.244140625,0.244140625,0.4449462890625,-0.7998046875,0.403564453125,-299.0,151.0,-147.0,101712.0,-3.2240002155303955,0,0
1.1919066999980714,0.382049560546875,-0.456390380859375,0.300811767578125,-0.7451171875,-0.18310546875,-0.1220703125,-0.18310546875,0.4461669921875,-0.8021240234375,0.40234375,-299.0,151.0,-147.0,101712.0,-3.2240002155303955,0,0
1.1922099000075832,0.38201904296875,-0.4564208984375,0.30078125,-0.745147705078125,0.79345703125,-0.48828125,-1.46484375,0.44775390625,-0.79833984375,0.4005126953125,-299.0,151.0,-147.0,101712.0,-3.2240002155303955,0,0
1.1923449000023538,0.38201904296875,-0.4564208984375,0.30078125,-0.745147705078125,0.79345703125,-0.48828125,-1.46484375,0.44775390625,-0.79833984375,0.4005126953125,-299.0,151.0,-147.0,101712.0,-3.2240002155303955,0,0
1.1924023000028683,0.3819580078125,-0.456451416015625,0.300689697265625,-0.74517822265625,0.54931640625,-0.6103515625,-1.220703125,0.4483642578125,-0.79638671875,0.404052734375,-299.0,151.0,-147.0,101712.0,-3.2240002155303955,0,0
1.1924716000066837,0.381927490234375,-0.45648193359375,0.300628662109375,-0.74517822265625,0.3662109375,-0.67138671875,-1.0986328125,0.449951171875,-0.7938232421875,0.40185546875,-299.0,151.0,-147.0,101712.0,-3.2240002155303955,0,0
1.1925291000079596,0.38189697265625,-0.456512451171875,0.30059814453125,-0.745208740234375,0.1220703125,-0.3662109375,-0.48828125,0.4534912109375,-0.7938232421875,0.4010009765625,-299.0,151.0,-147.0,101712.0,-3.2240002155303955,0,0
1.1925874000007752,0.38189697265625,-0.456512451171875,0.30059814453125,-0.745208740234375,0.0,-0.3662109375,0.0,0.4532470703125,-0.791015625,0.4007568359375,-299.0,151.0,-147.0,101712.0,-3.2240002155303955,0,0
1.192643100002897,0.38189697265625,-0.456512451171875,0.30059814453125,-0.745208740234375,-0.18310546875,0.18310546875,0.42724609375,0.4522705078125,-0.79345703125,0.402099609375,-299.0,151.0,-147.0,101712.0,-3.2240002155303955,0,0
1.2527923000016017,0.38189697265625,-0.45654296875,0.30059814453125,-0.745208740234375,-0.244140625,0.244140625,1.0986328125,0.4493408203125,-0.7967529296875,0.4024658203125,-298.0,150.0,-147.0,101713.0,-3.2250001430511475,0,0
1.252860900000087,0.38189697265625,-0.45654296875,0.30059814453125,-0.745208740234375,-0.244140625,0.244140625,1.0986328125,0.4493408203125,-0.7967529296875,0.4024658203125,-298.0,150.0,-147.0,101713.0,-3.2250001430511475,0,0
1.252921300008893,0.381683349609375,-0.456451416015625,0.30072021484375,-0.74530029296875,0.06103515625,0.244140625,0.79345703125,0.4481201171875,-0.7989501953125,0.4024658203125,-298.0,150.0,-147.0,101713.0,-3.2250001430511475,0,0
1.2529798000032315,0.381683349609375,-0.4564208984375,0.300750732421875,-0.74530029296875,-0.06103515625,0.244140625,0.244140625,0.446533203125,-0.8018798828125,0.4036865234375,-298.0,150.0,-147.0,101713.0,-3.2250001430511475,0,0
1.2546384000015678,0.3817138671875,-0.4564208984375,0.300750732421875,-0.74530029296875,0.244140625,-0.18310546875,-0.30517578125,0.44921875,-0.799072265625,0.4044189453125,-298.0,150.0,-147.0,101713.0,-3.2250001430511475,0,0
1.2546994000003906,0.3817138671875,-0.4564208984375,0.300750732421875,-0.74530029296875,0.06103515625,-0.30517578125,-0.67138671875,0.448486328125,-0.8001708984375,0.4029541015625,-298.0,150.0,-147.0,101713.0,-3.2250001430511475,0,0
1.2547580000100425,0.381683349609375,-0.4564208984375,0.300750732421875,-0.74530029296875,0.06103515625,-0.30517578125,-0.67138671875,0.44970703125,-0.7972412109375,0.403564453125,-298.0,150.0,-147.0,101713.0,-3.2250001430511475,0,0
1.2548174999974435,0.3817138671875,-0.4564208984375,0.300750732421875,-0.74530029296875,0.06103515625,-0.54931640625,-0.91552734375,0.449462890625,-0.79736328125,0.4029541015625,-298.0,150.0,-147.0,101713.0,-3.2250001430511475,0,0
1.2548742000071798,0.3817138671875,-0.4564208984375,0.300750732421875,-0.74530029296875,0.0,-0.48828125,-0.79345703125,0.4488525390625,-0.79736328125,0.402587890625,-298.0,150.0,-147.0,101713.0,-3.2250001430511475,0,0
1.2549313000054099,0.3817138671875,-0.4564208984375,0.300750732421875,-0.74530029296875,0.30517578125,-0.48828125,-0.6103515625,0.450927734375,-0.7943115234375,0.40283203125,-298.0,150.0,-147.0,101713.0,-3.2250001430511475,0,0
1.2549886000051629,0.3817138671875,-0.4564208984375,0.300750732421875,-0.74530029296875,-0.1220703125,-0.244140625,-0.1220703125,0.4508056640625,-0.7962646484375,0.4012451171875,-298.0,150.0,-147.0,101713.0,-3.2250001430511475,0,0
1.3349701999977697,0.381683349609375,-0.4564208984375,0.30072021484375,-0.74530029296875,-0.48828125,-0.06103515625,0.732421875,0.4486083984375,-0.7938232421875,0.4014892578125,-298.0,150.0,-147.0,101713.0,-3.2250001430511475,0,0
1.3350365000078455,0.3817138671875,-0.4564208984375,0.30072021484375,-0.74530029296875,-0.18310546875,0.06103515625,0.54931640625,0.4495849609375,-0.7969970703125,0.40185546875,-298.0,150.0,-147.0,101713.0,-3.2250001430511475,0,0
1.3350951000029454,0.381683349609375,-0.4564208984375,0.30072021484375,-0.74530029296875,-0.18310546875,0.06103515625,0.732421875,0.4515380859375,-0.796630859375,0.4017333984375,-298.0,150.0,-147.0,101713.0,-3.2250001430511475,0,0
1.33515320000879,0.3817138671875,-0.4564208984375,0.300750732421875,-0.74530029296875,-0.3662109375,0.06103515625,0.30517578125,0.4473876953125,-0.7982177734375,0.4013671875,-298.0,150.0,-147.0,101713.0,-3.2250001430511475,0,0
1.3352164000098128,0.3817138671875,-0.4564208984375,0.300750732421875,-0.74530029296875,0.0,-0.18310546875,0.1220703125,0.449462890625,-0.7969970703125,0.402587890625,-298.0,150.0,-147.0,101713.0,-3.2250001430511475,0,0
1.3353169000038179,0.3817138671875,-0.4564208984375,0.300750732421875,-0.74530029296875,-0.06103515625,0.0,0.18310546875,0.447998046875,-0.7955322265625,0.4031982421875,-298.0,150.0,-147.0,101713.0,-3.2250001430511475,0,0
1.3353719000006095,0.3817138671875,-0.4564208984375,0.300750732421875,-0.74530029296875,-0.18310546875,-0.06103515625,0.1220703125,0.450439453125,-0.7960205078125,0.4017333984375,-298.0,150.0,-147.0,101713.0,-3.2250001430511475,0,0
1.3354288999980781,0.3817138671875,-0.4564208984375,0.300750732421875,-0.74530029296875,-0.18310546875,-0.06103515625,0.1220703125,0.450439453125,-0.7960205078125,0.4017333984375,-298.0,150.0,-147.0,101713.0,-3.2250001430511475,0,0
1.335484000010183,0.38153076171875,-0.456329345703125,0.300872802734375,-0.74542236328125,0.06103515625,-0.30517578125,0.1220703125,0.4495849609375,-0.79736328125,0.4027099609375,-298.0,151.0,-147.0,101713.0,-3.2250001430511475,0,0
1.3355383000016445,0.38153076171875,-0.456329345703125,0.300872802734375,-0.74542236328125,0.0,0.0,0.0,0.4512939453125,-0.798095703125,0.400146484375,-298.0,151.0,-147.0,101713.0,-3.2250001430511475,0,0
1.335594600008335,0.38153076171875,-0.456329345703125,0.300872802734375,-0.74542236328125,-0.1220703125,-0.244140625,0.0,0.450439453125,-0.796875,0.4014892578125,-298.0,151.0,-147.0,101713.0,-3.2250001430511475,0,0
1.380520600010641,0.38153076171875,-0.456329345703125,0.300872802734375,-0.745391845703125,0.244140625,-0.244140625,-0.48828125,0.44921875,-0.7996826171875,0.4014892578125,-298.0,151.0,-147.0,101713.0,-3.2250001430511475,0,0
1.3805921000021044,0.38153076171875,-0.456329345703125,0.3009033203125,-0.745391845703125,0.3662109375,-0.30517578125,-0.42724609375,0.44970703125,-0.7972412109375,0.40234375,-298.0,151.0,-147.0,101713.0,-3.2250001430511475,0,0
1.380651300001773,0.38153076171875,-0.456298828125,0.3009033203125,-0.745391845703125,-0.06103515625,-0.244140625,-0.30517578125,0.44775390625,-0.796875,0.4039306640625,-298.0,151.0,-147.0,101713.0,-3.2250001430511475,0,0
1.3807079000107478,0.38153076171875,-0.456298828125,0.3009033203125,-0.745391845703125,0.244140625,-0.42724609375,-0.3662109375,0.4490966796875,-0.7950439453125,0.40185546875,-298.0,151.0,-147.0,101713.0,-3.2250001430511475,0,0
1.3807614999968791,0.38153076171875,-0.456329345703125,0.300872802734375,-0.745391845703125,0.06103515625,-0.1220703125,-0.18310546875,0.4515380859375,-0.793701171875,0.401611328125,-298.0,151.0,-147.0,101713.0,-3.2250001430511475,0,0
1.380814600008307,0.38153076171875,-0.456329345703125,0.300872802734375,-0.745391845703125,-0.1220703125,-0.18310546875,-0.06103515625,0.452880859375,-0.794921875,0.401123046875,-298.0,151.0,-147.0,101713.0,-3.2250001430511475,0,0
1.3812706000026083,0.38153076171875,-0.456329345703125,0.300872802734375,-0.745391845703125,-0.1220703125,-0.18310546875,-0.06103515625,0.452880859375,-0.794921875,0.401123046875,-298.0,151.0,-147.0,101713.0,-3.2250001430511475,0,0
1.3813269000092987,0.38153076171875,-0.456329345703125,0.300872802734375,-0.745391845703125,-0.18310546875,-0.06103515625,0.30517578125,0.4486083984375,-0.7962646484375,0.401611328125,-298.0,151.0,-147.0,101713.0,-3.2260000705718994,0,0
1.3813795000023674,0.38153076171875,-0.456329345703125,0.300872802734375,-0.745391845703125,0.18310546875,0.06103515625,0.244140625,0.44970703125,-0.796875,0.4014892578125,-298.0,151.0,-147.0,101713.0,-3.2260000705718994,0,0
1.3814340000099037,0.38153076171875,-0.456329345703125,0.3009033203125,-0.745391845703125,-0.1220703125,-0.3662109375,0.1220703125,0.4503173828125,-0.79638671875,0.4014892578125,-298.0,151.0,-147.0,101713.0,-3.2260000705718994,0,0
1.3814880999998422,0.38153076171875,-0.456329345703125,0.3009033203125,-0.745391845703125,0.0,-0.1220703125,-0.1220703125,0.44921875,-0.7969970703125,0.4019775390625,-298.0,151.0,-147.0,101713.0,-3.2260000705718994,0,0
1.381542500006617,0.38153076171875,-0.456329345703125,0.3009033203125,-0.745391845703125,0.48828125,-0.06103515625,-0.18310546875,0.4503173828125,-0.7974853515625,0.40087890625,-298.0,151.0,-147.0,101713.0,-3.2260000705718994,0,0
1.381594700011192,0.38153076171875,-0.456329345703125,0.3009033203125,-0.745391845703125,0.06103515625,-0.30517578125,-0.3662109375,0.4500732421875,-0.7962646484375,0.40234375,-298.0,151.0,-147.0,101713.0,-3.2260000705718994,0,0
1.4458497000014177,0.38153076171875,-0.456329345703125,0.3009033203125,-0.745391845703125,0.18310546875,-0.1220703125,-0.1220703125,0.4510498046875,-0.7972412109375,0.40283203125,-298.0,151.0,-147.0,101713.0,-3.2260000705718994,0,0
1.4459133000054862,0.38153076171875,-0.456298828125,0.3009033203125,-0.745391845703125,0.0,0.0,-0.30517578125,0.45166015625,-0.7974853515625,0.40380859375,-297.0,152.0,-147.0,101713.0,-3.2260000705718994,0,0
1.4459694999968633,0.38153076171875,-0.456329345703125,0.3009033203125,-0.745391845703125,0.1220703125,-0.1220703125,-0.18310546875,0.451416015625,-0.7982177734375,0.4019775390625,-297.0,152.0,-147.0,101713.0,-3.2260000705718994,0,0
1.4460258000035537,0.38140869140625,-0.456268310546875,0.30096435546875,-0.745452880859375,-0.244140625,-0.06103515625,0.244140625,0.4512939453125,-0.7978515625,0.403076171875,-297.0,152.0,-147.0,101713.0,-3.2260000705718994,0,0
1.4460798000072828,0.381439208984375,-0.456268310546875,0.30096435546875,-0.745452880859375,0.30517578125,0.0,0.30517578125,0.4495849609375,-0.7960205078125,0.404052734375,-297.0,152.0,-147.0,101713.0,-3.2260000705718994,0,0
1.4461470000096597,0.381439208984375,-0.456268310546875,0.30096435546875,-0.745452880859375,-0.1220703125,-0.244140625,0.0,0.4500732421875,-0.797607421875,0.4022216796875,-297.0,152.0,-147.0,101713.0,-3.2260000705718994,0,0
1.4462000000057742,0.381439208984375,-0.456268310546875,0.30096435546875,-0.745452880859375,0.18310546875,-0.1220703125,-0.06103515625,0.4486083984375,-0.798828125,0.401123046875,-297.0,152.0,-147.0,101713.0,-3.2260000705718994,0,0
1.4462955000053626,0.381439208984375,-0.456268310546875,0.30096435546875,-0.745452880859375,0.244140625,0.0,-0.1220703125,0.448974609375,-0.7957763671875,0.4027099609375,-297.0,152.0,-147.0,101713.0,-3.2260000705718994,0,0
1.4463469000038458,0.381439208984375,-0.456268310546875,0.30096435546875,-0.745452880859375,-0.06103515625,-0.18310546875,-0.18310546875,0.4501953125,-0.7977294921875,0.40283203125,-297.0,152.0,-147.0,101713.0,-3.2260000705718994,0,0
1.4464013999968302,0.381439208984375,-0.456268310546875,0.30096435546875,-0.745452880859375,0.1220703125,-0.42724609375,-0.244140625,0.4503173828125,-0.7947998046875,0.4014892578125,-297.0,152.0,-147.0,101713.0,-3.2260000705718994,0,0
1.446452300006058,0.381439208984375,-0.456268310546875,0.30096435546875,-0.745452880859375,0.1220703125,-0.42724609375,-0.244140625,0.4503173828125,-0.7947998046875,0.4014892578125,-297.0,152.0,-147.0,101713.0,-3.2260000705718994,0,0
1.516858200004208,0.381439208984375,-0.456268310546875,0.300994873046875,-0.745452880859375,-0.06103515625,-0.18310546875,0.0,0.448974609375,-0.79541015625,0.4019775390625,-297.0,152.0,-147.0,101713.0,-3.2270002365112305,0,0
1.5169326000032015,0.381439208984375,-0.456268310546875,0.300994873046875,-0.745452880859375,-0.06103515625,-0.3662109375,-0.06103515625,0.4503173828125,-0.794677734375,0.4027099609375,-297.0,152.0,-147.0,101713.0,-3.2270002365112305,0,0
1.5169903000060003,0.381439208984375,-0.456268310546875,0.300994873046875,-0.745452880859375,0.06103515625,-0.18310546875,-0.30517578125,0.4501953125,-0.7979736328125,0.402099609375,-297.0,152.0,-147.0,101713.0,-3.2270002365112305,0,0
1.5170484999980545,0.381439208984375,-0.456268310546875,0.30096435546875,-0.745452880859375,-0.1220703125,-0.244140625,0.18310546875,0.452392578125,-0.7945556640625,0.4014892578125,-297.0,152.0,-147.0,101713.0,-3.2270002365112305,0,0
1.5171075000107521,0.381439208984375,-0.456268310546875,0.30096435546875,-0.745452880859375,0.18310546875,0.0,0.244140625,0.448974609375,-0.7960205078125,0.4014892578125,-297.0,152.0,-147.0,101713.0,-3.2270002365112305,0,0
1.5171865000011167,0.381439208984375,-0.456268310546875,0.30096435546875,-0.745452880859375,0.18310546875,0.18310546875,0.0,0.4527587890625,-0.7957763671875,0.4027099609375,-297.0,152.0,-147.0,101713.0,-3.2270002365112305,0,0
1.51724080000713,0.381439208984375,-0.456268310546875,0.30096435546875,-0.745452880859375,0.18310546875,0.18310546875,0.0,0.4527587890625,-0.7957763671875,0.4027099609375,-297.0,152.0,-147.0,101713.0,-3.2270002365112305,0,0
1.5172958000039216,0.381439208984375,-0.456268310546875,0.30096435546875,-0.745452880859375,0.18310546875,-0.06103515625,0.3662109375,0.451171875,-0.799072265625,0.4033203125,-297.0,152.0,-147.0,101713.0,-3.2270002365112305,0,0
1.5173508000007132,0.381439208984375,-0.456268310546875,0.30096435546875,-0.745452880859375,0.18310546875,-0.06103515625,0.0,0.4503173828125,-0.7989501953125,0.4033203125,-297.0,152.0,-147.0,101713.0,-3.2270002365112305,0,0
1.5175408000068273,0.381439208984375,-0.456268310546875,0.30096435546875,-0.745452880859375,0.18310546875,-0.06103515625,0.0,0.4503173828125,-0.7989501953125,0.4033203125,-298.0,151.0,-147.0,101713.0,-3.2270002365112305,0,0
1.5176204000017606,0.3812255859375,-0.4561767578125,0.30108642578125,-0.74554443359375,0.06103515625,-0.06103515625,0.3662109375,0.4501953125,-0.7965087890625,0.4041748046875,-298.0,151.0,-147.0,101713.0,-3.2270002365112305,0,0
1.5745259000104852,0.381256103515625,-0.4561767578125,0.301116943359375,-0.74554443359375,0.06103515625,0.06103515625,-0.3662109375,0.4495849609375,-0.798583984375,0.403076171875,-298.0,151.0,-147.0,101713.0,-3.2270002365112305,0,0
1.5749163000000408,0.381256103515625,-0.4561767578125,0.301116943359375,-0.74554443359375,-0.06103515625,-0.3662109375,-0.42724609375,0.4481201171875,-0.7947998046875,0.4019775390625,-298.0,151.0,-147.0,101713.0,-3.2270002365112305,0,0
1.5749806000094395,0.381256103515625,-0.456146240234375,0.301116943359375,-0.74554443359375,-0.06103515625,-0.3662109375,-0.42724609375,0.4481201171875,-0.7947998046875,0.4019775390625,-298.0,151.0,-147.0,101713.0,-3.2260000705718994,0,0
1.5751195000048028,0.381256103515625,-0.4561767578125,0.301116943359375,-0.74554443359375,0.18310546875,-0.54931640625,-0.54931640625,0.4498291015625,-0.7969970703125,0.4044189453125,-298.0,151.0,-147.0,101713.0,-3.2260000705718994,0,0
1.57518300000811,0.381256103515625,-0.4561767578125,0.30108642578125,-0.74554443359375,0.18310546875,-0.42724609375,-0.06103515625,0.4521484375,-0.79345703125,0.402587890625,-298.0,151.0,-147.0,101713.0,-3.2260000705718994,0,0
1.575261899997713,0.381256103515625,-0.4561767578125,0.30108642578125,-0.74554443359375,-0.06103515625,0.1220703125,0.30517578125,0.4530029296875,-0.7958984375,0.402587890625,-298.0,151.0,-147.0,101713.0,-3.2260000705718994,0,0
1.575436900006025,0.381256103515625,-0.4561767578125,0.30108642578125,-0.74554443359375,-0.42724609375,-0.1220703125,0.06103515625,0.45166015625,-0.7955322265625,0.40380859375,-298.0,151.0,-147.0,101713.0,-3.2260000705718994,0,0
1.6418847000022652,0.381256103515625,-0.4561767578125,0.30108642578125,-0.74554443359375,-0.18310546875,0.0,0.54931640625,0.451904296875,-0.7994384765625,0.4029541015625,-298.0,151.0,-147.0,101713.0,-3.2260000705718994,0,0
1.6419507000100566,0.381256103515625,-0.456146240234375,0.30108642578125,-0.74554443359375,0.06103515625,-0.1220703125,0.30517578125,0.4498291015625,-0.7979736328125,0.4041748046875,-298.0,151.0,-147.0,101713.0,-3.2260000705718994,0,0
1.6420085999998264,0.381256103515625,-0.456146240234375,0.30108642578125,-0.74554443359375,0.244140625,0.0,0.18310546875,0.447998046875,-0.7974853515625,0.4033203125,-298.0,151.0,-147.0,101713.0,-3.2260000705718994,0,0
1.642061200007447,0.381256103515625,-0.456146240234375,0.30108642578125,-0.74554443359375,-0.18310546875,-0.3662109375,0.18310546875,0.44921875,-0.79833984375,0.401123046875,-297.0,151.0,-146.0,101713.0,-3.2260000705718994,0,0
1.6421141000028001,0.381256103515625,-0.456146240234375,0.30108642578125,-0.74554443359375,-0.3662109375,-0.6103515625,0.18310546875,0.451171875,-0.798583984375,0.403564453125,-297.0,151.0,-146.0,101713.0,-3.2260000705718994,0,0
1.6427815000060946,0.381256103515625,-0.456146240234375,0.30108642578125,-0.74554443359375,0.06103515625,-0.06103515625,0.1220703125,0.45068359375,-0.7974853515625,0.4056396484375,-297.0,151.0,-146.0,101713.0,-3.2260000705718994,0,0
1.6428416999988258,0.381256103515625,-0.456146240234375,0.301116943359375,-0.74554443359375,0.06103515625,-0.18310546875,-0.30517578125,0.447998046875,-0.7991943359375,0.402587890625,-297.0,151.0,-146.0,101713.0,-3.2260000705718994,0,0
1.6429413000005297,0.381256103515625,-0.456146240234375,0.301116943359375,-0.74554443359375,0.18310546875,-0.1220703125,-0.48828125,0.44677734375,-0.7967529296875,0.4049072265625,-297.0,151.0,-146.0,101713.0,-3.2260000705718994,0,0
1.6429962999973213,0.38128662109375,-0.456146240234375,0.301116943359375,-0.74554443359375,-0.06103515625,-0.244140625,-0.30517578125,0.4493408203125,-0.797607421875,0.403564453125,-297.0,151.0,-146.0,101713.0,-3.2260000705718994,0,0
1.6430496000102721,0.38128662109375,-0.456146240234375,0.301116943359375,-0.74554443359375,-0.06103515625,-0.244140625,-0.30517578125,0.4493408203125,-0.797607421875,0.403564453125,-297.0,151.0,-146.0,101713.0,-3.2260000705718994,0,0
1.6431030000094324,0.38128662109375,-0.456146240234375,0.301116943359375,-0.74554443359375,0.244140625,-0.244140625,-0.30517578125,0.449951171875,-0.796630859375,0.402099609375,-297.0,151.0,-146.0,101713.0,-3.2260000705718994,0,0
1.6999409999989439,0.381256103515625,-0.456146240234375,0.30108642578125,-0.745574951171875,0.0,-0.18310546875,0.1220703125,0.4508056640625,-0.7962646484375,0.4044189453125,-297.0,151.0,-146.0,101713.0,-3.2270002365112305,0,0
1.7000082000013208,0.381256103515625,-0.45611572265625,0.30108642578125,-0.745574951171875,-0.06103515625,-0.06103515625,0.3662109375,0.4500732421875,-0.79443359375,0.4036865234375,-297.0,151.0,-146.0,101713.0,-3.2270002365112305,0,0
1.7000694000016665,0.381256103515625,-0.45611572265625,0.30108642578125,-0.745574951171875,0.0,-0.06103515625,0.0,0.449951171875,-0.794189453125,0.4044189453125,-297.0,151.0,-146.0,101713.0,-3.2270002365112305,0,0
1.7001490999973612,0.381256103515625,-0.45611572265625,0.30108642578125,-0.745574951171875,0.1220703125,-0.1220703125,0.1220703125,0.450927734375,-0.795654296875,0.4033203125,-297.0,151.0,-146.0,101713.0,-3.2270002365112305,0,0
1.7017364000057569,0.38128662109375,-0.45611572265625,0.30108642578125,-0.745574951171875,-0.06103515625,-0.30517578125,0.06103515625,0.44921875,-0.7965087890625,0.404052734375,-297.0,151.0,-146.0,101713.0,-3.2270002365112305,0,0
1.7115587000007508,0.38128662109375,-0.45611572265625,0.30108642578125,-0.745574951171875,-0.06103515625,-0.30517578125,0.06103515625,0.44921875,-0.7965087890625,0.404052734375,-297.0,151.0,-146.0,101713.0,-3.2270002365112305,0,0
1.7116263000061736,0.38128662109375,-0.45611572265625,0.30108642578125,-0.745574951171875,0.06103515625,-0.244140625,-0.18310546875,0.4482421875,-0.796142578125,0.3997802734375,-297.0,151.0,-146.0,101713.0,-3.2270002365112305,0,0
1.7148489000101108,0.38128662109375,-0.45611572265625,0.30108642578125,-0.745574951171875,0.06103515625,-0.244140625,-0.18310546875,0.4482421875,-0.796142578125,0.3997802734375,-297.0,151.0,-146.0,101713.0,-3.2270002365112305,0,0
1.71492450000369,0.38128662109375,-0.45611572265625,0.301116943359375,-0.745574951171875,0.30517578125,-0.18310546875,-0.30517578125,0.4490966796875,-0.7982177734375,0.40087890625,-297.0,151.0,-146.0,101713.0,-3.2270002365112305,0,0
1.7149853000009898,0.38128662109375,-0.45611572265625,0.301116943359375,-0.745574951171875,-0.1220703125,-0.244140625,-0.06103515625,0.451171875,-0.796142578125,0.40087890625,-297.0,151.0,-146.0,101713.0,-3.2270002365112305,0,0
1.7150430000037886,0.38128662109375,-0.45611572265625,0.301116943359375,-0.745574951171875,0.0,-0.48828125,-0.06103515625,0.449462890625,-0.7957763671875,0.4014892578125,-297.0,151.0,-146.0,101713.0,-3.2270002365112305,0,0
1.7628642000054242,0.38128662109375,-0.45611572265625,0.301116943359375,-0.745574951171875,0.0,-0.48828125,-0.06103515625,0.449462890625,-0.7957763671875,0.4014892578125,-296.0,151.0,-146.0,101713.0,-3.2270002365112305,0,0
1.7629286000010325,0.38128662109375,-0.45611572265625,0.301116943359375,-0.745574951171875,0.1220703125,-0.1220703125,-0.1220703125,0.4520263671875,-0.796142578125,0.402587890625,-296.0,151.0,-146.0,101713.0,-3.2270002365112305,0,0
1.7629864000045927,0.38128662109375,-0.45611572265625,0.301116943359375,-0.745574951171875,0.30517578125,-0.06103515625,0.0,0.4486083984375,-0.7974853515625,0.404296875,-296.0,151.0,-146.0,101713.0,-3.2270002365112305,0,0
1.7630405000090832,0.38128662109375,-0.45611572265625,0.301116943359375,-0.745574951171875,-0.30517578125,0.0,0.06103515625,0.4520263671875,-0.797607421875,0.4019775390625,-296.0,151.0,-146.0,101713.0,-3.2270002365112305,0,0
1.7630942000105279,0.38128662109375,-0.45611572265625,0.301116943359375,-0.745574951171875,-0.30517578125,0.0,0.06103515625,0.4520263671875,-0.797607421875,0.4019775390625,-296.0,151.0,-146.0,101713.0,-3.2270002365112305,0,0
1.7631475000089267,0.38128662109375,-0.45611572265625,0.301116943359375,-0.745574951171875,0.1220703125,-0.18310546875,0.18310546875,0.450439453125,-0.7989501953125,0.4044189453125,-296.0,151.0,-146.0,101713.0,-3.2270002365112305,0,0
1.763203499998781,0.38128662109375,-0.45611572265625,0.301116943359375,-0.745574951171875,0.244140625,0.0,-0.06103515625,0.4493408203125,-0.796875,0.400634765625,-296.0,151.0,-146.0,101713.0,-3.2270002365112305,0,0
1.7648778000002494,0.38128662109375,-0.45611572265625,0.301116943359375,-0.745574951171875,0.42724609375,-0.1220703125,0.0,0.44970703125,-0.7960205078125,0.402099609375,-296.0,151.0,-146.0,101713.0,-3.2270002365112305,0,0
1.7649334000016097,0.38128662109375,-0.45611572265625,0.301116943359375,-0.745574951171875,0.244140625,-0.06103515625,-0.1220703125,0.450927734375,-0.7972412109375,0.4033203125,-296.0,151.0,-146.0,101713.0,-3.2270002365112305,0,0
1.7649887000006856,0.38128662109375,-0.456085205078125,0.301116943359375,-0.745574951171875,0.06103515625,-0.3662109375,-0.1220703125,0.4476318359375,-0.7962646484375,0.404296875,-296.0,151.0,-146.0,101713.0,-3.2270002365112305,0,0
1.765042099999846,0.38128662109375,-0.456085205078125,0.301116943359375,-0.745574951171875,0.06103515625,-0.3662109375,-0.1220703125,0.4476318359375,-0.7962646484375,0.404296875,-296.0,151.0,-146.0,101713.0,-3.2270002365112305,0,0
1.7650964000058593,0.38128662109375,-0.456085205078125,0.301116943359375,-0.745574951171875,-0.06103515625,-0.48828125,-0.30517578125,0.4508056640625,-0.79541015625,0.4014892578125,-296.0,151.0,-146.0,101713.0,-3.2270002365112305,0,0
1.765150100007304,0.38128662109375,-0.456085205078125,0.301116943359375,-0.745574951171875,0.18310546875,-0.06103515625,0.06103515625,0.4522705078125,-0.796142578125,0.401611328125,-296.0,151.0,-146.0,101713.0,-3.2270002365112305,0,0
1.8304838000040036,0.38128662109375,-0.456085205078125,0.301116943359375,-0.745574951171875,0.1220703125,-0.06103515625,0.0,0.4488525390625,-0.795166015625,0.4013671875,-296.0,151.0,-146.0,101713.0,-3.2270002365112305,0,0
1.8305462999996962,0.38128662109375,-0.456085205078125,0.301116943359375,-0.745574951171875,-0.06103515625,0.1220703125,-0.1220703125,0.44921875,-0.7972412109375,0.4017333984375,-296.0,151.0,-146.0,101713.0,-3.2270002365112305,0,0
1.8306079000030877,0.38128662109375,-0.456085205078125,0.301116943359375,-0.745574951171875,0.0,-0.244140625,0.1220703125,0.4508056640625,-0.79833984375,0.4024658203125,-296.0,151.0,-146.0,101713.0,-3.2270002365112305,0,0
1.8306632000021636,0.38128662109375,-0.456085205078125,0.301116943359375,-0.745574951171875,-0.06103515625,-0.244140625,0.18310546875,0.4501953125,-0.7967529296875,0.4019775390625,-296.0,151.0,-146.0,101713.0,-3.2270002365112305,0,0
1.8307179000112228,0.38128662109375,-0.456085205078125,0.301116943359375,-0.745574951171875,0.06103515625,-0.06103515625,0.06103515625,0.4508056640625,-0.7979736328125,0.402099609375,-296.0,151.0,-146.0,101713.0,-3.2270002365112305,0,0
1.8325804000050994,0.38128662109375,-0.456085205078125,0.301116943359375,-0.745574951171875,0.0,0.0,0.06103515625,0.4503173828125,-0.7982177734375,0.4034423828125,-296.0,151.0,-147.0,101713.0,-3.2270002365112305,0,0
1.8326470000029076,0.381195068359375,-0.4560546875,0.301177978515625,-0.74560546875,-0.1220703125,0.0,0.06103515625,0.4498291015625,-0.797119140625,0.402587890625,-296.0,151.0,-147.0,101713.0,-3.2270002365112305,0,0
1.8327788000024157,0.381195068359375,-0.4560546875,0.30120849609375,-0.74560546875,0.18310546875,0.1220703125,-0.18310546875,0.4490966796875,-0.796875,0.400146484375,-296.0,151.0,-147.0,101713.0,-3.2270002365112305,0,0
1.832853600004455,0.381195068359375,-0.4560546875,0.30120849609375,-0.74560546875,0.18310546875,0.1220703125,-0.18310546875,0.4490966796875,-0.796875,0.400146484375,-296.0,151.0,-147.0,101713.0,-3.2270002365112305,0,0
1.8329097000096226,0.381195068359375,-0.4560546875,0.30120849609375,-0.74560546875,0.244140625,-0.3662109375,0.06103515625,0.44873046875,-0.79443359375,0.4024658203125,-296.0,151.0,-147.0,101713.0,-3.2270002365112305,0,0
1.8329648000071757,0.381195068359375,-0.456024169921875,0.30120849609375,-0.74560546875,0.06103515625,-0.18310546875,-0.06103515625,0.44873046875,-0.79345703125,0.4034423828125,-296.0,151.0,-147.0,101713.0,-3.2270002365112305,0,0
1.8930177000002004,0.3812255859375,-0.456024169921875,0.30120849609375,-0.74560546875,0.06103515625,-0.06103515625,-0.244140625,0.4515380859375,-0.794921875,0.40380859375,-296.0,151.0,-147.0,101713.0,-3.2270002365112305,0,0
1.8930827000003774,0.3812255859375,-0.456024169921875,0.301177978515625,-0.74560546875,-0.1220703125,-0.1220703125,-0.1220703125,0.4488525390625,-0.794189453125,0.4022216796875,-296.0,151.0,-147.0,101713.0,-3.2270002365112305,0,0
1.893138800005545,0.3812255859375,-0.456024169921875,0.301177978515625,-0.74560546875,0.18310546875,0.0,0.1220703125,0.447509765625,-0.794921875,0.4033203125,-296.0,151.0,-147.0,101713.0,-3.2280001640319824,0,0
1.8931945000076666,0.3812255859375,-0.456024169921875,0.30120849609375,-0.74560546875,0.244140625,-0.1220703125,-0.18310546875,0.44775390625,-0.7947998046875,0.400390625,-296.0,151.0,-147.0,101713.0,-3.2280001640319824,0,0
1.893815600007656,0.3812255859375,-0.456024169921875,0.30120849609375,-0.74560546875,0.244140625,-0.1220703125,-0.18310546875,0.44775390625,-0.7947998046875,0.400390625,-296.0,151.0,-147.0,101713.0,-3.2280001640319824,0,0
1.9045240999985253,0.3812255859375,-0.456024169921875,0.30120849609375,-0.74560546875,0.0,-0.06103515625,0.06103515625,0.4501953125,-0.797119140625,0.4027099609375,-296.0,151.0,-147.0,101713.0,-3.2280001640319824,0,0
1.904590600010124,0.3812255859375,-0.456024169921875,0.30120849609375,-0.74560546875,0.0,0.06103515625,-0.1220703125,0.44873046875,-0.7950439453125,0.4031982421875,-296.0,151.0,-147.0,101713.0,-3.2280001640319824,0,0
1.9046473000053084,0.3812255859375,-0.456024169921875,0.30120849609375,-0.74560546875,0.0,-0.244140625,0.30517578125,0.449462890625,-0.7950439453125,0.4027099609375,-296.0,151.0,-147.0,101713.0,-3.2280001640319824,0,0
1.9047038999997312,0.3812255859375,-0.456024169921875,0.30120849609375,-0.74560546875,-0.18310546875,-0.18310546875,-0.1220703125,0.4505615234375,-0.796142578125,0.4031982421875,-296.0,151.0,-147.0,101713.0,-3.2280001640319824,0,0
1.90475940000033,0.3812255859375,-0.456024169921875,0.30120849609375,-0.74560546875,0.1220703125,-0.18310546875,-0.244140625,0.4505615234375,-0.7957763671875,0.4005126953125,-296.0,151.0,-147.0,101713.0,-3.2280001640319824,0,0
1.904812499997206,0.3812255859375,-0.456024169921875,0.30120849609375,-0.74560546875,0.244140625,-0.3662109375,0.0,0.449462890625,-0.796142578125,0.4019775390625,-296.0,151.0,-147.0,101713.0,-3.2280001640319824,0,0
1.9536718000017572,0.3812255859375,-0.456024169921875,0.30120849609375,-0.74560546875,0.06103515625,-0.30517578125,-0.48828125,0.4493408203125,-0.796142578125,0.40283203125,-296.0,151.0,-147.0,101713.0,-3.2280001640319824,0,0
1.9537361999973655,0.3812255859375,-0.456024169921875,0.30120849609375,-0.74560546875,0.06103515625,-0.30517578125,-0.48828125,0.4493408203125,-0.796142578125,0.40283203125,-296.0,151.0,-147.0,101713.0,-3.2280001640319824,0,0
1.953791000007186,0.381134033203125,-0.455963134765625,0.30126953125,-0.74566650390625,-0.06103515625,-0.3662109375,-0.06103515625,0.447998046875,-0.79443359375,0.4013671875,-296.0,151.0,-147.0,101713.0,-3.2280001640319824,0,0
1.953846500007785,0.381134033203125,-0.455963134765625,0.30126953125,-0.74566650390625,-0.06103515625,-0.3662109375,-0.06103515625,0.447998046875,-0.79443359375,0.4013671875,-296.0,151.0,-147.0,101713.0,-3.2280001640319824,0,0
1.9539011000015307,0.381103515625,-0.455963134765625,0.30126953125,-0.74566650390625,0.0,-0.1220703125,0.0,0.4488525390625,-0.79638671875,0.4024658203125,-296.0,151.0,-147.0,101713.0,-3.2280001640319824,0,0
1.9539546000014525,0.381134033203125,-0.455963134765625,0.30126953125,-0.74566650390625,0.30517578125,-0.06103515625,0.0,0.45166015625,-0.795654296875,0.4024658203125,-296.0,151.0,-147.0,101713.0,-3.2280001640319824,0,0
1.9540071000083117,0.381134033203125,-0.455963134765625,0.30126953125,-0.74566650390625,-0.1220703125,0.18310546875,-0.1220703125,0.4521484375,-0.7962646484375,0.40380859375,-296.0,151.0,-147.0,101713.0,-3.2280001640319824,0,0
1.9541167999996105,0.381134033203125,-0.455963134765625,0.30126953125,-0.74566650390625,-0.06103515625,-0.1220703125,0.06103515625,0.4481201171875,-0.7969970703125,0.404296875,-296.0,151.0,-147.0,101713.0,-3.2280001640319824,0,0
1.9541688000026625,0.381134033203125,-0.455963134765625,0.30126953125,-0.74566650390625,-0.06103515625,-0.06103515625,0.0,0.449462890625,-0.79736328125,0.4034423828125,-296.0,151.0,-147.0,101713.0,-3.2280001640319824,0,0
1.9542221000010613,0.381134033203125,-0.455963134765625,0.30126953125,-0.74566650390625,0.48828125,-0.06103515625,-0.1220703125,0.4495849609375,-0.797607421875,0.40283203125,-296.0,151.0,-147.0,101713.0,-3.2280001640319824,0,0
1.9542742000048747,0.381134033203125,-0.455963134765625,0.30126953125,-0.74566650390625,0.42724609375,-0.1220703125,-0.1220703125,0.4486083984375,-0.797607421875,0.40380859375,-296.0,151.0,-147.0,101713.0,-3.2280001640319824,0,0
1.9543264000094496,0.381134033203125,-0.455963134765625,0.30126953125,-0.74566650390625,0.42724609375,-0.1220703125,-0.1220703125,0.4486083984375,-0.797607421875,0.40380859375,-296.0,151.0,-147.0,101713.0,-3.2300002574920654,0,0
1.9543792000040412,0.381134033203125,-0.455963134765625,0.30126953125,-0.74566650390625,0.42724609375,-0.1220703125,-0.1220703125,0.4486083984375,-0.797607421875,0.40380859375,-296.0,151.0,-147.0,101713.0,-3.2300002574920654,0,0
2.0213110000040615,0.381134033203125,-0.4559326171875,0.30126953125,-0.74566650390625,0.0,0.0,-0.06103515625,0.448974609375,-0.7947998046875,0.4033203125,-296.0,151.0,-147.0,101713.0,-3.2300002574920654,0,0
2.02137319999747,0.381134033203125,-0.4559326171875,0.30126953125,-0.74566650390625,0.06103515625,0.06103515625,0.0,0.44970703125,-0.7947998046875,0.4031982421875,-296.0,151.0,-147.0,101713.0,-3.2300002574920654,0,0
2.0214278000057675,0.381134033203125,-0.4559326171875,0.30126953125,-0.74566650390625,0.0,-0.1220703125,-0.06103515625,0.4481201171875,-0.79736328125,0.4051513671875,-296.0,151.0,-147.0,101713.0,-3.2300002574920654,0,0
2.021482099997229,0.381134033203125,-0.4559326171875,0.30126953125,-0.74566650390625,-0.06103515625,-0.1220703125,0.06103515625,0.451171875,-0.7945556640625,0.4041748046875,-296.0,151.0,-147.0,101713.0,-3.2300002574920654,0,0
2.0215342000010423,0.381134033203125,-0.4559326171875,0.30126953125,-0.74566650390625,-0.1220703125,-0.244140625,0.1220703125,0.4503173828125,-0.79638671875,0.4033203125,-296.0,151.0,-147.0,101713.0,-3.2300002574920654,0,0
2.0216250000084983,0.38116455078125,-0.4559326171875,0.301300048828125,-0.74566650390625,0.0,-0.1220703125,-0.06103515625,0.4490966796875,-0.7979736328125,0.401123046875,-296.0,151.0,-147.0,101713.0,-3.2300002574920654,0,0
2.02167709999776,0.38116455078125,-0.4559326171875,0.301300048828125,-0.74566650390625,0.06103515625,0.1220703125,-0.18310546875,0.446533203125,-0.798095703125,0.4005126953125,-296.0,151.0,-147.0,101713.0,-3.2300002574920654,0,0
2.021730300009949,0.38116455078125,-0.4559326171875,0.301300048828125,-0.74566650390625,0.06103515625,0.1220703125,-0.18310546875,0.446533203125,-0.798095703125,0.4005126953125,-296.0,151.0,-147.0,101713.0,-3.2300002574920654,0,0
2.0217837000091095,0.380950927734375,-0.455841064453125,0.301422119140625,-0.74578857421875,-0.18310546875,-0.244140625,-0.30517578125,0.44775390625,-0.7950439453125,0.40283203125,-295.0,151.0,-147.0,101713.0,-3.2300002574920654,0,0
2.0218388000066625,0.380950927734375,-0.455841064453125,0.301422119140625,-0.74578857421875,0.06103515625,-0.18310546875,-0.30517578125,0.4505615234375,-0.795166015625,0.4010009765625,-295.0,151.0,-147.0,101713.0,-3.2300002574920654,0,0
2.021892200005823,0.380950927734375,-0.455841064453125,0.301422119140625,-0.74578857421875,0.30517578125,-0.244140625,0.06103515625,0.4501953125,-0.794921875,0.4044189453125,-295.0,151.0,-147.0,101713.0,-3.2300002574920654,0,0
2.084478900011163,0.380950927734375,-0.455841064453125,0.301422119140625,-0.74578857421875,-0.06103515625,-0.18310546875,0.18310546875,0.44921875,-0.796142578125,0.40283203125,-295.0,151.0,-147.0,101713.0,-3.2300002574920654,0,0
2.0845403999992413,0.380950927734375,-0.455841064453125,0.301422119140625,-0.74578857421875,-0.244140625,0.0,0.1220703125,0.448486328125,-0.7958984375,0.4010009765625,-295.0,151.0,-147.0,101713.0,-3.2300002574920654,0,0
2.084597200009739,0.380950927734375,-0.455841064453125,0.301422119140625,-0.745758056640625,0.30517578125,-0.18310546875,-0.06103515625,0.44873046875,-0.7967529296875,0.39990234375,-295.0,151.0,-147.0,101713.0,-3.2300002574920654,0,0
2.084651199998916,0.380950927734375,-0.455841064453125,0.301422119140625,-0.745758056640625,0.30517578125,-0.18310546875,-0.06103515625,0.44873046875,-0.7967529296875,0.39990234375,-295.0,151.0,-147.0,101713.0,-3.2300002574920654,0,0
2.0847059000079753,0.380950927734375,-0.455810546875,0.301422119140625,-0.74578857421875,0.1220703125,-0.244140625,-0.18310546875,0.4486083984375,-0.7979736328125,0.408935546875,-295.0,151.0,-147.0,101713.0,-3.2270002365112305,0,0
2.0851299000059953,0.380950927734375,-0.455810546875,0.3013916015625,-0.74578857421875,0.30517578125,0.0,0.244140625,0.451416015625,-0.796142578125,0.408203125,-295.0,151.0,-147.0,101713.0,-3.2270002365112305,0,0
2.085186900003464,0.3809814453125,-0.455810546875,0.3013916015625,-0.74578857421875,0.0,-0.06103515625,0.1220703125,0.449951171875,-0.798828125,0.405517578125,-295.0,151.0,-147.0,101713.0,-3.2270002365112305,0,0
2.0852396999980556,0.380950927734375,-0.455810546875,0.3013916015625,-0.74578857421875,-0.06103515625,0.06103515625,-0.18310546875,0.454345703125,-0.797607421875,0.40283203125,-295.0,151.0,-147.0,101713.0,-3.2270002365112305,0,0
2.0852922000049148,0.380950927734375,-0.455810546875,0.3013916015625,-0.74578857421875,-0.18310546875,-0.3662109375,0.06103515625,0.45166015625,-0.7991943359375,0.40234375,-295.0,151.0,-147.0,101713.0,-3.2270002365112305,0,0
2.0853465999971377,0.380950927734375,-0.455810546875,0.301422119140625,-0.74578857421875,0.0,-0.1220703125,-0.244140625,0.449462890625,-0.799072265625,0.400146484375,-295.0,151.0,-147.0,101713.0,-3.2270002365112305,0,0
2.085399100003997,0.380950927734375,-0.455841064453125,0.301422119140625,-0.74578857421875,0.42724609375,-0.30517578125,0.06103515625,0.4508056640625,-0.7965087890625,0.4000244140625,-295.0,151.0,-147.0,101713.0,-3.2270002365112305,0,0
2.149524000007659,0.380950927734375,-0.455841064453125,0.301422119140625,-0.74578857421875,0.1220703125,-0.18310546875,-0.18310546875,0.451416015625,-0.7978515625,0.4022216796875,-295.0,151.0,-147.0,101713.0,-3.2270002365112305,0,0
2.1495913000107976,0.380950927734375,-0.455841064453125,0.301422119140625,-0.74578857421875,0.30517578125,-0.1220703125,-0.244140625,0.4488525390625,-0.794921875,0.404052734375,-295.0,151.0,-147.0,101713.0,-3.2270002365112305,0,0
2.1496452999999747,0.380950927734375,-0.455841064453125,0.301422119140625,-0.74578857421875,0.30517578125,-0.1220703125,-0.244140625,0.4488525390625,-0.794921875,0.404052734375,-295.0,151.0,-147.0,101713.0,-3.2270002365112305,0,0
2.1496993000037037,0.380950927734375,-0.455810546875,0.3013916015625,-0.74578857421875,0.1220703125,-0.244140625,-0.30517578125,0.448486328125,-0.794189453125,0.4041748046875,-295.0,151.0,-147.0,101713.0,-3.2270002365112305,0,0
2.1497532000066712,0.380767822265625,-0.455718994140625,0.301513671875,-0.745880126953125,0.30517578125,0.1220703125,-0.1220703125,0.4500732421875,-0.79736328125,0.403564453125,-295.0,151.0,-148.0,101713.0,-3.2270002365112305,0,0
2.149807599998894,0.380767822265625,-0.45574951171875,0.301513671875,-0.745880126953125,0.0,-0.18310546875,-0.18310546875,0.451416015625,-0.796142578125,0.4029541015625,-295.0,151.0,-148.0,101713.0,-3.2270002365112305,0,0
2.1499944000097457,0.380767822265625,-0.45574951171875,0.301513671875,-0.745880126953125,0.1220703125,-0.30517578125,-0.06103515625,0.451416015625,-0.7960205078125,0.4027099609375,-295.0,151.0,-148.0,101713.0,-3.2270002365112305,0,0
2.1690783000085503,0.3807373046875,-0.45574951171875,0.301513671875,-0.745880126953125,0.1220703125,-0.18310546875,-0.1220703125,0.44970703125,-0.7969970703125,0.4019775390625,-295.0,151.0,-148.0,101713.0,-3.2270002365112305,0,0
2.1691399999981513,0.3807373046875,-0.45574951171875,0.301513671875,-0.745880126953125,-0.06103515625,-0.06103515625,-0.06103515625,0.4501953125,-0.795654296875,0.402587890625,-295.0,151.0,-148.0,101713.0,-3.2270002365112305,0,0
2.1691969000094105,0.3807373046875,-0.45574951171875,0.301513671875,-0.745880126953125,0.0,-0.244140625,-0.18310546875,0.448974609375,-0.79736328125,0.4012451171875,-295.0,151.0,-148.0,101713.0,-3.2270002365112305,0,0
2.1692528999992646,0.3807373046875,-0.45574951171875,0.301513671875,-0.745880126953125,0.1220703125,-0.1220703125,0.1220703125,0.450927734375,-0.7958984375,0.4012451171875,-295.0,151.0,-148.0,101713.0,-3.2270002365112305,0,0
2.169308299999102,0.3807373046875,-0.45574951171875,0.301513671875,-0.745880126953125,0.1220703125,-0.1220703125,0.1220703125,0.450927734375,-0.7958984375,0.4012451171875,-295.0,151.0,-148.0,101713.0,-3.2270002365112305,0,0
2.16936140001053,0.3807373046875,-0.45574951171875,0.301513671875,-0.745880126953125,0.244140625,-0.06103515625,0.1220703125,0.451416015625,-0.7960205078125,0.4049072265625,-295.0,151.0,-148.0,101713.0,-3.2270002365112305,0,0
2.216757200003485,0.3807373046875,-0.45574951171875,0.301544189453125,-0.745880126953125,0.1220703125,-0.1220703125,0.0,0.447998046875,-0.7962646484375,0.40380859375,-295.0,151.0,-148.0,101713.0,-3.2320001125335693,0,0
2.2168335000023944,0.380767822265625,-0.45574951171875,0.301544189453125,-0.745880126953125,0.1220703125,0.1220703125,0.0,0.448486328125,-0.79638671875,0.4029541015625,-295.0,151.0,-148.0,101713.0,-3.2320001125335693,0,0
2.217290700005833,0.380767822265625,-0.455718994140625,0.301544189453125,-0.745880126953125,0.06103515625,-0.06103515625,-0.06103515625,0.4481201171875,-0.7974853515625,0.4046630859375,-295.0,151.0,-148.0,101713.0,-3.2320001125335693,0,0
2.2173499000055017,0.380767822265625,-0.455718994140625,0.301544189453125,-0.745880126953125,0.06103515625,-0.06103515625,-0.06103515625,0.4481201171875,-0.7974853515625,0.4046630859375,-295.0,151.0,-148.0,101713.0,-3.2320001125335693,0,0
2.2174047000007704,0.380767822265625,-0.455718994140625,0.301544189453125,-0.745880126953125,-0.06103515625,-0.18310546875,-0.1220703125,0.447998046875,-0.795654296875,0.4027099609375,-295.0,151.0,-148.0,101713.0,-3.2320001125335693,0,0
2.217459899999085,0.380767822265625,-0.455718994140625,0.301544189453125,-0.745880126953125,0.18310546875,-0.18310546875,-0.1220703125,0.4498291015625,-0.796142578125,0.4031982421875,-295.0,151.0,-148.0,101713.0,-3.2320001125335693,0,0
2.2175156000012066,0.380767822265625,-0.455718994140625,0.301544189453125,-0.745880126953125,0.1220703125,0.0,-0.244140625,0.4510498046875,-0.799072265625,0.403564453125,-295.0,151.0,-148.0,101713.0,-3.2320001125335693,0,0
2.2175704000110272,0.38055419921875,-0.45562744140625,0.301666259765625,-0.7459716796875,0.244140625,0.0,0.06103515625,0.449462890625,-0.7945556640625,0.4017333984375,-295.0,151.0,-148.0,101713.0,-3.2320001125335693,0,0
2.2730788000044413,0.38055419921875,-0.45562744140625,0.301666259765625,-0.746002197265625,0.30517578125,0.06103515625,-0.1220703125,0.44921875,-0.794677734375,0.4041748046875,-295.0,151.0,-148.0,101713.0,-3.2320001125335693,0,0
2.273144799997681,0.38055419921875,-0.45562744140625,0.301666259765625,-0.746002197265625,0.1220703125,-0.06103515625,0.0,0.45068359375,-0.7943115234375,0.4029541015625,-295.0,151.0,-148.0,101713.0,-3.2320001125335693,0,0
2.2732390000019222,0.38055419921875,-0.45562744140625,0.301666259765625,-0.746002197265625,0.1220703125,-0.06103515625,0.0,0.45068359375,-0.7943115234375,0.4029541015625,-295.0,151.0,-148.0,101713.0,-3.2320001125335693,0,0
2.2732963000016753,0.38055419921875,-0.45562744140625,0.301666259765625,-0.746002197265625,0.0,-0.1220703125,0.244140625,0.4495849609375,-0.798828125,0.4033203125,-295.0,151.0,-148.0,101713.0,-3.2320001125335693,0,0
2.2783456000033766,0.380584716796875,-0.45562744140625,0.301666259765625,-0.746002197265625,0.1220703125,-0.244140625,0.18310546875,0.44970703125,-0.7979736328125,0.403564453125,-295.0,151.0,-148.0,101713.0,-3.2320001125335693,0,0
2.2785212000017054,0.38055419921875,-0.45562744140625,0.3016357421875,-0.746002197265625,0.0,0.1220703125,0.1220703125,0.4525146484375,-0.796142578125,0.4031982421875,-295.0,151.0,-148.0,101713.0,-3.2320001125335693,0,0
2.2785864000034053,0.38055419921875,-0.45562744140625,0.301666259765625,-0.746002197265625,-0.06103515625,-0.18310546875,0.18310546875,0.4512939453125,-0.7989501953125,0.40283203125,-295.0,151.0,-148.0,101713.0,-3.2290000915527344,0,0
2.2786684000020614,0.380584716796875,-0.45562744140625,0.301666259765625,-0.746002197265625,0.18310546875,-0.1220703125,-0.18310546875,0.4482421875,-0.798828125,0.4014892578125,-295.0,151.0,-148.0,101713.0,-3.2290000915527344,0,0
2.2787259000033373,0.380584716796875,-0.45562744140625,0.301666259765625,-0.746002197265625,0.30517578125,-0.18310546875,-0.244140625,0.449951171875,-0.796875,0.4039306640625,-295.0,151.0,-148.0,101713.0,-3.2290000915527344,0,0
2.278799000006984,0.380584716796875,-0.45562744140625,0.301666259765625,-0.746002197265625,-0.1220703125,-0.18310546875,-0.30517578125,0.4488525390625,-0.7967529296875,0.40234375,-295.0,151.0,-148.0,101713.0,-3.2290000915527344,0,0
2.2788557000021683,0.380584716796875,-0.45562744140625,0.301666259765625,-0.746002197265625,0.3662109375,-0.1220703125,-0.244140625,0.4488525390625,-0.7950439453125,0.404052734375,-295.0,151.0,-148.0,101713.0,-3.2290000915527344,0,0
2.2789098000066588,0.380584716796875,-0.45562744140625,0.301666259765625,-0.746002197265625,0.06103515625,-0.244140625,-0.3662109375,0.451416015625,-0.79833984375,0.4039306640625,-295.0,151.0,-148.0,101713.0,-3.2290000915527344,0,0
2.339477400004398,0.380584716796875,-0.45562744140625,0.301666259765625,-0.746002197265625,0.06103515625,-0.244140625,-0.3662109375,0.451416015625,-0.79833984375,0.4039306640625,-295.0,151.0,-148.0,101713.0,-3.2290000915527344,0,0
2.3395445000060135,0.380584716796875,-0.455596923828125,0.301666259765625,-0.746002197265625,0.30517578125,0.0,-0.06103515625,0.4498291015625,-0.79736328125,0.403076171875,-295.0,151.0,-148.0,101713.0,-3.2290000915527344,0,0
2.3396026999980677,0.380584716796875,-0.45562744140625,0.301666259765625,-0.746002197265625,0.1220703125,-0.1220703125,-0.06103515625,0.45263671875,-0.7967529296875,0.40234375,-295.0,151.0,-148.0,101713.0,-3.2290000915527344,0,0
2.3396681000012904,0.380584716796875,-0.455596923828125,0.301666259765625,-0.746002197265625,-0.06103515625,0.0,0.06103515625,0.4483642578125,-0.7965087890625,0.4024658203125,-295.0,151.0,-148.0,101713.0,-3.2290000915527344,0,0
2.339728400009335,0.380584716796875,-0.455596923828125,0.301666259765625,-0.746002197265625,-0.06103515625,0.0,0.06103515625,0.4483642578125,-0.7965087890625,0.4024658203125,-295.0,151.0,-148.0,101713.0,-3.2290000915527344,0,0
2.3397844999999506,0.380584716796875,-0.45562744140625,0.301666259765625,-0.746002197265625,0.1220703125,-0.1220703125,0.06103515625,0.452392578125,-0.7960205078125,0.401611328125,-295.0,151.0,-148.0,101713.0,-3.2290000915527344,0,0
2.339873999997508,0.38037109375,-0.455535888671875,0.301788330078125,-0.746124267578125,0.18310546875,0.0,0.06103515625,0.44970703125,-0.7978515625,0.40478515625,-295.0,151.0,-148.0,101713.0,-3.2290000915527344,0,0
2.3399319000018295,0.38037109375,-0.455535888671875,0.301788330078125,-0.746124267578125,0.0,-0.1220703125,0.06103515625,0.4500732421875,-0.796630859375,0.4031982421875,-295.0,151.0,-148.0,101713.0,-3.2290000915527344,0,0
2.3399892000015825,0.38037109375,-0.455535888671875,0.301788330078125,-0.74609375,0.18310546875,0.06103515625,0.06103515625,0.44970703125,-0.7965087890625,0.4017333984375,-295.0,151.0,-148.0,101713.0,-3.2290000915527344,0,0
2.3400499999988824,0.38037109375,-0.455535888671875,0.301788330078125,-0.74609375,0.18310546875,0.06103515625,0.06103515625,0.44970703125,-0.7965087890625,0.4017333984375,-295.0,151.0,-148.0,101713.0,-3.2290000915527344,0,0
2.3401087000092957,0.380401611328125,-0.45550537109375,0.301788330078125,-0.746124267578125,-0.06103515625,-0.30517578125,-0.1220703125,0.4482421875,-0.796630859375,0.40478515625,-295.0,151.0,-148.0,101713.0,-3.2290000915527344,0,0
2.34016910000355,0.380401611328125,-0.45550537109375,0.301788330078125,-0.746124267578125,0.1220703125,-0.67138671875,-0.06103515625,0.447509765625,-0.796630859375,0.4046630859375,-295.0,151.0,-148.0,101713.0,-3.2290000915527344,0,0
2.4046623000031104,0.380401611328125,-0.45550537109375,0.301788330078125,-0.746124267578125,0.244140625,-0.06103515625,0.0,0.4486083984375,-0.7978515625,0.4036865234375,-295.0,151.0,-148.0,101713.0,-3.2310001850128174,0,0
2.4047286999993958,0.380401611328125,-0.45550537109375,0.301788330078125,-0.746124267578125,-0.1220703125,-0.18310546875,-0.1220703125,0.4490966796875,-0.796875,0.402099609375,-295.0,151.0,-148.0,101713.0,-3.2310001850128174,0,0
2.4047864000021946,0.380401611328125,-0.45550537109375,0.301788330078125,-0.746124267578125,0.1220703125,0.1220703125,-0.06103515625,0.4505615234375,-0.7967529296875,0.4029541015625,-295.0,151.0,-148.0,101713.0,-3.2310001850128174,0,0
2.404844500008039,0.380401611328125,-0.45550537109375,0.301788330078125,-0.746124267578125,0.06103515625,-0.18310546875,0.0,0.4515380859375,-0.796142578125,0.4024658203125,-295.0,151.0,-148.0,101713.0,-3.2310001850128174,0,0
2.4048999000078766,0.380401611328125,-0.45550537109375,0.301788330078125,-0.746124267578125,0.06103515625,-0.18310546875,0.0,0.4515380859375,-0.796142578125,0.4024658203125,-295.0,151.0,-148.0,101713.0,-3.2310001850128174,0,0
2.405311399998027,0.380401611328125,-0.45550537109375,0.301788330078125,-0.746124267578125,0.3662109375,-0.18310546875,0.0,0.45068359375,-0.7977294921875,0.4031982421875,-295.0,151.0,-148.0,101713.0,-3.2310001850128174,0,0
2.4053737000067485,0.380401611328125,-0.45550537109375,0.301788330078125,-0.746124267578125,0.0,-0.18310546875,0.0,0.449462890625,-0.7987060546875,0.402587890625,-295.0,151.0,-148.0,101713.0,-3.2310001850128174,0,0
2.4054306000034558,0.380401611328125,-0.45550537109375,0.301788330078125,-0.746124267578125,0.0,-0.18310546875,-0.1220703125,0.448486328125,-0.7952880859375,0.4010009765625,-295.0,151.0,-148.0,101713.0,-3.2310001850128174,0,0
2.4054873999994015,0.380401611328125,-0.45550537109375,0.301788330078125,-0.746124267578125,0.1220703125,-0.06103515625,-0.1220703125,0.45068359375,-0.7957763671875,0.4000244140625,-295.0,151.0,-148.0,101713.0,-3.2310001850128174,0,0
2.4055478000082076,0.380401611328125,-0.45550537109375,0.301788330078125,-0.746124267578125,-0.91552734375,-0.244140625,-0.30517578125,0.4493408203125,-0.796142578125,0.401123046875,-295.0,151.0,-148.0,101713.0,-3.2310001850128174,0,0
2.4056053000094835,0.380401611328125,-0.45550537109375,0.301788330078125,-0.74609375,-0.732421875,-0.3662109375,0.06103515625,0.4500732421875,-0.796875,0.400634765625,-295.0,151.0,-148.0,101713.0,-3.2310001850128174,0,0
2.4056608000100823,0.380401611328125,-0.45550537109375,0.301788330078125,-0.74609375,0.06103515625,-0.06103515625,0.0,0.4490966796875,-0.7962646484375,0.402099609375,-295.0,151.0,-148.0,101713.0,-3.2310001850128174,0,0
2.4635047000047052,0.38018798828125,-0.455413818359375,0.30194091796875,-0.7462158203125,0.3662109375,-0.1220703125,0.06103515625,0.44921875,-0.7972412109375,0.40185546875,-295.0,151.0,-148.0,101713.0,-3.2310001850128174,0,0
2.463569900006405,0.38018798828125,-0.455413818359375,0.30194091796875,-0.7462158203125,0.06103515625,-0.1220703125,-0.06103515625,0.450927734375,-0.7965087890625,0.4029541015625,-295.0,151.0,-148.0,101713.0,-3.2310001850128174,0,0
2.463629799996852,0.38018798828125,-0.455413818359375,0.301910400390625,-0.7462158203125,-0.18310546875,-0.06103515625,0.18310546875,0.450927734375,-0.7958984375,0.4051513671875,-295.0,151.0,-148.0,101713.0,-3.2310001850128174,0,0
2.463687800001935,0.38018798828125,-0.455413818359375,0.301910400390625,-0.7462158203125,-0.06103515625,-0.1220703125,-0.06103515625,0.4490966796875,-0.7965087890625,0.4031982421875,-295.0,151.0,-148.0,101713.0,-3.2310001850128174,0,0
2.463761400009389,0.38018798828125,-0.455413818359375,0.301910400390625,-0.7462158203125,-0.18310546875,-0.3662109375,-0.06103515625,0.45166015625,-0.7984619140625,0.403076171875,-295.0,151.0,-148.0,101713.0,-3.2310001850128174,0,0
2.463818700009142,0.38018798828125,-0.455413818359375,0.301910400390625,-0.7462158203125,0.06103515625,-0.30517578125,-0.06103515625,0.450927734375,-0.797607421875,0.403564453125,-295.0,151.0,-148.0,101713.0,-3.2310001850128174,0,0
2.4638759000081336,0.38018798828125,-0.455413818359375,0.301910400390625,-0.7462158203125,-0.18310546875,-0.18310546875,0.0,0.44970703125,-0.79638671875,0.40234375,-295.0,151.0,-148.0,101713.0,-3.2310001850128174,0,0
2.463932600003318,0.38018798828125,-0.455413818359375,0.301910400390625,-0.7462158203125,0.1220703125,-0.18310546875,-0.3662109375,0.4495849609375,-0.798828125,0.4053955078125,-295.0,151.0,-148.0,101713.0,-3.2310001850128174,0,0
2.463989700001548,0.380218505859375,-0.455413818359375,0.301910400390625,-0.7462158203125,0.06103515625,-0.1220703125,-0.1220703125,0.450439453125,-0.79541015625,0.40478515625,-295.0,151.0,-148.0,101713.0,-3.2310001850128174,0,0
2.4640482000104384,0.380218505859375,-0.455413818359375,0.301910400390625,-0.7462158203125,0.06103515625,-0.1220703125,-0.1220703125,0.450439453125,-0.79541015625,0.40478515625,-295.0,151.0,-148.0,101713.0,-3.2310001850128174,0,0
2.464105999999447,0.38018798828125,-0.455413818359375,0.301910400390625,-0.7462158203125,-0.1220703125,-0.30517578125,-0.06103515625,0.45166015625,-0.7955322265625,0.4036865234375,-295.0,151.0,-148.0,101713.0,-3.2310001850128174,0,0
2.533189699999639,0.38018798828125,-0.455413818359375,0.301910400390625,-0.7462158203125,-0.1220703125,-0.30517578125,-0.06103515625,0.45166015625,-0.7955322265625,0.4036865234375,-295.0,151.0,-148.0,101713.0,-3.2310001850128174,0,0
2.5332558000081917,0.380218505859375,-0.45538330078125,0.301910400390625,-0.7462158203125,0.18310546875,-0.244140625,-0.1220703125,0.4482421875,-0.7962646484375,0.4029541015625,-295.0,151.0,-148.0,101713.0,-3.2310001850128174,0,0
2.537954200000968,0.380218505859375,-0.45538330078125,0.301910400390625,-0.7462158203125,-0.06103515625,-0.1220703125,-0.18310546875,0.4486083984375,-0.7965087890625,0.4033203125,-295.0,151.0,-148.0,101713.0,-3.2310001850128174,0,0
2.5380280000099447,0.380218505859375,-0.45538330078125,0.301910400390625,-0.7462158203125,0.06103515625,0.0,-0.18310546875,0.4495849609375,-0.7972412109375,0.4041748046875,-295.0,151.0,-148.0,101713.0,-3.2310001850128174,0,0
2.5380895999987843,0.380218505859375,-0.45538330078125,0.301910400390625,-0.7462158203125,0.06103515625,-0.244140625,-0.06103515625,0.4490966796875,-0.79833984375,0.4031982421875,-295.0,151.0,-148.0,101713.0,-3.2310001850128174,0,0
2.5381486999976914,0.380218505859375,-0.45538330078125,0.301910400390625,-0.7462158203125,-0.30517578125,0.0,0.0,0.4508056640625,-0.799560546875,0.4010009765625,-295.0,151.0,-148.0,101713.0,-3.2310001850128174,0,0
2.5382283000071766,0.380218505859375,-0.45538330078125,0.301910400390625,-0.7462158203125,-0.30517578125,0.0,0.0,0.4508056640625,-0.799560546875,0.4010009765625,-296.0,150.0,-148.0,101713.0,-3.2280001640319824,0,0
2.5382873000053223,0.380096435546875,-0.455352783203125,0.301971435546875,-0.74627685546875,0.244140625,-0.06103515625,0.0,0.4512939453125,-0.7978515625,0.403076171875,-296.0,150.0,-148.0,101713.0,-3.2280001640319824,0,0
2.5383448000065982,0.380096435546875,-0.455352783203125,0.301971435546875,-0.74627685546875,0.244140625,-0.06103515625,0.0,0.4512939453125,-0.7978515625,0.403076171875,-296.0,150.0,-148.0,101713.0,-3.2280001640319824,0,0
2.5384019000048283,0.380126953125,-0.455352783203125,0.301971435546875,-0.74627685546875,0.18310546875,-0.18310546875,0.1220703125,0.451416015625,-0.79931640625,0.402587890625,-296.0,150.0,-148.0,101713.0,-3.2280001640319824,0,0
2.538458700000774,0.380096435546875,-0.455352783203125,0.301971435546875,-0.74627685546875,0.1220703125,-0.1220703125,-0.1220703125,0.4515380859375,-0.797119140625,0.4049072265625,-296.0,150.0,-148.0,101713.0,-3.2280001640319824,0,0
2.538516400003573,0.380096435546875,-0.455352783203125,0.301971435546875,-0.74627685546875,0.244140625,0.0,0.1220703125,0.45166015625,-0.79833984375,0.404541015625,-296.0,150.0,-148.0,101713.0,-3.2280001640319824,0,0
2.599450000008801,0.380096435546875,-0.455352783203125,0.301971435546875,-0.74627685546875,-0.18310546875,0.0,-0.06103515625,0.45068359375,-0.79541015625,0.403564453125,-296.0,150.0,-148.0,101713.0,-3.2280001640319824,0,0
2.5995155999989947,0.380096435546875,-0.455352783203125,0.301971435546875,-0.74627685546875,-0.244140625,-0.30517578125,-0.06103515625,0.4500732421875,-0.798095703125,0.4031982421875,-296.0,150.0,-148.0,101713.0,-3.2280001640319824,0,0
2.5995707000110997,0.380096435546875,-0.455352783203125,0.301971435546875,-0.74627685546875,-0.06103515625,0.0,0.06103515625,0.45068359375,-0.79931640625,0.4031982421875,-296.0,150.0,-148.0,101713.0,-3.2280001640319824,0,0
2.599624299997231,0.380096435546875,-0.455352783203125,0.301971435546875,-0.74627685546875,-0.06103515625,0.0,0.06103515625,0.45068359375,-0.79931640625,0.4031982421875,-296.0,150.0,-148.0,101713.0,-3.2280001640319824,0,0
2.599678099999437,0.380096435546875,-0.455352783203125,0.301971435546875,-0.74627685546875,0.0,-0.1220703125,-0.3662109375,0.4488525390625,-0.7974853515625,0.402587890625,-296.0,150.0,-148.0,101713.0,-3.2280001640319824,0,0
2.600237999999081,0.380096435546875,-0.455352783203125,0.301971435546875,-0.74627685546875,0.244140625,-0.1220703125,-0.18310546875,0.4495849609375,-0.79541015625,0.400390625,-296.0,150.0,-148.0,101713.0,-3.2280001640319824,0,0
2.6002906000067014,0.380096435546875,-0.455352783203125,0.301971435546875,-0.74627685546875,0.06103515625,0.0,-0.1220703125,0.451171875,-0.795654296875,0.40234375,-296.0,150.0,-148.0,101713.0,-3.2280001640319824,0,0
2.600566799999797,0.380096435546875,-0.455352783203125,0.301971435546875,-0.74627685546875,0.1220703125,-0.06103515625,-0.1220703125,0.4498291015625,-0.796142578125,0.40283203125,-296.0,150.0,-148.0,101713.0,-3.2280001640319824,0,0
2.6006214000080945,0.380096435546875,-0.455352783203125,0.301971435546875,-0.74627685546875,0.1220703125,-0.1220703125,0.0,0.4503173828125,-0.796630859375,0.402587890625,-296.0,150.0,-148.0,101713.0,-3.2280001640319824,0,0
2.6006749000080163,0.380096435546875,-0.455352783203125,0.301971435546875,-0.74627685546875,-0.18310546875,-0.30517578125,-0.1220703125,0.45166015625,-0.79638671875,0.4027099609375,-296.0,150.0,-148.0,101713.0,-3.2280001640319824,0,0
2.600728200006415,0.380096435546875,-0.455352783203125,0.301971435546875,-0.74627685546875,0.30517578125,-0.1220703125,-0.06103515625,0.4520263671875,-0.796630859375,0.4027099609375,-296.0,150.0,-148.0,101713.0,-3.2280001640319824,0,0
2.6007801000087056,0.380096435546875,-0.455352783203125,0.301971435546875,-0.74627685546875,0.1220703125,-0.06103515625,-0.1220703125,0.44921875,-0.7928466796875,0.4019775390625,-296.0,150.0,-148.0,101713.0,-3.2280001640319824,0,0
2.654496500006644,0.379913330078125,-0.45526123046875,0.302093505859375,-0.74639892578125,0.1220703125,-0.06103515625,-0.06103515625,0.4505615234375,-0.797119140625,0.4046630859375,-296.0,150.0,-149.0,101713.0,-3.2290000915527344,0,0
2.654563700009021,0.379913330078125,-0.45526123046875,0.302093505859375,-0.74639892578125,0.1220703125,0.18310546875,-0.06103515625,0.44970703125,-0.796875,0.403564453125,-296.0,150.0,-149.0,101713.0,-3.2290000915527344,0,0
2.6546240000025136,0.379913330078125,-0.45526123046875,0.302093505859375,-0.74639892578125,-0.1220703125,-0.06103515625,0.06103515625,0.451171875,-0.79736328125,0.4031982421875,-296.0,150.0,-149.0,101713.0,-3.2290000915527344,0,0
2.665904200010118,0.379913330078125,-0.45526123046875,0.302093505859375,-0.74639892578125,0.06103515625,-0.18310546875,-0.3662109375,0.4500732421875,-0.7978515625,0.4033203125,-296.0,150.0,-149.0,101713.0,-3.2290000915527344,0,0
2.6659799000044586,0.379913330078125,-0.45526123046875,0.302093505859375,-0.74639892578125,0.244140625,-0.06103515625,0.244140625,0.45068359375,-0.798583984375,0.404541015625,-296.0,150.0,-149.0,101713.0,-3.2290000915527344,0,0
2.6666955000109738,0.379913330078125,-0.45526123046875,0.302093505859375,-0.74639892578125,0.0,-0.1220703125,-0.3662109375,0.4495849609375,-0.7987060546875,0.4039306640625,-296.0,150.0,-149.0,101713.0,-3.2290000915527344,0,0
2.666750000003958,0.379913330078125,-0.45526123046875,0.302093505859375,-0.74639892578125,0.1220703125,-0.1220703125,-0.18310546875,0.4501953125,-0.796875,0.402587890625,-296.0,150.0,-149.0,101713.0,-3.2290000915527344,0,0
2.6668039000069257,0.379913330078125,-0.45526123046875,0.302093505859375,-0.74639892578125,-0.18310546875,-0.48828125,0.06103515625,0.44677734375,-0.7957763671875,0.4022216796875,-296.0,150.0,-149.0,101713.0,-3.2290000915527344,0,0
2.6668564999999944,0.379913330078125,-0.45526123046875,0.302093505859375,-0.74639892578125,-0.18310546875,-0.48828125,0.06103515625,0.44677734375,-0.7957763671875,0.4022216796875,-296.0,150.0,-149.0,101713.0,-3.2290000915527344,0,0
2.6669125000044005,0.379913330078125,-0.45526123046875,0.302093505859375,-0.74639892578125,0.1220703125,-0.18310546875,-0.244140625,0.45166015625,-0.7965087890625,0.4019775390625,-296.0,150.0,-149.0,101713.0,-3.2290000915527344,0,0
2.666966999997385,0.379913330078125,-0.45526123046875,0.302093505859375,-0.74639892578125,0.1220703125,-0.1220703125,-0.06103515625,0.4510498046875,-0.7955322265625,0.402587890625,-296.0,150.0,-149.0,101713.0,-3.2290000915527344,0,0
2.7217960999987554,0.379913330078125,-0.45526123046875,0.302093505859375,-0.74639892578125,-0.1220703125,-0.244140625,-0.1220703125,0.448486328125,-0.796630859375,0.4034423828125,-296.0,150.0,-149.0,101713.0,-3.2290000915527344,0,0
2.7218589000112843,0.379913330078125,-0.455230712890625,0.302093505859375,-0.74639892578125,0.18310546875,-0.30517578125,0.06103515625,0.448974609375,-0.7969970703125,0.40478515625,-296.0,150.0,-149.0,101713.0,-3.2290000915527344,0,0
2.7219169000018155,0.379913330078125,-0.455230712890625,0.302093505859375,-0.74639892578125,-0.06103515625,-0.30517578125,0.0,0.44873046875,-0.7958984375,0.4053955078125,-296.0,150.0,-149.0,101713.0,-3.2290000915527344,0,0
2.7220075000077486,0.379913330078125,-0.455230712890625,0.302093505859375,-0.74639892578125,0.1220703125,0.0,-0.06103515625,0.4508056640625,-0.7978515625,0.404296875,-296.0,150.0,-149.0,101713.0,-3.2290000915527344,0,0
2.722063300010632,0.379913330078125,-0.455230712890625,0.302093505859375,-0.74639892578125,0.30517578125,-0.18310546875,-0.06103515625,0.452392578125,-0.7969970703125,0.40087890625,-296.0,150.0,-149.0,101713.0,-3.2290000915527344,0,0
2.722118000005139,0.379913330078125,-0.455230712890625,0.302093505859375,-0.74639892578125,0.06103515625,0.0,-0.18310546875,0.4488525390625,-0.7984619140625,0.401611328125,-296.0,150.0,-149.0,101713.0,-3.2290000915527344,0,0
2.722969499998726,0.379913330078125,-0.455230712890625,0.302093505859375,-0.74639892578125,0.1220703125,-0.1220703125,0.30517578125,0.4490966796875,-0.7969970703125,0.40380859375,-296.0,150.0,-149.0,101713.0,-3.2290000915527344,0,0
2.7230340000096476,0.379913330078125,-0.455230712890625,0.302093505859375,-0.74639892578125,0.1220703125,-0.1220703125,0.30517578125,0.4490966796875,-0.7969970703125,0.40380859375,-296.0,150.0,-149.0,101713.0,-3.2290000915527344,0,0
2.7230922000017017,0.379913330078125,-0.455230712890625,0.302093505859375,-0.74639892578125,0.1220703125,-0.244140625,0.1220703125,0.451904296875,-0.796630859375,0.4031982421875,-295.0,151.0,-150.0,101713.0,-3.2270002365112305,0,0
2.723147800003062,0.379608154296875,-0.455108642578125,0.302276611328125,-0.746551513671875,0.06103515625,-0.18310546875,-0.30517578125,0.449462890625,-0.7967529296875,0.4056396484375,-295.0,151.0,-150.0,101713.0,-3.2270002365112305,0,0
2.723202699999092,0.379608154296875,-0.455108642578125,0.302276611328125,-0.746551513671875,0.244140625,-0.18310546875,-0.244140625,0.449462890625,-0.797607421875,0.40380859375,-295.0,151.0,-150.0,101713.0,-3.2270002365112305,0,0
2.7232568000035826,0.379608154296875,-0.455108642578125,0.302276611328125,-0.746551513671875,-0.244140625,-0.244140625,-0.18310546875,0.4532470703125,-0.7974853515625,0.4044189453125,-295.0,151.0,-150.0,101713.0,-3.2270002365112305,0,0
2.723309799999697,0.379608154296875,-0.455108642578125,0.302276611328125,-0.746551513671875,-0.1220703125,0.0,0.0,0.450927734375,-0.797119140625,0.4039306640625,-295.0,151.0,-150.0,101713.0,-3.2270002365112305,0,0
2.789382500006468,0.379638671875,-0.455108642578125,0.302276611328125,-0.746551513671875,0.06103515625,-0.30517578125,-0.1220703125,0.448974609375,-0.7979736328125,0.4013671875,-295.0,151.0,-150.0,101713.0,-3.2270002365112305,0,0
2.789447100003599,0.379638671875,-0.455108642578125,0.302276611328125,-0.746551513671875,0.06103515625,-0.30517578125,-0.1220703125,0.448974609375,-0.7979736328125,0.4013671875,-295.0,151.0,-150.0,101713.0,-3.2270002365112305,0,0
2.789502600004198,0.379638671875,-0.455108642578125,0.302276611328125,-0.746551513671875,-0.1220703125,-0.244140625,0.0,0.447998046875,-0.7952880859375,0.401123046875,-295.0,151.0,-150.0,101713.0,-3.2270002365112305,0,0
2.7895600000047125,0.379638671875,-0.455108642578125,0.302276611328125,-0.746551513671875,0.18310546875,-0.18310546875,0.0,0.44921875,-0.7972412109375,0.4019775390625,-295.0,151.0,-150.0,101713.0,-3.2270002365112305,0,0
2.797392200009199,0.379638671875,-0.455108642578125,0.302276611328125,-0.746551513671875,0.3662109375,-0.1220703125,-0.3662109375,0.4508056640625,-0.79541015625,0.40185546875,-295.0,151.0,-150.0,101713.0,-3.2270002365112305,0,0
2.797455899999477,0.379638671875,-0.455108642578125,0.302276611328125,-0.746551513671875,-0.06103515625,-0.18310546875,-0.06103515625,0.4486083984375,-0.794189453125,0.4034423828125,-295.0,151.0,-150.0,101713.0,-3.2270002365112305,0,0
2.7975116000015987,0.379638671875,-0.455108642578125,0.302276611328125,-0.746551513671875,0.0,-0.06103515625,-0.1220703125,0.4498291015625,-0.796875,0.4046630859375,-295.0,151.0,-150.0,101713.0,-3.2270002365112305,0,0
2.7975660000083735,0.379638671875,-0.455108642578125,0.302276611328125,-0.746551513671875,-0.1220703125,0.0,0.1220703125,0.4505615234375,-0.7979736328125,0.4046630859375,-295.0,151.0,-150.0,101713.0,-3.2270002365112305,0,0
2.797621400008211,0.379638671875,-0.455108642578125,0.302276611328125,-0.746551513671875,0.1220703125,-0.30517578125,0.18310546875,0.4508056640625,-0.79833984375,0.4033203125,-295.0,151.0,-150.0,101713.0,-3.2270002365112305,0,0
2.797677800001111,0.379638671875,-0.455108642578125,0.302276611328125,-0.746551513671875,0.3662109375,-0.06103515625,0.06103515625,0.4520263671875,-0.79833984375,0.404052734375,-295.0,151.0,-150.0,101713.0,-3.2270002365112305,0,0
2.79773250001017,0.379638671875,-0.455108642578125,0.302276611328125,-0.746551513671875,-0.06103515625,0.0,-0.06103515625,0.448486328125,-0.7974853515625,0.403564453125,-295.0,151.0,-150.0,101713.0,-3.2270002365112305,0,0
2.854137600006652,0.379638671875,-0.455078125,0.302276611328125,-0.746551513671875,0.0,-0.42724609375,-0.244140625,0.4476318359375,-0.7960205078125,0.403564453125,-295.0,151.0,-150.0,101713.0,-3.2280001640319824,0,0
2.8541974000108894,0.379638671875,-0.455078125,0.302276611328125,-0.746551513671875,0.42724609375,-0.244140625,-0.06103515625,0.44873046875,-0.794677734375,0.4027099609375,-295.0,151.0,-150.0,101713.0,-3.2280001640319824,0,0
2.854251700002351,0.37933349609375,-0.4549560546875,0.302459716796875,-0.7467041015625,0.1220703125,-0.30517578125,-0.42724609375,0.4498291015625,-0.797607421875,0.402587890625,-295.0,151.0,-150.0,101713.0,-3.2280001640319824,0,0
2.8543058000068413,0.37933349609375,-0.4549560546875,0.302459716796875,-0.7467041015625,-0.06103515625,-0.244140625,-0.244140625,0.44921875,-0.7960205078125,0.4024658203125,-295.0,151.0,-150.0,101713.0,-3.2280001640319824,0,0
2.8543582999991486,0.37933349609375,-0.4549560546875,0.302459716796875,-0.7467041015625,-0.06103515625,-0.244140625,0.0,0.451171875,-0.7955322265625,0.402587890625,-295.0,151.0,-150.0,101713.0,-3.2280001640319824,0,0
2.854610900001717,0.37933349609375,-0.4549560546875,0.302459716796875,-0.7467041015625,-0.18310546875,-0.18310546875,0.0,0.451171875,-0.7977294921875,0.4022216796875,-295.0,151.0,-150.0,101713.0,-3.2280001640319824,0,0
2.8546675000106916,0.37933349609375,-0.454986572265625,0.302459716796875,-0.7467041015625,0.0,-0.06103515625,-0.06103515625,0.4501953125,-0.7972412109375,0.4017333984375,-295.0,151.0,-150.0,101713.0,-3.2280001640319824,0,0
2.8547210000106134,0.37933349609375,-0.454986572265625,0.302459716796875,-0.7467041015625,0.0,-0.06103515625,-0.06103515625,0.4501953125,-0.7972412109375,0.4017333984375,-295.0,151.0,-150.0,101713.0,-3.2280001640319824,0,0
2.8547747999982676,0.37933349609375,-0.4549560546875,0.302459716796875,-0.7467041015625,0.18310546875,-0.1220703125,0.3662109375,0.449462890625,-0.79736328125,0.4024658203125,-295.0,151.0,-150.0,101713.0,-3.2280001640319824,0,0
2.8548277000081725,0.37933349609375,-0.4549560546875,0.302459716796875,-0.7467041015625,0.8544921875,-0.244140625,0.06103515625,0.4498291015625,-0.7969970703125,0.4039306640625,-295.0,151.0,-150.0,101713.0,-3.2280001640319824,0,0
2.8548816999973496,0.37933349609375,-0.4549560546875,0.302459716796875,-0.7467041015625,-0.18310546875,-0.18310546875,0.244140625,0.450439453125,-0.795654296875,0.4029541015625,-295.0,151.0,-150.0,101713.0,-3.2280001640319824,0,0
2.9148203000077046,0.37933349609375,-0.4549560546875,0.302459716796875,-0.7467041015625,0.0,-0.1220703125,-0.1220703125,0.450927734375,-0.7965087890625,0.4036865234375,-295.0,151.0,-150.0,101713.0,-3.2280001640319824,0,0
2.914883400007966,0.37933349609375,-0.4549560546875,0.302459716796875,-0.7467041015625,-0.1220703125,-0.18310546875,-0.06103515625,0.4495849609375,-0.796630859375,0.4041748046875,-295.0,151.0,-150.0,101713.0,-3.2280001640319824,0,0
2.914939200010849,0.37933349609375,-0.4549560546875,0.302459716796875,-0.7467041015625,0.1220703125,-0.18310546875,-0.1220703125,0.450439453125,-0.797607421875,0.4029541015625,-295.0,151.0,-150.0,101713.0,-3.2280001640319824,0,0
2.9149972000013804,0.37933349609375,-0.4549560546875,0.302459716796875,-0.7467041015625,0.1220703125,-0.18310546875,0.18310546875,0.450927734375,-0.798095703125,0.40234375,-295.0,151.0,-150.0,101713.0,-3.2280001640319824,0,0
2.9150550000049407,0.37933349609375,-0.4549560546875,0.302459716796875,-0.7467041015625,0.18310546875,0.0,-0.06103515625,0.449951171875,-0.7972412109375,0.4031982421875,-295.0,151.0,-150.0,101713.0,-3.2280001640319824,0,0
2.9151123000046937,0.37933349609375,-0.4549560546875,0.302459716796875,-0.7467041015625,0.30517578125,-0.06103515625,0.1220703125,0.4473876953125,-0.796630859375,0.4029541015625,-295.0,151.0,-150.0,101713.0,-3.2280001640319824,0,0
2.9161184999975376,0.37933349609375,-0.4549560546875,0.302459716796875,-0.7467041015625,0.30517578125,-0.06103515625,0.1220703125,0.4473876953125,-0.796630859375,0.4029541015625,-295.0,151.0,-150.0,101713.0,-3.2280001640319824,0,0
2.9162158999970416,0.37933349609375,-0.4549560546875,0.302459716796875,-0.7467041015625,0.0,-0.3662109375,-0.1220703125,0.44775390625,-0.7952880859375,0.404296875,-295.0,151.0,-150.0,101713.0,-3.2280001640319824,0,0
2.916269300010754,0.37933349609375,-0.4549560546875,0.302459716796875,-0.7467041015625,0.30517578125,-0.18310546875,0.1220703125,0.44921875,-0.7967529296875,0.4027099609375,-295.0,151.0,-150.0,101713.0,-3.2280001640319824,0,0
