Time stamp(sec),adc1,adc2,roll_angular_rate,pitch_angular_rate,yaw_angular_rate,acc_X,acc_Y,acc_Z,mag_X,mag_Y,mag_Z,pressure,altitude
0.012609600002178922,0.376922607421875,-0.454376220703125,0.3035888671875,-0.747833251953125,0.1220703125,-0.1220703125,-0.30517578125,0.4501953125,-0.794921875,0.4019775390625,-297.0,153.0,-149.0,101711.0,-3.2160000801086426,0,0
0.012677899998379871,0.376922607421875,-0.454376220703125,0.3035888671875,-0.747833251953125,0.0,-0.244140625,-0.3662109375,0.4498291015625,-0.796875,0.401611328125,-297.0,153.0,-149.0,101711.0,-3.2160000801086426,0,0
0.012734900010400452,0.376922607421875,-0.454376220703125,0.3035888671875,-0.747833251953125,0.244140625,-0.06103515625,0.0,0.449462890625,-0.7947998046875,0.402587890625,-297.0,153.0,-149.0,101711.0,-3.2160000801086426,0,0
0.012796399998478591,0.376922607421875,-0.454376220703125,0.3035888671875,-0.747833251953125,0.1220703125,-0.30517578125,-0.1220703125,0.452392578125,-0.79736328125,0.4024658203125,-297.0,153.0,-149.0,101711.0,-3.2160000801086426,0,0
0.012853500011260621,0.376922607421875,-0.454376220703125,0.3035888671875,-0.747833251953125,0.1220703125,-0.30517578125,-0.1220703125,0.452392578125,-0.79736328125,0.4024658203125,-297.0,153.0,-149.0,101711.0,-3.2150001525878906,0,0
0.012909299999591894,0.376922607421875,-0.454376220703125,0.3035888671875,-0.747833251953125,0.1220703125,-0.30517578125,-0.1220703125,0.452392578125,-0.79736328125,0.4024658203125,-297.0,153.0,-149.0,101711.0,-3.2150001525878906,0,0
0.012961300002643839,0.376922607421875,-0.454376220703125,0.3035888671875,-0.747833251953125,0.06103515625,0.06103515625,-0.06103515625,0.4501953125,-0.798583984375,0.4029541015625,-297.0,153.0,-149.0,101711.0,-3.2150001525878906,0,0
0.013767600001301616,0.376922607421875,-0.454345703125,0.3035888671875,-0.747833251953125,-0.06103515625,-0.18310546875,0.0,0.44873046875,-0.7962646484375,0.404541015625,-297.0,153.0,-149.0,101711.0,-3.2150001525878906,0,0
0.013827300004777499,0.376953125,-0.454345703125,0.3035888671875,-0.747833251953125,0.1220703125,-0.244140625,-0.06103515625,0.44775390625,-0.7962646484375,0.40380859375,-297.0,153.0,-149.0,101711.0,-3.2150001525878906,0,0
0.013886100001400337,0.376953125,-0.454345703125,0.3035888671875,-0.747833251953125,-0.06103515625,-0.30517578125,-0.18310546875,0.4503173828125,-0.7943115234375,0.40625,-297.0,153.0,-149.0,101711.0,-3.2150001525878906,0,0
0.013970600004540756,0.376953125,-0.454345703125,0.3035888671875,-0.747833251953125,0.3662109375,-0.244140625,-0.18310546875,0.45068359375,-0.79541015625,0.404052734375,-297.0,153.0,-149.0,101711.0,-3.2150001525878906,0,0
0.014024500007508323,0.376953125,-0.454315185546875,0.303558349609375,-0.74786376953125,-0.1220703125,-0.18310546875,-0.18310546875,0.449462890625,-0.7952880859375,0.404541015625,-297.0,153.0,-149.0,101711.0,-3.2150001525878906,0,0
0.014077600004384294,0.376953125,-0.454315185546875,0.303558349609375,-0.74786376953125,0.18310546875,-0.1220703125,0.0,0.4498291015625,-0.7967529296875,0.4036865234375,-297.0,153.0,-149.0,101711.0,-3.2150001525878906,0,0
0.08081680000759661,0.376953125,-0.454315185546875,0.303558349609375,-0.74786376953125,0.18310546875,-0.244140625,0.06103515625,0.4500732421875,-0.7965087890625,0.4039306640625,-297.0,153.0,-149.0,101711.0,-3.2150001525878906,0,0
0.08087970000633504,0.376953125,-0.454315185546875,0.303558349609375,-0.74786376953125,0.06103515625,0.1220703125,-0.18310546875,0.4525146484375,-0.7957763671875,0.4039306640625,-297.0,153.0,-149.0,101711.0,-3.2150001525878906,0,0
0.0810566000000108,0.376953125,-0.454315185546875,0.303558349609375,-0.74786376953125,-0.1220703125,-0.18310546875,-0.18310546875,0.44873046875,-0.79443359375,0.4024658203125,-297.0,153.0,-149.0,101711.0,-3.2150001525878906,0,0
0.08111160001135431,0.376953125,-0.454315185546875,0.303558349609375,-0.74786376953125,-0.1220703125,-0.30517578125,-0.18310546875,0.4483642578125,-0.7952880859375,0.4017333984375,-297.0,153.0,-149.0,101711.0,-3.2150001525878906,0,0
0.08116750000044703,0.376953125,-0.454315185546875,0.303558349609375,-0.74786376953125,0.30517578125,-0.06103515625,-0.18310546875,0.45068359375,-0.794677734375,0.4033203125,-297.0,153.0,-149.0,101711.0,-3.2150001525878906,0,0
0.08485660000587814,0.376953125,-0.454315185546875,0.303558349609375,-0.74786376953125,-0.06103515625,-0.30517578125,-0.244140625,0.4505615234375,-0.7940673828125,0.4034423828125,-297.0,153.0,-149.0,101711.0,-3.2150001525878906,0,0
0.0849175000039395,0.376953125,-0.454315185546875,0.303558349609375,-0.74786376953125,-0.18310546875,-0.3662109375,0.1220703125,0.4525146484375,-0.7967529296875,0.4031982421875,-297.0,153.0,-149.0,101711.0,-3.2150001525878906,0,0
0.08497450000140816,0.376953125,-0.454315185546875,0.303558349609375,-0.74786376953125,0.18310546875,-0.3662109375,0.1220703125,0.452880859375,-0.7974853515625,0.4039306640625,-297.0,153.0,-149.0,101711.0,-3.2150001525878906,0,0
0.08503290000953712,0.376953125,-0.454315185546875,0.303558349609375,-0.74786376953125,0.1220703125,0.0,0.06103515625,0.4488525390625,-0.797119140625,0.40185546875,-297.0,153.0,-149.0,101711.0,-3.2150001525878906,0,0
0.08508720000099856,0.376953125,-0.454315185546875,0.303558349609375,-0.74786376953125,0.1220703125,0.0,0.06103515625,0.4488525390625,-0.797119140625,0.40185546875,-297.0,153.0,-149.0,101711.0,-3.2150001525878906,0,0
0.08514039999863598,0.376953125,-0.45428466796875,0.303558349609375,-0.74786376953125,-0.06103515625,-0.06103515625,-0.18310546875,0.4481201171875,-0.7969970703125,0.4041748046875,-297.0,154.0,-148.0,101711.0,-3.2160000801086426,0,0
0.14798190000874456,0.376953125,-0.45428466796875,0.303558349609375,-0.74786376953125,0.0,-0.244140625,-0.30517578125,0.450439453125,-0.79443359375,0.40185546875,-297.0,154.0,-148.0,101711.0,-3.2160000801086426,0,0
0.148054500008584,0.376953125,-0.45428466796875,0.303558349609375,-0.74786376953125,0.3662109375,0.06103515625,-0.1220703125,0.4510498046875,-0.7979736328125,0.4039306640625,-297.0,154.0,-148.0,101711.0,-3.2160000801086426,0,0
0.1481134000059683,0.376953125,-0.45428466796875,0.303558349609375,-0.74786376953125,0.42724609375,0.06103515625,-0.18310546875,0.4500732421875,-0.79638671875,0.4041748046875,-297.0,154.0,-148.0,101711.0,-3.2160000801086426,0,0
0.1481678000127431,0.376953125,-0.45428466796875,0.303558349609375,-0.74786376953125,-0.30517578125,-0.1220703125,-0.1220703125,0.450439453125,-0.7958984375,0.4036865234375,-297.0,154.0,-148.0,101711.0,-3.2160000801086426,0,0
0.14822290001029614,0.376983642578125,-0.45428466796875,0.303558349609375,-0.74786376953125,0.18310546875,-0.06103515625,0.1220703125,0.448486328125,-0.796875,0.404541015625,-297.0,154.0,-148.0,101711.0,-3.2160000801086426,0,0
0.14829420000023674,0.376983642578125,-0.45428466796875,0.303558349609375,-0.74786376953125,0.18310546875,-0.06103515625,0.1220703125,0.448486328125,-0.796875,0.404541015625,-297.0,154.0,-148.0,101711.0,-3.2160000801086426,0,0
0.14834759999939706,0.376983642578125,-0.454254150390625,0.303558349609375,-0.74786376953125,-0.54931640625,-0.3662109375,-0.1220703125,0.450927734375,-0.7978515625,0.404296875,-297.0,154.0,-148.0,101711.0,-3.2160000801086426,0,0
0.14840050000930205,0.376983642578125,-0.45428466796875,0.303558349609375,-0.74786376953125,0.06103515625,-0.06103515625,-0.244140625,0.4515380859375,-0.7977294921875,0.402587890625,-297.0,154.0,-148.0,101711.0,-3.2160000801086426,0,0
0.14845350000541657,0.376983642578125,-0.454254150390625,0.303558349609375,-0.747894287109375,-0.18310546875,-0.3662109375,-0.30517578125,0.44921875,-0.7939453125,0.4039306640625,-297.0,154.0,-148.0,101711.0,-3.2160000801086426,0,0
0.14850740000838414,0.376983642578125,-0.454254150390625,0.303558349609375,-0.74786376953125,0.0,-0.1220703125,-0.06103515625,0.449462890625,-0.79638671875,0.4019775390625,-297.0,154.0,-148.0,101711.0,-3.2160000801086426,0,0
0.14856100000906736,0.376983642578125,-0.454254150390625,0.303558349609375,-0.74786376953125,0.06103515625,0.0,-0.30517578125,0.4501953125,-0.7957763671875,0.4034423828125,-297.0,154.0,-148.0,101711.0,-3.2160000801086426,0,0
0.20121930001187138,0.376983642578125,-0.454254150390625,0.303558349609375,-0.74786376953125,-0.18310546875,-0.244140625,-0.06103515625,0.451171875,-0.79443359375,0.4024658203125,-297.0,154.0,-148.0,101711.0,-3.2160000801086426,0,0
0.20128430001204833,0.376983642578125,-0.454254150390625,0.303558349609375,-0.74786376953125,0.18310546875,-0.06103515625,0.0,0.4482421875,-0.7962646484375,0.4024658203125,-297.0,154.0,-148.0,101711.0,-3.2160000801086426,0,0
0.20134320000943262,0.376983642578125,-0.454254150390625,0.303558349609375,-0.747894287109375,0.1220703125,-0.1220703125,-0.06103515625,0.4490966796875,-0.792724609375,0.4033203125,-297.0,154.0,-148.0,101711.0,-3.2160000801086426,0,0
0.2014746000058949,0.376983642578125,-0.454254150390625,0.303558349609375,-0.747894287109375,-0.06103515625,-0.244140625,-0.18310546875,0.44580078125,-0.791748046875,0.4029541015625,-297.0,154.0,-148.0,101711.0,-3.2160000801086426,0,0
0.20152990000497084,0.376983642578125,-0.454254150390625,0.303558349609375,-0.747894287109375,-0.06103515625,-0.244140625,-0.18310546875,0.44580078125,-0.791748046875,0.4029541015625,-297.0,154.0,-148.0,101711.0,-3.2160000801086426,0,0
0.2015832000033697,0.376983642578125,-0.4542236328125,0.303558349609375,-0.747894287109375,0.1220703125,-0.30517578125,-0.18310546875,0.447509765625,-0.79296875,0.4029541015625,-297.0,154.0,-148.0,101711.0,-3.2160000801086426,0,0
0.2016349000041373,0.377105712890625,-0.454254150390625,0.303497314453125,-0.74786376953125,0.1220703125,-0.30517578125,-0.18310546875,0.447509765625,-0.79296875,0.4029541015625,-298.0,154.0,-147.0,101711.0,-3.2160000801086426,0,0
0.20239690000016708,0.377105712890625,-0.454254150390625,0.303466796875,-0.74786376953125,0.0,-0.18310546875,0.18310546875,0.451416015625,-0.7982177734375,0.4066162109375,-298.0,154.0,-147.0,101711.0,-3.2160000801086426,0,0
0.2024569000059273,0.377105712890625,-0.45428466796875,0.303466796875,-0.74786376953125,-0.06103515625,-0.06103515625,0.6103515625,0.455810546875,-0.80029296875,0.4066162109375,-298.0,154.0,-147.0,101711.0,-3.2160000801086426,0,0
0.20467130000179168,0.377105712890625,-0.45428466796875,0.30352783203125,-0.747802734375,-0.30517578125,-0.06103515625,0.67138671875,0.45703125,-0.80322265625,0.4046630859375,-298.0,154.0,-147.0,101711.0,-3.2160000801086426,0,0
0.20474500001000706,0.37713623046875,-0.45428466796875,0.303619384765625,-0.747772216796875,-0.3662109375,0.18310546875,0.48828125,0.4451904296875,-0.8037109375,0.39501953125,-298.0,154.0,-147.0,101711.0,-3.2160000801086426,0,0
0.20480330000282265,0.37713623046875,-0.45428466796875,0.303619384765625,-0.74774169921875,0.1220703125,-0.1220703125,-0.3662109375,0.4400634765625,-0.79541015625,0.3941650390625,-298.0,154.0,-147.0,101711.0,-3.2160000801086426,0,0
0.20606370001041796,0.37713623046875,-0.45428466796875,0.3035888671875,-0.747772216796875,0.91552734375,-0.67138671875,-1.5869140625,0.4361572265625,-0.7896728515625,0.3968505859375,-298.0,154.0,-147.0,101711.0,-3.2160000801086426,0,0
0.26900500000920147,0.3770751953125,-0.454345703125,0.303436279296875,-0.747833251953125,0.06103515625,-0.732421875,-2.25830078125,0.44921875,-0.788818359375,0.4063720703125,-298.0,154.0,-147.0,101711.0,-3.2150001525878906,0,0
0.26907890000438783,0.377044677734375,-0.454376220703125,0.30340576171875,-0.74786376953125,0.0,-0.732421875,-1.46484375,0.4544677734375,-0.790771484375,0.4041748046875,-298.0,154.0,-147.0,101711.0,-3.2150001525878906,0,0
0.2691390000109095,0.37701416015625,-0.45440673828125,0.303375244140625,-0.74786376953125,0.3662109375,-0.42724609375,-0.732421875,0.45703125,-0.793212890625,0.400146484375,-298.0,154.0,-147.0,101711.0,-3.2150001525878906,0,0
0.2692070000048261,0.377044677734375,-0.454376220703125,0.30340576171875,-0.747833251953125,0.3662109375,-0.18310546875,0.18310546875,0.45556640625,-0.795654296875,0.4039306640625,-298.0,154.0,-147.0,101711.0,-3.2150001525878906,0,0
0.2692649000091478,0.377044677734375,-0.454345703125,0.303436279296875,-0.747833251953125,-0.42724609375,0.244140625,1.40380859375,0.4547119140625,-0.8021240234375,0.407958984375,-298.0,154.0,-147.0,101711.0,-3.2150001525878906,0,0
0.2693883000029018,0.377044677734375,-0.454345703125,0.303436279296875,-0.747833251953125,-0.30517578125,0.30517578125,1.0986328125,0.4537353515625,-0.7998046875,0.40625,-298.0,154.0,-147.0,101711.0,-3.2150001525878906,0,0
0.2694515000039246,0.377044677734375,-0.454345703125,0.303466796875,-0.747833251953125,0.18310546875,0.3662109375,0.8544921875,0.4501953125,-0.79638671875,0.3985595703125,-298.0,154.0,-147.0,101711.0,-3.2150001525878906,0,0
0.26950850000139326,0.3770751953125,-0.454345703125,0.303466796875,-0.747833251953125,-0.06103515625,0.1220703125,0.42724609375,0.446533203125,-0.79150390625,0.3990478515625,-298.0,154.0,-147.0,101711.0,-3.2150001525878906,0,0
0.26956739999877755,0.3770751953125,-0.454345703125,0.303466796875,-0.747833251953125,-0.06103515625,0.1220703125,0.42724609375,0.446533203125,-0.79150390625,0.3990478515625,-298.0,154.0,-147.0,101711.0,-3.2150001525878906,0,0
0.2697358000004897,0.3770751953125,-0.454345703125,0.303466796875,-0.747833251953125,0.30517578125,-0.3662109375,-0.48828125,0.44677734375,-0.7911376953125,0.39990234375,-298.0,154.0,-147.0,101711.0,-3.2150001525878906,0,0
0.26979460001166444,0.3770751953125,-0.454345703125,0.303466796875,-0.747802734375,0.42724609375,-0.48828125,-0.732421875,0.4478759765625,-0.794921875,0.3992919921875,-298.0,154.0,-147.0,101711.0,-3.2150001525878906,0,0
0.3308664000069257,0.377288818359375,-0.454376220703125,0.303314208984375,-0.747772216796875,-0.732421875,0.18310546875,0.6103515625,0.4522705078125,-0.7994384765625,0.4111328125,-298.0,152.0,-147.0,101711.0,-3.2150001525878906,0,0
0.3310891000000993,0.377288818359375,-0.454376220703125,0.303314208984375,-0.747772216796875,-0.3662109375,-0.1220703125,0.48828125,0.44970703125,-0.7987060546875,0.4085693359375,-298.0,152.0,-147.0,101711.0,-3.2150001525878906,0,0
0.3311902999994345,0.377288818359375,-0.454345703125,0.303314208984375,-0.747772216796875,-0.1220703125,-0.48828125,-0.3662109375,0.4471435546875,-0.79150390625,0.4005126953125,-298.0,152.0,-147.0,101711.0,-3.2150001525878906,0,0
0.3312575000018114,0.377288818359375,-0.454345703125,0.303314208984375,-0.747772216796875,-0.1220703125,-0.42724609375,-0.67138671875,0.4500732421875,-0.7950439453125,0.3980712890625,-298.0,152.0,-147.0,101711.0,-3.2150001525878906,0,0
0.3313202999997884,0.377288818359375,-0.454345703125,0.303314208984375,-0.747772216796875,-0.1220703125,-0.42724609375,-0.67138671875,0.4500732421875,-0.7950439453125,0.3980712890625,-298.0,152.0,-147.0,101711.0,-3.2150001525878906,0,0
0.33237580000422895,0.37725830078125,-0.454437255859375,0.3033447265625,-0.74774169921875,0.42724609375,0.1220703125,0.54931640625,0.4564208984375,-0.7984619140625,0.4002685546875,-298.0,152.0,-147.0,101711.0,-3.2160000801086426,0,0
0.3325180000101682,0.37725830078125,-0.45440673828125,0.3033447265625,-0.74774169921875,-0.6103515625,-0.18310546875,-0.48828125,0.436767578125,-0.779541015625,0.3975830078125,-298.0,152.0,-147.0,101711.0,-3.2160000801086426,0,0
0.3997327000106452,0.377227783203125,-0.454437255859375,0.3033447265625,-0.74774169921875,-0.54931640625,-1.15966796875,-1.77001953125,0.4166259765625,-0.76220703125,0.3875732421875,-298.0,152.0,-147.0,101711.0,-3.2160000801086426,0,0
0.39979520000633784,0.377166748046875,-0.454498291015625,0.30328369140625,-0.747772216796875,-0.54931640625,-2.197265625,-4.82177734375,0.3905029296875,-0.726806640625,0.3751220703125,-298.0,152.0,-147.0,101711.0,-3.2160000801086426,0,0
0.39985149999847636,0.377166748046875,-0.454498291015625,0.30328369140625,-0.747772216796875,-0.54931640625,-2.197265625,-4.82177734375,0.3905029296875,-0.726806640625,0.3751220703125,-298.0,152.0,-147.0,101711.0,-3.2160000801086426,0,0
0.3999054000014439,0.377044677734375,-0.454681396484375,0.302825927734375,-0.747894287109375,2.74658203125,1.64794921875,5.06591796875,0.5625,-0.8638916015625,0.449951171875,-298.0,152.0,-147.0,101711.0,-3.2160000801086426,0,0
0.3999601000105031,0.377166748046875,-0.45452880859375,0.30303955078125,-0.747833251953125,-4.2724609375,3.173828125,9.3994140625,0.51416015625,-0.8543701171875,0.459716796875,-298.0,152.0,-147.0,101711.0,-3.2160000801086426,0,0
0.4000133000081405,0.377349853515625,-0.45440673828125,0.303436279296875,-0.747650146484375,-4.2724609375,3.7841796875,10.43701171875,0.474365234375,-0.8563232421875,0.41162109375,-298.0,152.0,-147.0,101711.0,-3.2160000801086426,0,0
0.4000666000065394,0.3775634765625,-0.454254150390625,0.3037109375,-0.747528076171875,-0.06103515625,3.23486328125,9.27734375,0.458740234375,-0.868896484375,0.3934326171875,-298.0,152.0,-147.0,101711.0,-3.2160000801086426,0,0
0.40015970000240486,0.377777099609375,-0.454010009765625,0.304107666015625,-0.747406005859375,-0.06103515625,3.23486328125,9.27734375,0.458740234375,-0.868896484375,0.3934326171875,-298.0,152.0,-147.0,101711.0,-3.2160000801086426,0,0
0.4002119000069797,0.37774658203125,-0.454010009765625,0.304107666015625,-0.7474365234375,-3.60107421875,0.30517578125,1.220703125,0.4154052734375,-0.8182373046875,0.4346923828125,-297.0,151.0,-148.0,101711.0,-3.2160000801086426,0,0
0.4002657000091858,0.377593994140625,-0.454132080078125,0.30389404296875,-0.747528076171875,-0.8544921875,-1.953125,-4.39453125,0.392822265625,-0.7796630859375,0.39599609375,-297.0,151.0,-148.0,101711.0,-3.2160000801086426,0,0
0.400318400003016,0.37744140625,-0.454254150390625,0.303497314453125,-0.7476806640625,3.90625,-3.173828125,-9.6435546875,0.3983154296875,-0.7572021484375,0.3704833984375,-297.0,151.0,-148.0,101711.0,-3.2160000801086426,0,0
0.40037129999836907,0.376983642578125,-0.45465087890625,0.303070068359375,-0.747833251953125,4.69970703125,-4.08935546875,-11.5966796875,0.4228515625,-0.746826171875,0.3900146484375,-297.0,151.0,-148.0,101711.0,-3.2160000801086426,0,0
0.4004243000090355,0.376983642578125,-0.45465087890625,0.303070068359375,-0.747833251953125,4.69970703125,-4.08935546875,-11.5966796875,0.4228515625,-0.746826171875,0.3900146484375,-297.0,151.0,-148.0,101711.0,-3.2160000801086426,0,0
0.4604989000072237,0.377105712890625,-0.454620361328125,0.30303955078125,-0.747802734375,2.99072265625,1.5869140625,3.2958984375,0.4873046875,-0.8218994140625,0.408203125,-297.0,151.0,-148.0,101711.0,-3.2160000801086426,0,0
0.4605632000020705,0.377166748046875,-0.45452880859375,0.30316162109375,-0.747772216796875,-1.03759765625,1.46484375,4.69970703125,0.45703125,-0.7958984375,0.4127197265625,-297.0,151.0,-148.0,101711.0,-3.2160000801086426,0,0
0.46062050000182353,0.377166748046875,-0.45452880859375,0.30316162109375,-0.747772216796875,-1.5869140625,1.15966796875,3.60107421875,0.438720703125,-0.7838134765625,0.4091796875,-297.0,151.0,-148.0,101711.0,-3.2150001525878906,0,0
0.46067720001155976,0.377227783203125,-0.4544677734375,0.3033447265625,-0.74774169921875,-2.13623046875,0.18310546875,2.13623046875,0.4261474609375,-0.7734375,0.404296875,-297.0,151.0,-148.0,101711.0,-3.2150001525878906,0,0
0.4607317000045441,0.377227783203125,-0.4544677734375,0.3033447265625,-0.747711181640625,-1.708984375,0.3662109375,1.03759765625,0.427978515625,-0.768798828125,0.3970947265625,-297.0,151.0,-148.0,101711.0,-3.2150001525878906,0,0
0.46081600000616163,0.377227783203125,-0.454498291015625,0.3033447265625,-0.747711181640625,0.9765625,-0.3662109375,-0.30517578125,0.44384765625,-0.78564453125,0.3892822265625,-297.0,151.0,-148.0,101711.0,-3.2150001525878906,0,0
0.46086900000227615,0.377227783203125,-0.454498291015625,0.3033447265625,-0.747711181640625,0.9765625,-0.3662109375,-0.30517578125,0.44384765625,-0.78564453125,0.3892822265625,-297.0,151.0,-148.0,101711.0,-3.2150001525878906,0,0
0.4609206000022823,0.377227783203125,-0.454498291015625,0.303375244140625,-0.7476806640625,-0.244140625,0.30517578125,1.0986328125,0.46875,-0.8145751953125,0.4034423828125,-297.0,151.0,-148.0,101711.0,-3.2150001525878906,0,0
0.46097630000440404,0.377227783203125,-0.45452880859375,0.303466796875,-0.747650146484375,-0.8544921875,0.42724609375,1.77001953125,0.4716796875,-0.8260498046875,0.4034423828125,-297.0,151.0,-148.0,101711.0,-3.2150001525878906,0,0
0.4610411000030581,0.377349853515625,-0.454437255859375,0.3035888671875,-0.74755859375,1.15966796875,0.67138671875,1.40380859375,0.44970703125,-0.8236083984375,0.4019775390625,-297.0,151.0,-148.0,101711.0,-3.2150001525878906,0,0
0.4610972000082256,0.37738037109375,-0.45440673828125,0.303558349609375,-0.747589111328125,1.15966796875,-0.3662109375,-0.9765625,0.434326171875,-0.803466796875,0.407958984375,-297.0,151.0,-148.0,101711.0,-3.2150001525878906,0,0
0.5263437000103295,0.37713623046875,-0.45458984375,0.303253173828125,-0.74774169921875,-1.28173828125,-1.0986328125,-2.25830078125,0.4600830078125,-0.78857421875,0.4053955078125,-295.0,150.0,-147.0,101711.0,-3.2150001525878906,0,0
0.5264056000014534,0.37713623046875,-0.45458984375,0.303253173828125,-0.747711181640625,-0.732421875,-0.48828125,-0.67138671875,0.4578857421875,-0.7926025390625,0.3931884765625,-295.0,150.0,-147.0,101711.0,-3.2150001525878906,0,0
0.5264607999997679,0.377105712890625,-0.45465087890625,0.303253173828125,-0.747711181640625,0.1220703125,0.18310546875,0.67138671875,0.458251953125,-0.7958984375,0.390380859375,-295.0,150.0,-147.0,101711.0,-3.2150001525878906,0,0
0.5265151000057813,0.377105712890625,-0.45465087890625,0.303253173828125,-0.747711181640625,0.1220703125,0.18310546875,0.67138671875,0.458251953125,-0.7958984375,0.390380859375,-295.0,150.0,-147.0,101711.0,-3.2150001525878906,0,0
0.5265695999987656,0.37713623046875,-0.45465087890625,0.3033447265625,-0.747650146484375,0.91552734375,0.54931640625,0.8544921875,0.448974609375,-0.7965087890625,0.393798828125,-295.0,150.0,-147.0,101711.0,-3.2150001525878906,0,0
0.5266902000003029,0.377197265625,-0.454620361328125,0.3033447265625,-0.747650146484375,1.15966796875,0.0,0.3662109375,0.4466552734375,-0.7984619140625,0.4027099609375,-295.0,150.0,-147.0,101711.0,-3.2150001525878906,0,0
0.5267557000042871,0.377197265625,-0.45458984375,0.3033447265625,-0.7476806640625,0.18310546875,0.06103515625,0.1220703125,0.4437255859375,-0.791748046875,0.4114990234375,-295.0,150.0,-147.0,101711.0,-3.2150001525878906,0,0
0.5268109000026016,0.377197265625,-0.454559326171875,0.303314208984375,-0.7476806640625,-0.8544921875,-0.3662109375,0.06103515625,0.4501953125,-0.7916259765625,0.406005859375,-295.0,150.0,-147.0,101711.0,-3.2150001525878906,0,0
0.5268643000017619,0.377197265625,-0.454559326171875,0.3033447265625,-0.7476806640625,-1.03759765625,-0.30517578125,0.18310546875,0.4508056640625,-0.796142578125,0.4034423828125,-295.0,150.0,-147.0,101711.0,-3.2150001525878906,0,0
0.5269174999993993,0.377197265625,-0.45458984375,0.303375244140625,-0.747650146484375,-1.03759765625,-0.42724609375,-0.244140625,0.447265625,-0.798095703125,0.3985595703125,-295.0,150.0,-147.0,101711.0,-3.2150001525878906,0,0
0.5269706000108272,0.377166748046875,-0.454620361328125,0.30340576171875,-0.747650146484375,0.0,-0.18310546875,-0.3662109375,0.4486083984375,-0.798095703125,0.3924560546875,-295.0,150.0,-147.0,101711.0,-3.2150001525878906,0,0
0.5270238000084646,0.377166748046875,-0.45465087890625,0.30340576171875,-0.74761962890625,0.91552734375,-0.244140625,-0.42724609375,0.4554443359375,-0.800048828125,0.396728515625,-295.0,150.0,-147.0,101711.0,-3.2150001525878906,0,0
0.5873696000053314,0.377166748046875,-0.45465087890625,0.30340576171875,-0.74761962890625,0.91552734375,-0.244140625,-0.42724609375,0.4554443359375,-0.800048828125,0.396728515625,-295.0,150.0,-147.0,101711.0,-3.2150001525878906,0,0
0.5874314000102459,0.377166748046875,-0.45465087890625,0.30340576171875,-0.74761962890625,0.54931640625,-0.06103515625,0.1220703125,0.4544677734375,-0.79833984375,0.4014892578125,-295.0,150.0,-147.0,101711.0,-3.2150001525878906,0,0
0.5878470000025118,0.377166748046875,-0.45465087890625,0.30340576171875,-0.74761962890625,-0.06103515625,-0.06103515625,0.42724609375,0.451904296875,-0.7952880859375,0.4014892578125,-295.0,150.0,-147.0,101711.0,-3.2150001525878906,0,0
0.5879214000015054,0.377166748046875,-0.45465087890625,0.30340576171875,-0.74761962890625,-0.18310546875,-0.18310546875,-0.1220703125,0.4481201171875,-0.794189453125,0.4014892578125,-295.0,150.0,-147.0,101711.0,-3.2150001525878906,0,0
0.5879803999996511,0.377166748046875,-0.45465087890625,0.30340576171875,-0.74761962890625,-0.1220703125,-0.244140625,-0.30517578125,0.4478759765625,-0.7965087890625,0.4029541015625,-295.0,150.0,-147.0,101711.0,-3.2150001525878906,0,0
0.5880366000055801,0.377166748046875,-0.45465087890625,0.30340576171875,-0.74761962890625,0.06103515625,-0.48828125,-0.42724609375,0.44921875,-0.79345703125,0.4013671875,-295.0,150.0,-147.0,101711.0,-3.2150001525878906,0,0
0.5908430999988923,0.377166748046875,-0.45465087890625,0.30340576171875,-0.74761962890625,-0.244140625,-0.42724609375,-0.06103515625,0.453369140625,-0.7967529296875,0.4002685546875,-295.0,150.0,-147.0,101711.0,-3.2150001525878906,0,0
0.5909079999983078,0.37713623046875,-0.454681396484375,0.303436279296875,-0.747589111328125,-0.1220703125,-0.06103515625,0.18310546875,0.4544677734375,-0.7991943359375,0.396484375,-295.0,150.0,-147.0,101711.0,-3.2150001525878906,0,0
0.5984026000078302,0.37713623046875,-0.454681396484375,0.303436279296875,-0.747589111328125,-0.1220703125,-0.06103515625,0.18310546875,0.4544677734375,-0.7991943359375,0.396484375,-295.0,150.0,-147.0,101711.0,-3.2150001525878906,0,0
0.5985728000086965,0.37713623046875,-0.4547119140625,0.303436279296875,-0.747589111328125,0.1220703125,-0.18310546875,0.3662109375,0.45263671875,-0.799560546875,0.397216796875,-295.0,150.0,-147.0,101711.0,-3.2150001525878906,0,0
0.5987147000123514,0.37713623046875,-0.4547119140625,0.303436279296875,-0.747589111328125,0.1220703125,-0.18310546875,0.3662109375,0.45263671875,-0.799560546875,0.397216796875,-295.0,150.0,-147.0,101711.0,-3.2150001525878906,0,0
0.598778500003391,0.37713623046875,-0.4547119140625,0.303466796875,-0.74755859375,0.732421875,-0.06103515625,-0.30517578125,0.447021484375,-0.79736328125,0.3985595703125,-295.0,150.0,-147.0,101711.0,-3.2150001525878906,0,0
0.6503666000062367,0.377105712890625,-0.4547119140625,0.30340576171875,-0.747589111328125,-0.1220703125,-0.42724609375,-0.67138671875,0.45166015625,-0.7950439453125,0.4033203125,-295.0,150.0,-147.0,101711.0,-3.2150001525878906,0,0
0.6504359000100521,0.377105712890625,-0.454742431640625,0.30340576171875,-0.747589111328125,-0.42724609375,-0.48828125,-0.54931640625,0.453857421875,-0.795654296875,0.4024658203125,-295.0,150.0,-147.0,101711.0,-3.2150001525878906,0,0
0.650495800000499,0.377105712890625,-0.454742431640625,0.303436279296875,-0.747589111328125,-0.1220703125,0.06103515625,0.3662109375,0.456298828125,-0.80029296875,0.3990478515625,-295.0,150.0,-147.0,101711.0,-3.2150001525878906,0,0
0.6505576000054134,0.3770751953125,-0.454742431640625,0.303436279296875,-0.747589111328125,-0.244140625,0.06103515625,0.3662109375,0.447998046875,-0.792236328125,0.395751953125,-295.0,150.0,-147.0,101711.0,-3.2150001525878906,0,0
0.6506167000043206,0.3770751953125,-0.454742431640625,0.303436279296875,-0.747589111328125,0.1220703125,0.06103515625,0.18310546875,0.451171875,-0.7939453125,0.3975830078125,-295.0,150.0,-147.0,101711.0,-3.2150001525878906,0,0
0.6515918000077363,0.3770751953125,-0.454742431640625,0.303436279296875,-0.747589111328125,0.1220703125,0.06103515625,0.18310546875,0.451171875,-0.7939453125,0.3975830078125,-295.0,150.0,-147.0,101711.0,-3.2150001525878906,0,0
0.6516536000126507,0.3770751953125,-0.45477294921875,0.303436279296875,-0.747589111328125,-0.48828125,-0.30517578125,0.48828125,0.45166015625,-0.797607421875,0.4017333984375,-295.0,150.0,-147.0,101711.0,-3.2150001525878906,0,0
0.651711600003182,0.3770751953125,-0.45477294921875,0.303436279296875,-0.74755859375,0.3662109375,0.06103515625,0.3662109375,0.4490966796875,-0.798828125,0.3990478515625,-295.0,150.0,-147.0,101711.0,-3.2150001525878906,0,0
0.6517756000102963,0.3770751953125,-0.45477294921875,0.303436279296875,-0.74755859375,0.06103515625,-0.42724609375,0.18310546875,0.4500732421875,-0.79736328125,0.3995361328125,-295.0,150.0,-147.0,101711.0,-3.2150001525878906,0,0
0.6518522000114899,0.3770751953125,-0.45477294921875,0.303436279296875,-0.74755859375,-0.1220703125,0.18310546875,0.06103515625,0.44970703125,-0.7982177734375,0.4019775390625,-295.0,150.0,-147.0,101711.0,-3.2150001525878906,0,0
0.6519101000012597,0.3770751953125,-0.45477294921875,0.303466796875,-0.74755859375,-0.06103515625,-0.42724609375,-0.42724609375,0.449462890625,-0.7991943359375,0.3978271484375,-295.0,150.0,-147.0,101711.0,-3.2150001525878906,0,0
0.7118267000041669,0.3770751953125,-0.454803466796875,0.303497314453125,-0.747528076171875,-0.06103515625,-0.244140625,-0.54931640625,0.446533203125,-0.7921142578125,0.3995361328125,-295.0,150.0,-147.0,101711.0,-3.2150001525878906,0,0
0.7118909999990137,0.3770751953125,-0.454803466796875,0.303497314453125,-0.747528076171875,0.48828125,-0.18310546875,-0.42724609375,0.4498291015625,-0.7955322265625,0.396484375,-295.0,150.0,-147.0,101711.0,-3.2150001525878906,0,0
0.7119493000063812,0.3770751953125,-0.454803466796875,0.303497314453125,-0.747528076171875,0.48828125,-0.18310546875,-0.42724609375,0.4498291015625,-0.7955322265625,0.396484375,-295.0,150.0,-147.0,101711.0,-3.2150001525878906,0,0
0.712005000008503,0.3770751953125,-0.454803466796875,0.303497314453125,-0.747528076171875,-0.1220703125,-0.42724609375,-0.06103515625,0.45263671875,-0.793701171875,0.4033203125,-294.0,149.0,-148.0,101711.0,-3.2150001525878906,0,0
0.7120597000030102,0.3770751953125,-0.454803466796875,0.303497314453125,-0.747528076171875,0.18310546875,0.0,0.18310546875,0.451904296875,-0.795654296875,0.39990234375,-294.0,149.0,-148.0,101711.0,-3.2150001525878906,0,0
0.7121601000108058,0.3770751953125,-0.454833984375,0.303497314453125,-0.747528076171875,-0.30517578125,0.0,0.30517578125,0.4512939453125,-0.797119140625,0.3988037109375,-294.0,149.0,-148.0,101711.0,-3.2150001525878906,0,0
0.7122129000053974,0.3770751953125,-0.454833984375,0.303497314453125,-0.747528076171875,-0.244140625,0.1220703125,0.30517578125,0.45068359375,-0.7960205078125,0.3995361328125,-294.0,149.0,-148.0,101711.0,-3.2150001525878906,0,0
0.7122655999992276,0.3770751953125,-0.454833984375,0.303497314453125,-0.747528076171875,-0.30517578125,-0.18310546875,0.48828125,0.448486328125,-0.796630859375,0.399169921875,-294.0,149.0,-148.0,101711.0,-3.2150001525878906,0,0
0.7123181000060868,0.3770751953125,-0.454833984375,0.303497314453125,-0.74749755859375,0.244140625,-0.1220703125,0.30517578125,0.448486328125,-0.79736328125,0.3975830078125,-294.0,149.0,-148.0,101711.0,-3.2150001525878906,0,0
0.712373700007447,0.3770751953125,-0.454833984375,0.30352783203125,-0.74749755859375,0.0,-0.18310546875,-0.18310546875,0.4488525390625,-0.7945556640625,0.4005126953125,-294.0,149.0,-148.0,101711.0,-3.2150001525878906,0,0
0.7124275000096532,0.3770751953125,-0.454833984375,0.303497314453125,-0.74749755859375,-0.30517578125,-0.18310546875,-0.244140625,0.45166015625,-0.796630859375,0.4022216796875,-294.0,149.0,-148.0,101711.0,-3.2150001525878906,0,0
0.7124807000072906,0.3770751953125,-0.454833984375,0.303497314453125,-0.74749755859375,-0.30517578125,-0.18310546875,-0.244140625,0.45166015625,-0.796630859375,0.4022216796875,-294.0,149.0,-148.0,101711.0,-3.2150001525878906,0,0
0.7776239000086207,0.3770751953125,-0.454833984375,0.30352783203125,-0.74749755859375,0.0,-0.30517578125,-0.30517578125,0.448974609375,-0.7965087890625,0.4007568359375,-294.0,149.0,-148.0,101711.0,-3.2140002250671387,0,0
0.777689200011082,0.3770751953125,-0.454833984375,0.30352783203125,-0.74749755859375,0.0,-0.06103515625,-0.18310546875,0.4498291015625,-0.798583984375,0.401123046875,-294.0,149.0,-148.0,101711.0,-3.2140002250671387,0,0
0.7777451000001747,0.3770751953125,-0.454833984375,0.30352783203125,-0.74749755859375,-0.244140625,-0.244140625,-0.244140625,0.4488525390625,-0.7972412109375,0.3992919921875,-294.0,149.0,-148.0,101711.0,-3.2140002250671387,0,0
0.7778019000106724,0.3770751953125,-0.454833984375,0.303558349609375,-0.74749755859375,0.18310546875,-0.244140625,-0.244140625,0.44921875,-0.7974853515625,0.400146484375,-294.0,149.0,-148.0,101711.0,-3.2140002250671387,0,0
0.7778646000078879,0.3770751953125,-0.454864501953125,0.303558349609375,-0.747467041015625,0.0,-0.18310546875,-0.244140625,0.4510498046875,-0.7958984375,0.39892578125,-294.0,149.0,-148.0,101711.0,-3.2140002250671387,0,0
0.777930500000366,0.3770751953125,-0.454864501953125,0.303558349609375,-0.747467041015625,-0.06103515625,-0.30517578125,-0.18310546875,0.44921875,-0.7972412109375,0.3992919921875,-294.0,149.0,-148.0,101711.0,-3.2140002250671387,0,0
0.7780471000005491,0.3770751953125,-0.454864501953125,0.303558349609375,-0.747467041015625,0.244140625,-0.18310546875,-0.3662109375,0.453369140625,-0.7962646484375,0.3994140625,-294.0,149.0,-148.0,101711.0,-3.2140002250671387,0,0
0.7780999000096926,0.3770751953125,-0.454864501953125,0.303558349609375,-0.747467041015625,-0.1220703125,-0.18310546875,-0.244140625,0.4508056640625,-0.798095703125,0.399658203125,-294.0,149.0,-148.0,101711.0,-3.2140002250671387,0,0
0.7781527000042843,0.3770751953125,-0.454864501953125,0.303558349609375,-0.747467041015625,0.06103515625,-0.06103515625,0.1220703125,0.450439453125,-0.796142578125,0.399658203125,-294.0,149.0,-148.0,101711.0,-3.2140002250671387,0,0
0.7782061000034446,0.3770751953125,-0.454864501953125,0.303558349609375,-0.747467041015625,0.06103515625,-0.06103515625,0.1220703125,0.450439453125,-0.796142578125,0.399658203125,-294.0,149.0,-148.0,101711.0,-3.2140002250671387,0,0
0.778260200007935,0.3770751953125,-0.45489501953125,0.303558349609375,-0.747467041015625,0.18310546875,0.0,0.244140625,0.449462890625,-0.7977294921875,0.398681640625,-295.0,148.0,-149.0,101711.0,-3.2140002250671387,0,0
0.778313300004811,0.3770751953125,-0.45489501953125,0.3035888671875,-0.7474365234375,-0.18310546875,0.0,0.06103515625,0.4501953125,-0.796875,0.3990478515625,-295.0,148.0,-149.0,101711.0,-3.2140002250671387,0,0
0.843617800011998,0.377044677734375,-0.454925537109375,0.3035888671875,-0.7474365234375,0.48828125,-0.06103515625,-0.06103515625,0.45166015625,-0.79541015625,0.4019775390625,-295.0,148.0,-149.0,101711.0,-3.2140002250671387,0,0
0.8436896000057459,0.377044677734375,-0.454925537109375,0.3035888671875,-0.7474365234375,-0.1220703125,-0.06103515625,-0.1220703125,0.4503173828125,-0.79541015625,0.4014892578125,-295.0,148.0,-149.0,101711.0,-3.2140002250671387,0,0
0.8437473000085447,0.377044677734375,-0.454925537109375,0.3035888671875,-0.7474365234375,-0.1220703125,-0.1220703125,-0.06103515625,0.450439453125,-0.7969970703125,0.398681640625,-295.0,148.0,-149.0,101711.0,-3.2140002250671387,0,0
0.8438046000082977,0.377044677734375,-0.454925537109375,0.3035888671875,-0.7474365234375,0.244140625,-0.30517578125,-0.06103515625,0.4498291015625,-0.796142578125,0.3984375,-295.0,148.0,-149.0,101711.0,-3.2140002250671387,0,0
0.8438601000088966,0.377044677734375,-0.454925537109375,0.3035888671875,-0.7474365234375,0.244140625,-0.30517578125,-0.06103515625,0.4498291015625,-0.796142578125,0.3984375,-295.0,148.0,-149.0,101711.0,-3.2140002250671387,0,0
0.8495796000061091,0.377044677734375,-0.454925537109375,0.3035888671875,-0.7474365234375,0.06103515625,-0.30517578125,-0.244140625,0.44921875,-0.7952880859375,0.4000244140625,-295.0,148.0,-149.0,101711.0,-3.2140002250671387,0,0
0.8496407000056934,0.377044677734375,-0.454925537109375,0.3035888671875,-0.7474365234375,0.30517578125,-0.1220703125,-0.18310546875,0.450439453125,-0.796875,0.4002685546875,-295.0,148.0,-149.0,101711.0,-3.2160000801086426,0,0
0.8496954000002006,0.377044677734375,-0.454925537109375,0.303619384765625,-0.747406005859375,-0.18310546875,-0.18310546875,-0.1220703125,0.448974609375,-0.7969970703125,0.400146484375,-295.0,148.0,-149.0,101711.0,-3.2160000801086426,0,0
0.8497496000054525,0.377044677734375,-0.454925537109375,0.303619384765625,-0.747406005859375,0.0,0.06103515625,0.1220703125,0.4498291015625,-0.7955322265625,0.39794921875,-295.0,148.0,-149.0,101711.0,-3.2160000801086426,0,0
0.8498029000038514,0.377044677734375,-0.4549560546875,0.303619384765625,-0.747406005859375,0.18310546875,-0.1220703125,-0.06103515625,0.451416015625,-0.79736328125,0.3985595703125,-295.0,148.0,-149.0,101711.0,-3.2160000801086426,0,0
0.8498575999983586,0.377044677734375,-0.4549560546875,0.303619384765625,-0.747406005859375,0.06103515625,0.06103515625,0.0,0.4505615234375,-0.79443359375,0.398193359375,-295.0,148.0,-149.0,101711.0,-3.2160000801086426,0,0
0.8499103000067407,0.377044677734375,-0.4549560546875,0.303619384765625,-0.747406005859375,-0.1220703125,-0.18310546875,0.06103515625,0.4512939453125,-0.7943115234375,0.3997802734375,-295.0,148.0,-149.0,101711.0,-3.2160000801086426,0,0
0.904208899999503,0.377044677734375,-0.454986572265625,0.30364990234375,-0.74737548828125,0.1220703125,-0.06103515625,0.244140625,0.449951171875,-0.797607421875,0.3992919921875,-295.0,148.0,-149.0,101711.0,-3.2160000801086426,0,0
0.9042724000028102,0.377044677734375,-0.454986572265625,0.30364990234375,-0.74737548828125,0.244140625,0.0,-0.1220703125,0.4493408203125,-0.7960205078125,0.3997802734375,-295.0,148.0,-149.0,101711.0,-3.2160000801086426,0,0
0.9043294000002788,0.377044677734375,-0.454986572265625,0.30364990234375,-0.74737548828125,0.1220703125,-0.30517578125,-0.1220703125,0.449462890625,-0.7935791015625,0.3994140625,-295.0,148.0,-149.0,101711.0,-3.2160000801086426,0,0
0.9043840000085765,0.376922607421875,-0.4549560546875,0.3037109375,-0.7474365234375,-0.1220703125,-0.244140625,-0.1220703125,0.451416015625,-0.794921875,0.3990478515625,-295.0,150.0,-149.0,101711.0,-3.2160000801086426,0,0
0.90467410000565,0.376922607421875,-0.4549560546875,0.3037109375,-0.7474365234375,-0.06103515625,-0.3662109375,-0.42724609375,0.451416015625,-0.7960205078125,0.3985595703125,-295.0,150.0,-149.0,101711.0,-3.2160000801086426,0,0
0.9047312000038801,0.376922607421875,-0.4549560546875,0.3037109375,-0.7474365234375,-0.06103515625,-0.1220703125,-0.244140625,0.44970703125,-0.796875,0.3990478515625,-295.0,150.0,-149.0,101711.0,-3.2160000801086426,0,0
0.9047879999998258,0.376922607421875,-0.4549560546875,0.3037109375,-0.747406005859375,0.30517578125,0.0,0.06103515625,0.45166015625,-0.7965087890625,0.3997802734375,-295.0,150.0,-149.0,101711.0,-3.2160000801086426,0,0
0.9048421000043163,0.376922607421875,-0.4549560546875,0.3037109375,-0.747406005859375,0.3662109375,-0.18310546875,-0.06103515625,0.451171875,-0.79638671875,0.400146484375,-295.0,150.0,-149.0,101711.0,-3.2160000801086426,0,0
0.9048959000065224,0.376922607421875,-0.4549560546875,0.3037109375,-0.747406005859375,-0.1220703125,-0.244140625,0.0,0.4500732421875,-0.7969970703125,0.399658203125,-295.0,150.0,-149.0,101711.0,-3.2160000801086426,0,0
0.9049521000124514,0.376922607421875,-0.4549560546875,0.3037109375,-0.747406005859375,-0.1220703125,-0.244140625,0.0,0.4500732421875,-0.7969970703125,0.399658203125,-295.0,150.0,-149.0,101711.0,-3.2160000801086426,0,0
0.9050078000000212,0.376922607421875,-0.4549560546875,0.303741455078125,-0.747406005859375,-0.06103515625,-0.18310546875,-0.06103515625,0.4482421875,-0.7960205078125,0.39990234375,-295.0,150.0,-149.0,101711.0,-3.2160000801086426,0,0
0.9742750000004889,0.376922607421875,-0.454986572265625,0.303741455078125,-0.747406005859375,0.06103515625,-0.1220703125,0.1220703125,0.451171875,-0.7947998046875,0.399658203125,-295.0,150.0,-149.0,101711.0,-3.2130000591278076,0,0
0.9743589999998221,0.376922607421875,-0.454986572265625,0.303741455078125,-0.747406005859375,-0.18310546875,-0.1220703125,0.06103515625,0.4515380859375,-0.79638671875,0.399658203125,-295.0,150.0,-149.0,101711.0,-3.2130000591278076,0,0
0.9772170000069309,0.376922607421875,-0.454986572265625,0.303741455078125,-0.74737548828125,0.244140625,-0.06103515625,-0.244140625,0.450927734375,-0.7969970703125,0.397216796875,-295.0,150.0,-149.0,101711.0,-3.2130000591278076,0,0
0.977317500000936,0.376922607421875,-0.45501708984375,0.30377197265625,-0.74737548828125,-0.1220703125,-0.18310546875,0.0,0.45166015625,-0.7960205078125,0.395751953125,-295.0,150.0,-149.0,101711.0,-3.2130000591278076,0,0
0.977400600007968,0.376922607421875,-0.45501708984375,0.30377197265625,-0.74737548828125,0.18310546875,0.0,-0.06103515625,0.4512939453125,-0.7960205078125,0.3995361328125,-295.0,150.0,-149.0,101711.0,-3.2130000591278076,0,0
0.977455900007044,0.37689208984375,-0.45501708984375,0.30377197265625,-0.74737548828125,0.06103515625,-0.18310546875,-0.18310546875,0.4508056640625,-0.796630859375,0.3995361328125,-295.0,150.0,-149.0,101711.0,-3.2130000591278076,0,0
0.9782517999992706,0.37689208984375,-0.45501708984375,0.30377197265625,-0.74737548828125,0.06103515625,-0.18310546875,-0.18310546875,0.4508056640625,-0.796630859375,0.3995361328125,-295.0,150.0,-149.0,101711.0,-3.2130000591278076,0,0
0.9784132000058889,0.37689208984375,-0.45501708984375,0.30377197265625,-0.74737548828125,0.18310546875,-0.06103515625,-0.06103515625,0.450927734375,-0.79638671875,0.398681640625,-295.0,150.0,-149.0,101711.0,-3.2130000591278076,0,0
0.9785421000124188,0.37689208984375,-0.45501708984375,0.30377197265625,-0.74737548828125,-0.1220703125,-0.1220703125,0.06103515625,0.449462890625,-0.7958984375,0.4000244140625,-295.0,150.0,-149.0,101711.0,-3.2130000591278076,0,0
0.9786684999999125,0.37689208984375,-0.45501708984375,0.30377197265625,-0.74737548828125,-0.244140625,-0.244140625,0.18310546875,0.4505615234375,-0.795654296875,0.400146484375,-295.0,150.0,-149.0,101711.0,-3.2130000591278076,0,0
0.9787922000105027,0.37689208984375,-0.45501708984375,0.30377197265625,-0.74737548828125,0.06103515625,-0.1220703125,-0.244140625,0.4501953125,-0.795654296875,0.3994140625,-295.0,149.0,-149.0,101711.0,-3.2130000591278076,0,0
1.0385768999985885,0.376800537109375,-0.454986572265625,0.3038330078125,-0.747406005859375,0.06103515625,-0.18310546875,-0.1220703125,0.45166015625,-0.7962646484375,0.4005126953125,-295.0,149.0,-149.0,101711.0,-3.2130000591278076,0,0
1.038651300012134,0.376800537109375,-0.454986572265625,0.3038330078125,-0.747406005859375,0.06103515625,-0.30517578125,0.18310546875,0.449462890625,-0.7952880859375,0.400146484375,-295.0,149.0,-149.0,101711.0,-3.2130000591278076,0,0
1.038714100010111,0.376800537109375,-0.454986572265625,0.3038330078125,-0.747406005859375,0.1220703125,0.0,-0.244140625,0.4486083984375,-0.794921875,0.3994140625,-295.0,149.0,-149.0,101711.0,-3.2130000591278076,0,0
1.0387733000097796,0.376800537109375,-0.454986572265625,0.3038330078125,-0.747406005859375,0.1220703125,0.0,-0.244140625,0.4486083984375,-0.794921875,0.3994140625,-295.0,149.0,-149.0,101711.0,-3.2130000591278076,0,0
1.0388764000090305,0.376800537109375,-0.454986572265625,0.3038330078125,-0.747406005859375,0.1220703125,0.06103515625,-0.1220703125,0.45068359375,-0.794189453125,0.399169921875,-295.0,149.0,-149.0,101711.0,-3.2130000591278076,0,0
1.0392081000027247,0.376800537109375,-0.45501708984375,0.3038330078125,-0.747406005859375,0.06103515625,-0.1220703125,-0.06103515625,0.450927734375,-0.7965087890625,0.3997802734375,-295.0,149.0,-149.0,101711.0,-3.2130000591278076,0,0
1.0392673000023933,0.376800537109375,-0.45501708984375,0.3038330078125,-0.747406005859375,-0.06103515625,0.0,-0.244140625,0.451416015625,-0.794189453125,0.3988037109375,-295.0,149.0,-149.0,101711.0,-3.2130000591278076,0,0
1.0393249000044307,0.376800537109375,-0.45501708984375,0.3038330078125,-0.747406005859375,0.18310546875,-0.06103515625,0.1220703125,0.450927734375,-0.7943115234375,0.3992919921875,-295.0,149.0,-149.0,101711.0,-3.2130000591278076,0,0
1.039383600000292,0.376800537109375,-0.45501708984375,0.303863525390625,-0.747406005859375,0.18310546875,-0.18310546875,0.06103515625,0.44921875,-0.79638671875,0.4002685546875,-295.0,149.0,-149.0,101711.0,-3.2160000801086426,0,0
1.0394415000046138,0.376800537109375,-0.45501708984375,0.303863525390625,-0.747406005859375,-0.244140625,-0.18310546875,0.06103515625,0.450439453125,-0.796142578125,0.398193359375,-295.0,149.0,-149.0,101711.0,-3.2160000801086426,0,0
1.0394977000105428,0.376800537109375,-0.45501708984375,0.303863525390625,-0.747406005859375,0.18310546875,0.06103515625,0.0,0.451416015625,-0.797607421875,0.3985595703125,-295.0,149.0,-149.0,101711.0,-3.2160000801086426,0,0
1.0395545000064885,0.376800537109375,-0.45501708984375,0.303863525390625,-0.747406005859375,0.1220703125,-0.18310546875,0.06103515625,0.449951171875,-0.7979736328125,0.4005126953125,-295.0,149.0,-149.0,101711.0,-3.2160000801086426,0,0
1.092550500005018,0.376800537109375,-0.45501708984375,0.303863525390625,-0.74737548828125,-0.244140625,-0.06103515625,-0.1220703125,0.448974609375,-0.7972412109375,0.4002685546875,-295.0,149.0,-149.0,101711.0,-3.2160000801086426,0,0
1.092615300003672,0.376800537109375,-0.45501708984375,0.303863525390625,-0.74737548828125,0.0,-0.18310546875,-0.3662109375,0.449462890625,-0.7974853515625,0.39990234375,-295.0,149.0,-149.0,101711.0,-3.2160000801086426,0,0
1.0926745000033407,0.376800537109375,-0.45501708984375,0.303863525390625,-0.74737548828125,-0.1220703125,-0.54931640625,-0.06103515625,0.4501953125,-0.794189453125,0.4000244140625,-295.0,149.0,-149.0,101711.0,-3.2160000801086426,0,0
1.0927335000014864,0.376800537109375,-0.45501708984375,0.303863525390625,-0.74737548828125,-0.18310546875,-0.30517578125,-0.18310546875,0.4493408203125,-0.796630859375,0.4010009765625,-295.0,149.0,-149.0,101711.0,-3.2160000801086426,0,0
1.0927908000012394,0.376800537109375,-0.45501708984375,0.303863525390625,-0.74737548828125,0.06103515625,-0.1220703125,-0.244140625,0.45068359375,-0.7957763671875,0.399169921875,-295.0,149.0,-149.0,101711.0,-3.2160000801086426,0,0
1.0937052000081167,0.3765869140625,-0.454925537109375,0.30401611328125,-0.747467041015625,0.244140625,-0.06103515625,-0.30517578125,0.450439453125,-0.795166015625,0.39697265625,-296.0,149.0,-150.0,101711.0,-3.2160000801086426,0,0
1.0937642000062624,0.3765869140625,-0.4549560546875,0.30401611328125,-0.747467041015625,0.1220703125,-0.1220703125,0.18310546875,0.44970703125,-0.7955322265625,0.3992919921875,-296.0,149.0,-150.0,101711.0,-3.2160000801086426,0,0
1.093822300012107,0.3765869140625,-0.4549560546875,0.30401611328125,-0.747467041015625,0.3662109375,-0.244140625,-0.06103515625,0.45166015625,-0.7957763671875,0.400634765625,-296.0,149.0,-150.0,101711.0,-3.2160000801086426,0,0
1.0938797000126215,0.3765869140625,-0.4549560546875,0.30401611328125,-0.747467041015625,0.3662109375,-0.244140625,-0.06103515625,0.45166015625,-0.7957763671875,0.400634765625,-296.0,149.0,-150.0,101711.0,-3.2160000801086426,0,0
1.0939371999993455,0.3765869140625,-0.4549560546875,0.303985595703125,-0.74749755859375,0.30517578125,0.06103515625,-0.244140625,0.4515380859375,-0.79638671875,0.40087890625,-296.0,149.0,-150.0,101711.0,-3.2160000801086426,0,0
1.0939941000106046,0.3765869140625,-0.4549560546875,0.303985595703125,-0.74749755859375,-0.1220703125,-0.06103515625,0.1220703125,0.451171875,-0.7982177734375,0.4024658203125,-296.0,149.0,-150.0,101711.0,-3.2160000801086426,0,0
1.159566400005133,0.3765869140625,-0.4549560546875,0.303985595703125,-0.74749755859375,0.0,-0.42724609375,0.06103515625,0.45068359375,-0.796875,0.39990234375,-296.0,149.0,-150.0,101711.0,-3.2160000801086426,0,0
1.1596455000108108,0.3765869140625,-0.4549560546875,0.30401611328125,-0.747467041015625,0.1220703125,-0.1220703125,-0.06103515625,0.4510498046875,-0.7974853515625,0.39990234375,-296.0,149.0,-150.0,101711.0,-3.2160000801086426,0,0
1.1597074000019347,0.3765869140625,-0.4549560546875,0.30401611328125,-0.747467041015625,0.3662109375,0.0,0.06103515625,0.4520263671875,-0.7974853515625,0.3992919921875,-296.0,149.0,-150.0,101711.0,-3.2160000801086426,0,0
1.159769600009895,0.3765869140625,-0.4549560546875,0.30401611328125,-0.747467041015625,0.3662109375,0.0,0.06103515625,0.4520263671875,-0.7974853515625,0.3992919921875,-296.0,149.0,-150.0,101711.0,-3.2140002250671387,0,0
1.1598467000003438,0.3765869140625,-0.4549560546875,0.30401611328125,-0.747467041015625,0.30517578125,-0.3662109375,-0.18310546875,0.4483642578125,-0.7952880859375,0.401123046875,-296.0,149.0,-150.0,101711.0,-3.2140002250671387,0,0
1.159908000001451,0.3765869140625,-0.4549560546875,0.30401611328125,-0.747467041015625,0.1220703125,-0.06103515625,0.0,0.4510498046875,-0.796875,0.40185546875,-296.0,149.0,-150.0,101711.0,-3.2140002250671387,0,0
1.1600643999991007,0.3765869140625,-0.4549560546875,0.30401611328125,-0.747467041015625,0.1220703125,-0.18310546875,0.06103515625,0.4515380859375,-0.79638671875,0.401123046875,-296.0,149.0,-150.0,101711.0,-3.2140002250671387,0,0
1.1601252000109525,0.3765869140625,-0.4549560546875,0.30401611328125,-0.747467041015625,0.1220703125,-0.18310546875,0.06103515625,0.4515380859375,-0.79638671875,0.401123046875,-296.0,149.0,-150.0,101711.0,-3.2140002250671387,0,0
1.1601833000022452,0.3765869140625,-0.454925537109375,0.30401611328125,-0.747467041015625,-0.06103515625,-0.18310546875,0.06103515625,0.4503173828125,-0.79638671875,0.401611328125,-296.0,149.0,-150.0,101711.0,-3.2140002250671387,0,0
1.1602427000034368,0.3765869140625,-0.4549560546875,0.30401611328125,-0.74749755859375,-0.18310546875,-0.244140625,-0.06103515625,0.4501953125,-0.79638671875,0.4019775390625,-296.0,149.0,-150.0,101711.0,-3.2140002250671387,0,0
1.1604329000110738,0.3765869140625,-0.4549560546875,0.30401611328125,-0.747467041015625,0.06103515625,-0.06103515625,0.0,0.4521484375,-0.7965087890625,0.4012451171875,-296.0,149.0,-150.0,101711.0,-3.2140002250671387,0,0
1.1605220000055851,0.3765869140625,-0.4549560546875,0.30401611328125,-0.747467041015625,-0.06103515625,-0.1220703125,-0.244140625,0.4505615234375,-0.796630859375,0.400390625,-296.0,149.0,-150.0,101711.0,-3.2140002250671387,0,0
1.160586300000432,0.3765869140625,-0.4549560546875,0.30401611328125,-0.747467041015625,0.18310546875,-0.06103515625,0.0,0.4501953125,-0.7972412109375,0.399169921875,-296.0,149.0,-150.0,101711.0,-3.2140002250671387,0,0
1.2230964000045788,0.37640380859375,-0.454864501953125,0.30413818359375,-0.747589111328125,-0.30517578125,-0.244140625,-0.18310546875,0.4486083984375,-0.79443359375,0.40234375,-296.0,148.0,-150.0,101711.0,-3.2140002250671387,0,0
1.2231748000049265,0.37640380859375,-0.454864501953125,0.30413818359375,-0.747589111328125,-0.30517578125,-0.244140625,-0.18310546875,0.4486083984375,-0.79443359375,0.40234375,-296.0,148.0,-150.0,101711.0,-3.2140002250671387,0,0
1.2232350000122096,0.37640380859375,-0.454864501953125,0.304107666015625,-0.747589111328125,-0.18310546875,0.0,-0.244140625,0.4512939453125,-0.7938232421875,0.3997802734375,-296.0,148.0,-150.0,101711.0,-3.2140002250671387,0,0
1.2232924999989336,0.37640380859375,-0.454864501953125,0.30413818359375,-0.747589111328125,0.0,-0.1220703125,0.1220703125,0.451416015625,-0.798583984375,0.4034423828125,-296.0,148.0,-150.0,101711.0,-3.2140002250671387,0,0
1.223349899999448,0.37640380859375,-0.454864501953125,0.304107666015625,-0.747589111328125,0.18310546875,-0.06103515625,0.06103515625,0.4498291015625,-0.7945556640625,0.400634765625,-296.0,148.0,-150.0,101711.0,-3.2140002250671387,0,0
1.2234281000128249,0.37640380859375,-0.454864501953125,0.304107666015625,-0.747589111328125,0.0,0.0,0.1220703125,0.4498291015625,-0.794677734375,0.4000244140625,-296.0,148.0,-150.0,101711.0,-3.2140002250671387,0,0
1.2234847000072477,0.37640380859375,-0.454864501953125,0.304107666015625,-0.747589111328125,0.1220703125,-0.1220703125,0.0,0.4520263671875,-0.7957763671875,0.4022216796875,-296.0,148.0,-150.0,101711.0,-3.2140002250671387,0,0
1.2235412000009092,0.37640380859375,-0.454833984375,0.304107666015625,-0.747589111328125,0.30517578125,-0.06103515625,0.1220703125,0.449951171875,-0.7969970703125,0.401123046875,-296.0,148.0,-150.0,101711.0,-3.2140002250671387,0,0
1.223596900003031,0.37640380859375,-0.454833984375,0.304107666015625,-0.747589111328125,0.1220703125,-0.244140625,0.0,0.448486328125,-0.79443359375,0.403076171875,-296.0,148.0,-150.0,101711.0,-3.2160000801086426,0,0
1.2236592000117525,0.37640380859375,-0.454833984375,0.304107666015625,-0.747589111328125,0.244140625,-0.18310546875,-0.18310546875,0.449951171875,-0.794677734375,0.401123046875,-296.0,148.0,-150.0,101711.0,-3.2160000801086426,0,0
1.2237173000030452,0.37640380859375,-0.454833984375,0.304107666015625,-0.747589111328125,0.244140625,0.06103515625,-0.18310546875,0.450927734375,-0.796142578125,0.40185546875,-296.0,148.0,-150.0,101711.0,-3.2160000801086426,0,0
1.287325100012822,0.37640380859375,-0.454833984375,0.304107666015625,-0.74761962890625,-0.1220703125,-0.18310546875,0.06103515625,0.4501953125,-0.7969970703125,0.4033203125,-296.0,148.0,-150.0,101711.0,-3.2160000801086426,0,0
1.2873927000036929,0.37640380859375,-0.454803466796875,0.304107666015625,-0.74761962890625,0.06103515625,-0.1220703125,-0.06103515625,0.44921875,-0.79541015625,0.4024658203125,-296.0,148.0,-150.0,101711.0,-3.2160000801086426,0,0
1.287454900011653,0.37640380859375,-0.454803466796875,0.304107666015625,-0.74761962890625,-0.1220703125,-0.30517578125,-0.18310546875,0.4495849609375,-0.7972412109375,0.4012451171875,-296.0,148.0,-150.0,101711.0,-3.2160000801086426,0,0
1.2875136000075145,0.376434326171875,-0.454803466796875,0.304107666015625,-0.74761962890625,-0.06103515625,-0.1220703125,0.0,0.45068359375,-0.79541015625,0.4031982421875,-296.0,148.0,-150.0,101711.0,-3.2160000801086426,0,0
1.28757190000033,0.37640380859375,-0.454803466796875,0.304107666015625,-0.74761962890625,0.1220703125,-0.06103515625,0.06103515625,0.45068359375,-0.794677734375,0.400634765625,-296.0,148.0,-150.0,101711.0,-3.2160000801086426,0,0
1.2889373000070918,0.37640380859375,-0.454803466796875,0.304107666015625,-0.74761962890625,-0.06103515625,-0.244140625,-0.30517578125,0.4508056640625,-0.79541015625,0.4027099609375,-296.0,148.0,-150.0,101711.0,-3.2160000801086426,0,0
1.2890056000032928,0.376434326171875,-0.454803466796875,0.304107666015625,-0.74761962890625,-0.06103515625,-0.1220703125,-0.244140625,0.4515380859375,-0.79638671875,0.4017333984375,-296.0,148.0,-150.0,101711.0,-3.2160000801086426,0,0
1.2890660999983083,0.376434326171875,-0.454803466796875,0.304107666015625,-0.74761962890625,-0.06103515625,-0.1220703125,-0.244140625,0.4515380859375,-0.79638671875,0.4017333984375,-296.0,148.0,-150.0,101711.0,-3.2160000801086426,0,0
1.2893668000033358,0.376220703125,-0.4547119140625,0.30419921875,-0.74774169921875,0.0,-0.244140625,0.1220703125,0.454833984375,-0.7965087890625,0.4039306640625,-295.0,149.0,-150.0,101711.0,-3.2160000801086426,0,0
1.2894298000028357,0.376220703125,-0.4547119140625,0.30419921875,-0.74774169921875,0.3662109375,-0.1220703125,0.0,0.45068359375,-0.7969970703125,0.40185546875,-295.0,149.0,-150.0,101711.0,-3.2160000801086426,0,0
1.2894882000109646,0.376220703125,-0.4547119140625,0.30419921875,-0.74774169921875,-0.18310546875,-0.30517578125,-0.1220703125,0.44970703125,-0.7940673828125,0.4019775390625,-295.0,149.0,-150.0,101711.0,-3.2160000801086426,0,0
1.3514862000010908,0.376220703125,-0.4547119140625,0.30419921875,-0.74774169921875,0.30517578125,-0.3662109375,-0.06103515625,0.450439453125,-0.794677734375,0.4039306640625,-295.0,149.0,-150.0,101711.0,-3.2160000801086426,0,0
1.351553700005752,0.376220703125,-0.4547119140625,0.30419921875,-0.74774169921875,-0.06103515625,-0.1220703125,-0.06103515625,0.45166015625,-0.7979736328125,0.4029541015625,-295.0,149.0,-150.0,101711.0,-3.2160000801086426,0,0
1.351614500003052,0.376220703125,-0.4547119140625,0.30419921875,-0.74774169921875,0.06103515625,0.1220703125,0.0,0.45068359375,-0.7967529296875,0.40283203125,-295.0,149.0,-150.0,101711.0,-3.2160000801086426,0,0
1.3516715000005206,0.376220703125,-0.454681396484375,0.30419921875,-0.74774169921875,0.244140625,-0.244140625,-0.18310546875,0.45068359375,-0.79638671875,0.4022216796875,-295.0,149.0,-150.0,101711.0,-3.2160000801086426,0,0
1.3517261000088183,0.376220703125,-0.454681396484375,0.30419921875,-0.74774169921875,-0.1220703125,-0.1220703125,-0.06103515625,0.45166015625,-0.7984619140625,0.4019775390625,-295.0,149.0,-150.0,101711.0,-3.2160000801086426,0,0
1.3517867000045953,0.376220703125,-0.454681396484375,0.30419921875,-0.74774169921875,0.06103515625,-0.1220703125,-0.244140625,0.4490966796875,-0.7978515625,0.4027099609375,-295.0,149.0,-150.0,101711.0,-3.2160000801086426,0,0
1.3533807000058005,0.376220703125,-0.454681396484375,0.30419921875,-0.74774169921875,0.06103515625,-0.1220703125,-0.244140625,0.4490966796875,-0.7978515625,0.4027099609375,-295.0,149.0,-150.0,101711.0,-3.2160000801086426,0,0
1.3534470000013243,0.376220703125,-0.454681396484375,0.304168701171875,-0.74774169921875,0.1220703125,-0.18310546875,-0.244140625,0.4486083984375,-0.795166015625,0.40185546875,-295.0,149.0,-150.0,101711.0,-3.2160000801086426,0,0
1.3535063000017544,0.376220703125,-0.454681396484375,0.304168701171875,-0.747772216796875,0.18310546875,-0.30517578125,-0.18310546875,0.452880859375,-0.7930908203125,0.4014892578125,-295.0,149.0,-150.0,101711.0,-3.2160000801086426,0,0
1.353568600010476,0.376220703125,-0.454681396484375,0.304168701171875,-0.747772216796875,0.3662109375,-0.18310546875,-0.30517578125,0.4493408203125,-0.7950439453125,0.402099609375,-295.0,149.0,-150.0,101711.0,-3.2160000801086426,0,0
1.3536267000017688,0.376220703125,-0.454681396484375,0.304168701171875,-0.747772216796875,0.18310546875,-0.18310546875,-0.244140625,0.4501953125,-0.7969970703125,0.4007568359375,-295.0,149.0,-150.0,101711.0,-3.2160000801086426,0,0
1.3536841000022832,0.376220703125,-0.454681396484375,0.304168701171875,-0.747772216796875,-0.06103515625,-0.06103515625,-0.06103515625,0.4521484375,-0.796875,0.402099609375,-295.0,149.0,-150.0,101711.0,-3.2160000801086426,0,0
1.3537402000074508,0.376220703125,-0.454681396484375,0.304168701171875,-0.747772216796875,0.1220703125,-0.06103515625,-0.06103515625,0.4490966796875,-0.7950439453125,0.401123046875,-295.0,149.0,-150.0,101711.0,-3.2160000801086426,0,0
1.4186927000118885,0.376220703125,-0.454681396484375,0.304168701171875,-0.747772216796875,0.18310546875,-0.06103515625,0.0,0.4498291015625,-0.797607421875,0.400390625,-295.0,149.0,-150.0,101711.0,-3.2160000801086426,0,0
1.4187702000053832,0.376220703125,-0.45465087890625,0.304168701171875,-0.747772216796875,0.18310546875,-0.06103515625,0.0,0.4501953125,-0.7977294921875,0.4033203125,-296.0,147.0,-150.0,101711.0,-3.2140002250671387,0,0
1.4188305999996373,0.37603759765625,-0.45458984375,0.304290771484375,-0.74786376953125,-0.1220703125,0.06103515625,-0.06103515625,0.450927734375,-0.7955322265625,0.4024658203125,-296.0,147.0,-150.0,101711.0,-3.2140002250671387,0,0
1.4188881000009133,0.37603759765625,-0.45458984375,0.304290771484375,-0.74786376953125,-0.30517578125,-0.1220703125,0.06103515625,0.4522705078125,-0.796142578125,0.4024658203125,-296.0,147.0,-150.0,101711.0,-3.2140002250671387,0,0
1.4189468000113266,0.37603759765625,-0.45458984375,0.304290771484375,-0.747894287109375,0.1220703125,0.06103515625,-0.06103515625,0.45166015625,-0.797607421875,0.4027099609375,-296.0,147.0,-150.0,101711.0,-3.2140002250671387,0,0
1.4190261000039754,0.37603759765625,-0.45458984375,0.304290771484375,-0.74786376953125,0.3662109375,-0.244140625,0.0,0.4515380859375,-0.7978515625,0.401123046875,-296.0,147.0,-150.0,101711.0,-3.2140002250671387,0,0
1.419084400011343,0.37603759765625,-0.45458984375,0.30426025390625,-0.747894287109375,-0.06103515625,-0.1220703125,-0.3662109375,0.45166015625,-0.7943115234375,0.402587890625,-296.0,147.0,-150.0,101711.0,-3.2140002250671387,0,0
1.41914280000492,0.37603759765625,-0.454559326171875,0.30426025390625,-0.747894287109375,0.3662109375,0.1220703125,-0.244140625,0.4503173828125,-0.79541015625,0.4036865234375,-296.0,147.0,-150.0,101711.0,-3.2140002250671387,0,0
1.4192028000106802,0.37603759765625,-0.454559326171875,0.30426025390625,-0.747894287109375,-0.06103515625,-0.1220703125,0.06103515625,0.4495849609375,-0.7967529296875,0.404052734375,-296.0,147.0,-150.0,101711.0,-3.2140002250671387,0,0
1.4192621000111103,0.37603759765625,-0.454559326171875,0.30426025390625,-0.747894287109375,0.0,-0.30517578125,-0.18310546875,0.44970703125,-0.7962646484375,0.4052734375,-296.0,147.0,-150.0,101711.0,-3.2140002250671387,0,0
1.4193218000000343,0.37603759765625,-0.454559326171875,0.30426025390625,-0.747894287109375,0.0,-0.30517578125,-0.18310546875,0.44970703125,-0.7962646484375,0.4052734375,-296.0,147.0,-150.0,101711.0,-3.2140002250671387,0,0
1.4784222000016598,0.37603759765625,-0.45452880859375,0.304229736328125,-0.7479248046875,0.0,-0.30517578125,-0.06103515625,0.4510498046875,-0.7947998046875,0.40283203125,-296.0,147.0,-150.0,101711.0,-3.2140002250671387,0,0
1.478487900007167,0.37603759765625,-0.45452880859375,0.304229736328125,-0.7479248046875,0.0,-0.18310546875,-0.244140625,0.450439453125,-0.79541015625,0.4012451171875,-296.0,147.0,-150.0,101711.0,-3.2140002250671387,0,0
1.4785487000044668,0.37603759765625,-0.45452880859375,0.304229736328125,-0.7479248046875,0.244140625,0.0,-0.06103515625,0.451171875,-0.7960205078125,0.4000244140625,-296.0,147.0,-150.0,101711.0,-3.2140002250671387,0,0
1.4786104000086198,0.37603759765625,-0.45452880859375,0.304229736328125,-0.7479248046875,0.30517578125,-0.30517578125,-0.1220703125,0.4500732421875,-0.795166015625,0.4014892578125,-296.0,147.0,-150.0,101711.0,-3.2140002250671387,0,0
1.4786670000030426,0.37603759765625,-0.45452880859375,0.304229736328125,-0.7479248046875,0.244140625,-0.244140625,-0.06103515625,0.450927734375,-0.7955322265625,0.4036865234375,-296.0,147.0,-150.0,101711.0,-3.2140002250671387,0,0
1.4790199999988545,0.37603759765625,-0.45452880859375,0.304229736328125,-0.7479248046875,0.0,-0.244140625,-0.18310546875,0.45166015625,-0.7955322265625,0.402099609375,-296.0,147.0,-150.0,101711.0,-3.2140002250671387,0,0
1.4790909000003012,0.37603759765625,-0.45452880859375,0.304229736328125,-0.7479248046875,0.0,-0.244140625,-0.18310546875,0.45166015625,-0.7955322265625,0.402099609375,-296.0,147.0,-150.0,101711.0,-3.2140002250671387,0,0
1.4791679000045406,0.37603759765625,-0.45452880859375,0.304229736328125,-0.7479248046875,-0.06103515625,-0.18310546875,0.06103515625,0.450927734375,-0.798095703125,0.40087890625,-296.0,147.0,-150.0,101711.0,-3.2140002250671387,0,0
1.4792467000079341,0.37603759765625,-0.45452880859375,0.304229736328125,-0.7479248046875,-0.06103515625,-0.18310546875,0.06103515625,0.450927734375,-0.798095703125,0.40087890625,-297.0,147.0,-150.0,101711.0,-3.2160000801086426,0,0
1.47930640001141,0.3758544921875,-0.454437255859375,0.304351806640625,-0.748016357421875,0.1220703125,-0.06103515625,0.06103515625,0.4498291015625,-0.797119140625,0.400146484375,-297.0,147.0,-150.0,101711.0,-3.2160000801086426,0,0
1.4793629000050714,0.3758544921875,-0.454437255859375,0.304351806640625,-0.748016357421875,0.06103515625,0.0,0.18310546875,0.45166015625,-0.79736328125,0.4019775390625,-297.0,147.0,-150.0,101711.0,-3.2160000801086426,0,0
1.5444349000026705,0.3758544921875,-0.454437255859375,0.304351806640625,-0.748016357421875,-0.18310546875,-0.18310546875,-0.1220703125,0.449462890625,-0.797119140625,0.4013671875,-297.0,147.0,-150.0,101711.0,-3.2160000801086426,0,0
1.5445612000039546,0.3758544921875,-0.454437255859375,0.30438232421875,-0.748016357421875,0.18310546875,-0.06103515625,0.0,0.449462890625,-0.7991943359375,0.40380859375,-297.0,147.0,-150.0,101711.0,-3.2160000801086426,0,0
1.5446731000120053,0.3758544921875,-0.454437255859375,0.304351806640625,-0.748016357421875,0.06103515625,-0.18310546875,0.0,0.4522705078125,-0.7958984375,0.4024658203125,-297.0,147.0,-150.0,101711.0,-3.2160000801086426,0,0
1.5447853000077885,0.3758544921875,-0.45440673828125,0.304351806640625,-0.748016357421875,-0.1220703125,-0.1220703125,-0.18310546875,0.4490966796875,-0.7962646484375,0.4036865234375,-297.0,147.0,-150.0,101711.0,-3.2160000801086426,0,0
1.5448960000067018,0.3758544921875,-0.45440673828125,0.304351806640625,-0.748046875,0.06103515625,-0.06103515625,-0.06103515625,0.451904296875,-0.79638671875,0.4058837890625,-297.0,147.0,-150.0,101711.0,-3.2160000801086426,0,0
1.5450083000032464,0.3758544921875,-0.45440673828125,0.304351806640625,-0.748046875,0.06103515625,-0.06103515625,-0.06103515625,0.451904296875,-0.79638671875,0.4058837890625,-297.0,147.0,-150.0,101711.0,-3.2160000801086426,0,0
1.54511820001062,0.3758544921875,-0.45440673828125,0.304351806640625,-0.748046875,0.06103515625,-0.06103515625,0.0,0.4500732421875,-0.7955322265625,0.40478515625,-297.0,147.0,-150.0,101711.0,-3.2160000801086426,0,0
1.54544960000203,0.3758544921875,-0.45440673828125,0.304351806640625,-0.748046875,0.1220703125,-0.244140625,-0.3662109375,0.451416015625,-0.7979736328125,0.4053955078125,-297.0,147.0,-150.0,101711.0,-3.2160000801086426,0,0
1.5455084999994142,0.3758544921875,-0.454376220703125,0.304351806640625,-0.748046875,0.06103515625,0.06103515625,-0.1220703125,0.4525146484375,-0.7979736328125,0.403564453125,-297.0,147.0,-150.0,101711.0,-3.2160000801086426,0,0
1.545564900006866,0.3758544921875,-0.454376220703125,0.304351806640625,-0.748046875,0.30517578125,0.06103515625,-0.30517578125,0.4501953125,-0.79736328125,0.403076171875,-297.0,147.0,-150.0,101711.0,-3.2160000801086426,0,0
1.5456197000021348,0.3758544921875,-0.454376220703125,0.3043212890625,-0.748046875,0.1220703125,-0.244140625,0.0,0.4520263671875,-0.7962646484375,0.40185546875,-297.0,147.0,-150.0,101711.0,-3.2160000801086426,0,0
1.5456738000066252,0.375885009765625,-0.454376220703125,0.304351806640625,-0.748046875,0.06103515625,-0.1220703125,-0.1220703125,0.4520263671875,-0.7967529296875,0.403564453125,-297.0,147.0,-150.0,101711.0,-3.2160000801086426,0,0
1.5457307000033325,0.375885009765625,-0.454376220703125,0.3043212890625,-0.748046875,0.06103515625,-0.06103515625,-0.18310546875,0.4483642578125,-0.798583984375,0.4012451171875,-297.0,147.0,-150.0,101711.0,-3.2160000801086426,0,0
1.6100304999999935,0.375885009765625,-0.454376220703125,0.3043212890625,-0.748046875,0.06103515625,-0.244140625,0.0,0.4495849609375,-0.795166015625,0.40185546875,-297.0,147.0,-150.0,101711.0,-3.2160000801086426,0,0
1.6100936000002548,0.375885009765625,-0.454345703125,0.3043212890625,-0.748077392578125,-0.244140625,-0.1220703125,-0.1220703125,0.4512939453125,-0.79638671875,0.4029541015625,-297.0,147.0,-150.0,101711.0,-3.2160000801086426,0,0
1.6106624000094598,0.375885009765625,-0.454345703125,0.3043212890625,-0.748077392578125,0.0,-0.1220703125,0.0,0.4501953125,-0.797119140625,0.40234375,-296.0,146.0,-149.0,101711.0,-3.2150001525878906,0,0
1.6107289000065066,0.375885009765625,-0.454345703125,0.3043212890625,-0.748077392578125,-0.06103515625,0.06103515625,0.0,0.447265625,-0.7962646484375,0.402587890625,-296.0,146.0,-149.0,101711.0,-3.2150001525878906,0,0
1.6107868000108283,0.37579345703125,-0.454315185546875,0.30438232421875,-0.74810791015625,0.0,-0.18310546875,0.06103515625,0.4498291015625,-0.7958984375,0.402099609375,-296.0,146.0,-149.0,101711.0,-3.2150001525878906,0,0
1.6108596000121906,0.37579345703125,-0.454315185546875,0.30438232421875,-0.74810791015625,0.06103515625,-0.18310546875,-0.06103515625,0.44873046875,-0.7958984375,0.402099609375,-296.0,146.0,-149.0,101711.0,-3.2150001525878906,0,0
1.6109158000035677,0.37579345703125,-0.45428466796875,0.30438232421875,-0.74810791015625,-0.30517578125,-0.1220703125,-0.1220703125,0.44921875,-0.79736328125,0.4024658203125,-296.0,146.0,-149.0,101711.0,-3.2150001525878906,0,0
1.6109720000094967,0.37579345703125,-0.45428466796875,0.30438232421875,-0.74810791015625,0.1220703125,0.0,0.1220703125,0.452392578125,-0.79736328125,0.4044189453125,-296.0,146.0,-149.0,101711.0,-3.2150001525878906,0,0
1.6110264000017196,0.37579345703125,-0.45428466796875,0.30438232421875,-0.74810791015625,0.1220703125,0.0,0.1220703125,0.452392578125,-0.79736328125,0.4044189453125,-296.0,146.0,-149.0,101711.0,-3.2150001525878906,0,0
1.6110819000023184,0.37579345703125,-0.45428466796875,0.30438232421875,-0.74810791015625,-0.06103515625,-0.1220703125,0.1220703125,0.44921875,-0.7974853515625,0.4034423828125,-296.0,146.0,-149.0,101711.0,-3.2150001525878906,0,0
1.6111375000036787,0.37579345703125,-0.45428466796875,0.30438232421875,-0.748138427734375,0.06103515625,-0.18310546875,0.1220703125,0.4522705078125,-0.796630859375,0.403076171875,-296.0,146.0,-149.0,101711.0,-3.2150001525878906,0,0
1.6692883000068832,0.37579345703125,-0.45428466796875,0.30438232421875,-0.748138427734375,0.3662109375,-0.06103515625,-0.1220703125,0.44921875,-0.79541015625,0.4007568359375,-296.0,146.0,-149.0,101711.0,-3.2150001525878906,0,0
1.6693514000071445,0.37579345703125,-0.45428466796875,0.30438232421875,-0.748138427734375,0.1220703125,-0.244140625,-0.18310546875,0.4505615234375,-0.794921875,0.4046630859375,-296.0,146.0,-149.0,101711.0,-3.2150001525878906,0,0
1.6694081000023289,0.37579345703125,-0.45428466796875,0.304351806640625,-0.748138427734375,0.30517578125,-0.1220703125,-0.06103515625,0.4525146484375,-0.7947998046875,0.403564453125,-296.0,146.0,-149.0,101711.0,-3.2150001525878906,0,0
1.6694620000052964,0.37579345703125,-0.45428466796875,0.304351806640625,-0.748138427734375,0.06103515625,-0.1220703125,-0.1220703125,0.451416015625,-0.7950439453125,0.402099609375,-296.0,146.0,-149.0,101711.0,-3.2150001525878906,0,0
1.6695154000044568,0.37579345703125,-0.45428466796875,0.304351806640625,-0.748138427734375,0.0,-0.1220703125,-0.1220703125,0.4500732421875,-0.7974853515625,0.4014892578125,-296.0,146.0,-149.0,101711.0,-3.2150001525878906,0,0
1.6701419000019087,0.37579345703125,-0.45428466796875,0.304351806640625,-0.748138427734375,0.0,-0.1220703125,-0.1220703125,0.4500732421875,-0.7974853515625,0.4014892578125,-296.0,146.0,-149.0,101711.0,-3.2150001525878906,0,0
1.6701978000055533,0.37579345703125,-0.45428466796875,0.304351806640625,-0.748138427734375,-0.18310546875,-0.1220703125,-0.18310546875,0.4522705078125,-0.7960205078125,0.4029541015625,-296.0,146.0,-149.0,101711.0,-3.2150001525878906,0,0
1.6702530000038678,0.37579345703125,-0.45428466796875,0.304351806640625,-0.748138427734375,0.1220703125,-0.1220703125,-0.1220703125,0.451416015625,-0.7965087890625,0.402099609375,-296.0,146.0,-149.0,101711.0,-3.2150001525878906,0,0
1.670308800006751,0.37579345703125,-0.454254150390625,0.304351806640625,-0.748138427734375,0.18310546875,0.0,0.0,0.449462890625,-0.7967529296875,0.4039306640625,-296.0,146.0,-149.0,101711.0,-3.2150001525878906,0,0
1.6703625000081956,0.37579345703125,-0.454254150390625,0.304351806640625,-0.748138427734375,0.06103515625,-0.06103515625,-0.1220703125,0.4530029296875,-0.7969970703125,0.4034423828125,-296.0,146.0,-149.0,101711.0,-3.2150001525878906,0,0
1.6704152000020258,0.37579345703125,-0.454254150390625,0.304351806640625,-0.7481689453125,0.06103515625,-0.06103515625,-0.1220703125,0.4530029296875,-0.7969970703125,0.4034423828125,-296.0,148.0,-148.0,101711.0,-3.2150001525878906,0,0
1.7345033000019612,0.37579345703125,-0.454254150390625,0.304351806640625,-0.7481689453125,0.18310546875,-0.18310546875,-0.1220703125,0.451416015625,-0.794921875,0.4034423828125,-296.0,148.0,-148.0,101711.0,-3.2150001525878906,0,0
1.734572900008061,0.37579345703125,-0.454254150390625,0.304351806640625,-0.7481689453125,0.0,-0.06103515625,0.1220703125,0.4500732421875,-0.7984619140625,0.40234375,-296.0,148.0,-148.0,101711.0,-3.2150001525878906,0,0
1.734628900012467,0.375823974609375,-0.454254150390625,0.304351806640625,-0.7481689453125,0.06103515625,-0.1220703125,-0.06103515625,0.4493408203125,-0.798095703125,0.4041748046875,-296.0,148.0,-148.0,101711.0,-3.2150001525878906,0,0
1.7346844999992754,0.375823974609375,-0.454254150390625,0.304351806640625,-0.7481689453125,0.06103515625,-0.1220703125,-0.06103515625,0.4493408203125,-0.798095703125,0.4041748046875,-296.0,148.0,-148.0,101711.0,-3.2150001525878906,0,0
1.7347391000075731,0.375823974609375,-0.454254150390625,0.304351806640625,-0.7481689453125,0.18310546875,-0.244140625,-0.1220703125,0.4505615234375,-0.7972412109375,0.4031982421875,-296.0,148.0,-148.0,101711.0,-3.2150001525878906,0,0
1.7347925000067335,0.375823974609375,-0.454254150390625,0.304351806640625,-0.7481689453125,-0.18310546875,0.06103515625,0.1220703125,0.4500732421875,-0.7996826171875,0.4024658203125,-296.0,148.0,-148.0,101711.0,-3.2150001525878906,0,0
1.7348452000005636,0.375823974609375,-0.4542236328125,0.304351806640625,-0.7481689453125,0.18310546875,-0.1220703125,-0.18310546875,0.4490966796875,-0.7950439453125,0.4039306640625,-296.0,148.0,-148.0,101711.0,-3.2150001525878906,0,0
1.7355446000001393,0.375823974609375,-0.4542236328125,0.304351806640625,-0.7481689453125,0.1220703125,-0.1220703125,0.06103515625,0.451171875,-0.7943115234375,0.4034423828125,-296.0,148.0,-148.0,101711.0,-3.2150001525878906,0,0
1.7356002000014996,0.375823974609375,-0.4542236328125,0.304351806640625,-0.7481689453125,0.30517578125,-0.1220703125,-0.1220703125,0.45166015625,-0.7957763671875,0.4034423828125,-296.0,148.0,-148.0,101711.0,-3.2150001525878906,0,0
1.7356544000067515,0.375823974609375,-0.4542236328125,0.304351806640625,-0.7481689453125,0.30517578125,-0.1220703125,-0.1220703125,0.45166015625,-0.7957763671875,0.4034423828125,-296.0,148.0,-148.0,101711.0,-3.2150001525878906,0,0
1.7357084000104805,0.375823974609375,-0.4542236328125,0.3043212890625,-0.7481689453125,0.1220703125,-0.06103515625,-0.18310546875,0.4515380859375,-0.796630859375,0.403564453125,-296.0,148.0,-148.0,101711.0,-3.2150001525878906,0,0
1.7357622000126867,0.375823974609375,-0.4542236328125,0.3043212890625,-0.7481689453125,0.30517578125,0.0,0.0,0.45068359375,-0.796630859375,0.40380859375,-296.0,148.0,-148.0,101711.0,-3.2150001525878906,0,0
1.735814700004994,0.375823974609375,-0.4542236328125,0.3043212890625,-0.7481689453125,0.0,0.0,0.18310546875,0.4503173828125,-0.7945556640625,0.4031982421875,-296.0,148.0,-148.0,101711.0,-3.2150001525878906,0,0
1.7998256999999285,0.375823974609375,-0.4542236328125,0.3043212890625,-0.7481689453125,0.0,-0.30517578125,0.0,0.4488525390625,-0.795654296875,0.40185546875,-296.0,148.0,-148.0,101711.0,-3.2150001525878906,0,0
1.7998904999985825,0.375823974609375,-0.4542236328125,0.3043212890625,-0.7481689453125,-0.244140625,-0.1220703125,0.1220703125,0.4508056640625,-0.79736328125,0.402099609375,-296.0,148.0,-148.0,101711.0,-3.2150001525878906,0,0
1.7999494000105187,0.375823974609375,-0.4542236328125,0.3043212890625,-0.7481689453125,0.06103515625,-0.06103515625,-0.06103515625,0.45166015625,-0.7969970703125,0.4017333984375,-296.0,148.0,-148.0,101711.0,-3.2150001525878906,0,0
1.8000060000049416,0.375823974609375,-0.454193115234375,0.3043212890625,-0.748199462890625,-0.1220703125,-0.3662109375,-0.1220703125,0.44921875,-0.7955322265625,0.4033203125,-296.0,148.0,-148.0,101711.0,-3.2150001525878906,0,0
1.8000593000033405,0.375823974609375,-0.454193115234375,0.3043212890625,-0.748199462890625,-0.06103515625,-0.06103515625,-0.1220703125,0.450927734375,-0.79443359375,0.4052734375,-295.0,149.0,-148.0,101711.0,-3.2160000801086426,0,0
1.8003429000091273,0.375823974609375,-0.454193115234375,0.3043212890625,-0.748199462890625,0.244140625,0.0,-0.244140625,0.451416015625,-0.7943115234375,0.4044189453125,-295.0,149.0,-148.0,101711.0,-3.2160000801086426,0,0
1.8003993000020273,0.375732421875,-0.45416259765625,0.30438232421875,-0.748260498046875,-0.244140625,-0.244140625,-0.18310546875,0.45068359375,-0.797119140625,0.403076171875,-295.0,149.0,-148.0,101711.0,-3.2160000801086426,0,0
1.8004520000104094,0.375732421875,-0.45416259765625,0.30438232421875,-0.748260498046875,-0.244140625,-0.244140625,-0.18310546875,0.45068359375,-0.797119140625,0.403076171875,-295.0,149.0,-148.0,101711.0,-3.2160000801086426,0,0
1.8005040999996709,0.375732421875,-0.454132080078125,0.30438232421875,-0.748260498046875,0.06103515625,-0.244140625,-0.06103515625,0.4493408203125,-0.7943115234375,0.4053955078125,-295.0,149.0,-148.0,101711.0,-3.2160000801086426,0,0
1.8006703999999445,0.375732421875,-0.454132080078125,0.30438232421875,-0.748260498046875,-0.1220703125,-0.1220703125,-0.06103515625,0.449951171875,-0.7939453125,0.4027099609375,-295.0,149.0,-148.0,101711.0,-3.2160000801086426,0,0
1.8007466999988537,0.375732421875,-0.454132080078125,0.30438232421875,-0.748260498046875,0.18310546875,-0.1220703125,-0.18310546875,0.44921875,-0.7947998046875,0.40283203125,-295.0,149.0,-148.0,101711.0,-3.2160000801086426,0,0
1.866712600007304,0.375732421875,-0.454132080078125,0.30438232421875,-0.748260498046875,-0.1220703125,0.1220703125,-0.06103515625,0.45068359375,-0.79541015625,0.4024658203125,-295.0,149.0,-148.0,101711.0,-3.2160000801086426,0,0
1.8667770000029122,0.375732421875,-0.4541015625,0.304351806640625,-0.748260498046875,-0.1220703125,-0.244140625,0.0,0.4521484375,-0.79638671875,0.4044189453125,-295.0,149.0,-148.0,101711.0,-3.2160000801086426,0,0
1.8668337000126485,0.375732421875,-0.454132080078125,0.304351806640625,-0.748260498046875,0.30517578125,-0.06103515625,-0.1220703125,0.449462890625,-0.796875,0.400390625,-295.0,149.0,-148.0,101711.0,-3.2160000801086426,0,0
1.8668892999994569,0.375732421875,-0.4541015625,0.304351806640625,-0.748260498046875,0.06103515625,-0.18310546875,-0.06103515625,0.449951171875,-0.796142578125,0.40234375,-295.0,149.0,-148.0,101711.0,-3.2160000801086426,0,0
1.8669487000006484,0.375732421875,-0.4541015625,0.304351806640625,-0.748260498046875,0.06103515625,-0.18310546875,-0.06103515625,0.449951171875,-0.796142578125,0.40234375,-295.0,149.0,-148.0,101711.0,-3.2160000801086426,0,0
1.8670314000046346,0.375732421875,-0.4541015625,0.30438232421875,-0.748260498046875,0.0,-0.244140625,-0.06103515625,0.4498291015625,-0.7969970703125,0.4017333984375,-295.0,149.0,-148.0,101711.0,-3.2160000801086426,0,0
1.8670887000043876,0.375762939453125,-0.4541015625,0.30438232421875,-0.748260498046875,0.0,-0.1220703125,-0.18310546875,0.449951171875,-0.7955322265625,0.4017333984375,-295.0,149.0,-148.0,101711.0,-3.2160000801086426,0,0
1.867141900002025,0.375732421875,-0.454132080078125,0.304351806640625,-0.748260498046875,0.1220703125,-0.18310546875,-0.06103515625,0.4522705078125,-0.79541015625,0.4005126953125,-295.0,149.0,-148.0,101711.0,-3.2160000801086426,0,0
1.8671987999987323,0.375732421875,-0.454132080078125,0.304351806640625,-0.748260498046875,0.06103515625,-0.1220703125,-0.3662109375,0.451171875,-0.7952880859375,0.4012451171875,-295.0,149.0,-148.0,101711.0,-3.2160000801086426,0,0
1.867338900003233,0.375732421875,-0.454132080078125,0.304351806640625,-0.748260498046875,0.06103515625,-0.18310546875,0.06103515625,0.4500732421875,-0.7972412109375,0.4033203125,-295.0,149.0,-148.0,101711.0,-3.2160000801086426,0,0
1.8673998000012944,0.375732421875,-0.454132080078125,0.304351806640625,-0.748260498046875,0.18310546875,-0.1220703125,-0.18310546875,0.4530029296875,-0.796142578125,0.402099609375,-295.0,149.0,-148.0,101711.0,-3.2160000801086426,0,0
1.9263873000018066,0.375732421875,-0.4541015625,0.304351806640625,-0.748260498046875,-0.1220703125,-0.244140625,-0.18310546875,0.4503173828125,-0.7979736328125,0.405029296875,-295.0,149.0,-148.0,101711.0,-3.2160000801086426,0,0
1.9264496000105282,0.375732421875,-0.4541015625,0.304351806640625,-0.748260498046875,-0.244140625,-0.244140625,0.1220703125,0.4501953125,-0.7960205078125,0.4033203125,-295.0,149.0,-147.0,101711.0,-3.2140002250671387,0,0
1.9265058000019053,0.375732421875,-0.4541015625,0.304351806640625,-0.748260498046875,-0.244140625,-0.244140625,0.1220703125,0.4501953125,-0.7960205078125,0.4033203125,-295.0,149.0,-147.0,101711.0,-3.2140002250671387,0,0
1.926559300001827,0.375640869140625,-0.454071044921875,0.304412841796875,-0.748321533203125,0.18310546875,-0.3662109375,-0.06103515625,0.451904296875,-0.795166015625,0.4017333984375,-295.0,149.0,-147.0,101711.0,-3.2140002250671387,0,0
1.9266124999994645,0.375640869140625,-0.454071044921875,0.304412841796875,-0.748321533203125,0.1220703125,-0.1220703125,-0.1220703125,0.4500732421875,-0.7962646484375,0.40380859375,-295.0,149.0,-147.0,101711.0,-3.2140002250671387,0,0
1.9266665000031935,0.375640869140625,-0.454071044921875,0.304412841796875,-0.748321533203125,-0.1220703125,-0.18310546875,0.06103515625,0.4512939453125,-0.79736328125,0.40185546875,-295.0,149.0,-147.0,101711.0,-3.2140002250671387,0,0
1.9267211000114912,0.375640869140625,-0.454071044921875,0.304412841796875,-0.748321533203125,0.30517578125,-0.18310546875,-0.06103515625,0.449951171875,-0.7967529296875,0.402587890625,-295.0,149.0,-147.0,101711.0,-3.2140002250671387,0,0
1.930288900010055,0.375640869140625,-0.45404052734375,0.304412841796875,-0.748321533203125,0.18310546875,-0.1220703125,0.0,0.44921875,-0.797607421875,0.4027099609375,-295.0,149.0,-147.0,101711.0,-3.2140002250671387,0,0
1.9303494000050705,0.375640869140625,-0.45404052734375,0.304412841796875,-0.748321533203125,0.30517578125,-0.244140625,-0.06103515625,0.4505615234375,-0.796630859375,0.4029541015625,-295.0,149.0,-147.0,101711.0,-3.2140002250671387,0,0
1.9304054000094766,0.375640869140625,-0.454071044921875,0.304412841796875,-0.748321533203125,0.30517578125,-0.18310546875,-0.06103515625,0.4525146484375,-0.79638671875,0.4033203125,-295.0,149.0,-147.0,101711.0,-3.2140002250671387,0,0
1.9304575999994995,0.375640869140625,-0.45404052734375,0.304412841796875,-0.748321533203125,0.0,-0.18310546875,-0.18310546875,0.450439453125,-0.79736328125,0.402099609375,-295.0,149.0,-147.0,101711.0,-3.2140002250671387,0,0
1.9305102000071201,0.375640869140625,-0.454071044921875,0.304412841796875,-0.748321533203125,0.1220703125,-0.18310546875,-0.06103515625,0.451416015625,-0.797607421875,0.4013671875,-295.0,149.0,-147.0,101711.0,-3.2140002250671387,0,0
1.9305630000017118,0.375640869140625,-0.454071044921875,0.304412841796875,-0.748321533203125,0.1220703125,-0.18310546875,-0.06103515625,0.451416015625,-0.797607421875,0.4013671875,-295.0,149.0,-147.0,101711.0,-3.2140002250671387,0,0
1.9908444000029704,0.375640869140625,-0.45404052734375,0.304412841796875,-0.748321533203125,0.18310546875,-0.1220703125,-0.244140625,0.4501953125,-0.7972412109375,0.4007568359375,-295.0,149.0,-147.0,101711.0,-3.2140002250671387,0,0
1.9909584000124596,0.375640869140625,-0.45404052734375,0.304412841796875,-0.748321533203125,0.30517578125,-0.06103515625,-0.06103515625,0.4498291015625,-0.7974853515625,0.4014892578125,-295.0,149.0,-147.0,101711.0,-3.2140002250671387,0,0
1.9910330999991857,0.375640869140625,-0.45404052734375,0.304412841796875,-0.748321533203125,-0.1220703125,-0.244140625,-0.1220703125,0.450439453125,-0.797119140625,0.402099609375,-295.0,149.0,-147.0,101711.0,-3.2140002250671387,0,0
1.991092900003423,0.375640869140625,-0.454071044921875,0.304412841796875,-0.748321533203125,-0.06103515625,0.06103515625,-0.3662109375,0.451904296875,-0.7967529296875,0.4005126953125,-295.0,149.0,-147.0,101711.0,-3.2140002250671387,0,0
1.9911496999993687,0.37567138671875,-0.45404052734375,0.304443359375,-0.748321533203125,0.244140625,0.0,0.06103515625,0.44873046875,-0.7967529296875,0.402587890625,-295.0,149.0,-147.0,101711.0,-3.2140002250671387,0,0
1.9912958000059007,0.37567138671875,-0.45404052734375,0.304443359375,-0.748321533203125,0.06103515625,0.0,-0.18310546875,0.450439453125,-0.796142578125,0.4005126953125,-295.0,149.0,-147.0,101711.0,-3.2140002250671387,0,0
1.9913498000096297,0.37567138671875,-0.45404052734375,0.304443359375,-0.748321533203125,0.06103515625,0.0,-0.18310546875,0.450439453125,-0.796142578125,0.4005126953125,-295.0,149.0,-147.0,101711.0,-3.2140002250671387,0,0
1.9914044000033755,0.37567138671875,-0.45404052734375,0.304443359375,-0.748321533203125,0.1220703125,-0.18310546875,-0.06103515625,0.451171875,-0.79638671875,0.4024658203125,-295.0,148.0,-148.0,101711.0,-3.2160000801086426,0,0
1.9914575000002515,0.37567138671875,-0.45404052734375,0.304443359375,-0.748321533203125,0.06103515625,-0.06103515625,0.0,0.449951171875,-0.7960205078125,0.4022216796875,-295.0,148.0,-148.0,101711.0,-3.2160000801086426,0,0
1.9915271000063512,0.37567138671875,-0.45404052734375,0.304412841796875,-0.748321533203125,-0.30517578125,-0.42724609375,-0.18310546875,0.4522705078125,-0.7962646484375,0.4036865234375,-295.0,148.0,-148.0,101711.0,-3.2160000801086426,0,0
1.9915814999985741,0.37567138671875,-0.45404052734375,0.304412841796875,-0.748321533203125,-0.06103515625,-0.18310546875,-0.1220703125,0.449462890625,-0.7960205078125,0.40234375,-295.0,148.0,-148.0,101711.0,-3.2160000801086426,0,0
2.0632104000105755,0.375640869140625,-0.454071044921875,0.304412841796875,-0.748321533203125,0.1220703125,-0.244140625,-0.244140625,0.4500732421875,-0.796142578125,0.40234375,-295.0,148.0,-148.0,101711.0,-3.2160000801086426,0,0
2.063286500007962,0.375640869140625,-0.454071044921875,0.304412841796875,-0.748321533203125,0.1220703125,-0.18310546875,-0.1220703125,0.4515380859375,-0.7957763671875,0.4012451171875,-295.0,148.0,-148.0,101711.0,-3.2160000801086426,0,0
2.0633433000039076,0.375640869140625,-0.454071044921875,0.304412841796875,-0.748321533203125,0.244140625,-0.06103515625,0.0,0.4505615234375,-0.7939453125,0.4017333984375,-295.0,148.0,-148.0,101711.0,-3.2160000801086426,0,0
2.0633997000113595,0.375640869140625,-0.454071044921875,0.304412841796875,-0.748321533203125,0.244140625,-0.06103515625,0.0,0.4505615234375,-0.7939453125,0.4017333984375,-295.0,148.0,-148.0,101711.0,-3.2160000801086426,0,0
2.0634541000035824,0.375640869140625,-0.454071044921875,0.304412841796875,-0.748321533203125,-0.06103515625,0.1220703125,-0.06103515625,0.45068359375,-0.7960205078125,0.4010009765625,-295.0,148.0,-148.0,101711.0,-3.2160000801086426,0,0
2.063781700009713,0.375640869140625,-0.454071044921875,0.304412841796875,-0.748321533203125,0.244140625,-0.06103515625,0.0,0.4512939453125,-0.7969970703125,0.4029541015625,-295.0,148.0,-148.0,101711.0,-3.2160000801086426,0,0
2.0638418000016827,0.375640869140625,-0.454071044921875,0.304412841796875,-0.748321533203125,-0.06103515625,0.0,0.06103515625,0.449951171875,-0.7979736328125,0.40283203125,-295.0,148.0,-148.0,101711.0,-3.2160000801086426,0,0
2.0639174000098137,0.375640869140625,-0.45404052734375,0.304412841796875,-0.748321533203125,-0.244140625,-0.18310546875,-0.1220703125,0.4482421875,-0.79736328125,0.4010009765625,-295.0,148.0,-148.0,101711.0,-3.2160000801086426,0,0
2.063973200012697,0.37567138671875,-0.45404052734375,0.304412841796875,-0.748321533203125,-0.1220703125,0.0,-0.06103515625,0.4495849609375,-0.7977294921875,0.403076171875,-295.0,148.0,-148.0,101711.0,-3.2160000801086426,0,0
2.064027200001874,0.37567138671875,-0.45404052734375,0.304443359375,-0.748321533203125,-0.244140625,-0.244140625,0.18310546875,0.45068359375,-0.7972412109375,0.40185546875,-295.0,148.0,-148.0,101711.0,-3.2160000801086426,0,0
2.0640978000010364,0.37567138671875,-0.45404052734375,0.304443359375,-0.748321533203125,-0.1220703125,-0.18310546875,-0.06103515625,0.4478759765625,-0.7958984375,0.4007568359375,-295.0,148.0,-148.0,101711.0,-3.2160000801086426,0,0
2.064166000011028,0.37567138671875,-0.45404052734375,0.304443359375,-0.748321533203125,0.18310546875,-0.1220703125,0.1220703125,0.4501953125,-0.7965087890625,0.4012451171875,-295.0,148.0,-148.0,101711.0,-3.2160000801086426,0,0
2.1189206000126433,0.37567138671875,-0.45404052734375,0.304443359375,-0.748321533203125,0.18310546875,-0.1220703125,0.1220703125,0.4501953125,-0.7965087890625,0.4012451171875,-295.0,148.0,-148.0,101711.0,-3.2160000801086426,0,0
2.118989900001907,0.37567138671875,-0.45404052734375,0.304443359375,-0.748321533203125,0.1220703125,-0.1220703125,-0.1220703125,0.4498291015625,-0.797607421875,0.40234375,-295.0,148.0,-148.0,101711.0,-3.2160000801086426,0,0
2.1190451000002213,0.37567138671875,-0.45404052734375,0.304443359375,-0.748321533203125,0.1220703125,-0.1220703125,-0.1220703125,0.4498291015625,-0.797607421875,0.40234375,-295.0,147.0,-148.0,101712.0,-3.2170002460479736,0,0
2.119099700008519,0.37567138671875,-0.45404052734375,0.304443359375,-0.748321533203125,0.18310546875,0.0,-0.244140625,0.452392578125,-0.7965087890625,0.4014892578125,-295.0,147.0,-148.0,101712.0,-3.2170002460479736,0,0
2.1191544000030262,0.37567138671875,-0.45404052734375,0.304443359375,-0.748321533203125,0.244140625,0.06103515625,-0.244140625,0.453369140625,-0.798583984375,0.4019775390625,-295.0,147.0,-148.0,101712.0,-3.2170002460479736,0,0
2.1192091000120854,0.37567138671875,-0.45404052734375,0.304443359375,-0.748321533203125,-0.06103515625,-0.1220703125,-0.3662109375,0.4486083984375,-0.795654296875,0.402099609375,-295.0,147.0,-148.0,101712.0,-3.2170002460479736,0,0
2.120089800009737,0.37567138671875,-0.45404052734375,0.304443359375,-0.748321533203125,0.18310546875,0.06103515625,-0.06103515625,0.45068359375,-0.7958984375,0.40185546875,-295.0,147.0,-148.0,101712.0,-3.2170002460479736,0,0
2.1201450000080513,0.37567138671875,-0.45404052734375,0.304443359375,-0.748321533203125,-0.18310546875,-0.18310546875,0.18310546875,0.4508056640625,-0.7962646484375,0.400390625,-295.0,147.0,-148.0,101712.0,-3.2170002460479736,0,0
2.1202008000109345,0.37567138671875,-0.45404052734375,0.304443359375,-0.748321533203125,-0.06103515625,0.0,0.1220703125,0.4505615234375,-0.79443359375,0.402099609375,-295.0,147.0,-148.0,101712.0,-3.2170002460479736,0,0
2.120256000009249,0.37567138671875,-0.454071044921875,0.304443359375,-0.748321533203125,0.1220703125,0.0,-0.06103515625,0.451904296875,-0.798095703125,0.4013671875,-295.0,147.0,-148.0,101712.0,-3.2170002460479736,0,0
2.1203095000091707,0.37567138671875,-0.454071044921875,0.304443359375,-0.748321533203125,0.1220703125,0.0,-0.06103515625,0.451904296875,-0.798095703125,0.4013671875,-295.0,147.0,-148.0,101712.0,-3.2170002460479736,0,0
2.1205043000081787,0.37567138671875,-0.454071044921875,0.304443359375,-0.748321533203125,0.06103515625,0.18310546875,0.0,0.4493408203125,-0.795166015625,0.4013671875,-295.0,147.0,-148.0,101712.0,-3.2170002460479736,0,0
2.185982900002273,0.375640869140625,-0.454071044921875,0.304443359375,-0.748321533203125,0.18310546875,-0.18310546875,0.18310546875,0.4501953125,-0.7965087890625,0.40185546875,-295.0,147.0,-148.0,101712.0,-3.2170002460479736,0,0
2.1860550999990664,0.375640869140625,-0.454071044921875,0.304443359375,-0.748321533203125,-0.30517578125,-0.06103515625,-0.18310546875,0.452392578125,-0.7957763671875,0.403076171875,-295.0,147.0,-148.0,101712.0,-3.2170002460479736,0,0
2.1884382999996888,0.375640869140625,-0.454071044921875,0.304443359375,-0.748321533203125,0.18310546875,-0.06103515625,-0.06103515625,0.449462890625,-0.796142578125,0.4014892578125,-295.0,147.0,-148.0,101712.0,-3.2170002460479736,0,0
2.188513300003251,0.375640869140625,-0.454071044921875,0.304443359375,-0.748321533203125,0.06103515625,-0.06103515625,-0.244140625,0.449951171875,-0.7952880859375,0.399658203125,-295.0,147.0,-148.0,101712.0,-3.2170002460479736,0,0
2.1885696000099415,0.375640869140625,-0.454071044921875,0.304443359375,-0.748321533203125,0.0,-0.18310546875,-0.18310546875,0.451171875,-0.795166015625,0.4012451171875,-295.0,147.0,-148.0,101712.0,-3.2170002460479736,0,0
2.188644800000475,0.375640869140625,-0.454071044921875,0.304443359375,-0.748321533203125,0.0,-0.18310546875,-0.18310546875,0.451171875,-0.795166015625,0.4012451171875,-295.0,147.0,-148.0,101712.0,-3.2170002460479736,0,0
2.1886994000087725,0.375640869140625,-0.454071044921875,0.304443359375,-0.748321533203125,0.18310546875,-0.06103515625,-0.244140625,0.44873046875,-0.794921875,0.402099609375,-295.0,147.0,-148.0,101712.0,-3.2170002460479736,0,0
2.1887540000025183,0.375640869140625,-0.454071044921875,0.304443359375,-0.748321533203125,-0.244140625,-0.244140625,-0.18310546875,0.4493408203125,-0.7945556640625,0.402587890625,-295.0,147.0,-148.0,101712.0,-3.2170002460479736,0,0
2.1888078000047244,0.375640869140625,-0.454071044921875,0.304443359375,-0.748321533203125,0.1220703125,0.0,0.0,0.449951171875,-0.7957763671875,0.4017333984375,-295.0,148.0,-148.0,101712.0,-3.2170002460479736,0,0
2.188863700008369,0.375640869140625,-0.454071044921875,0.304443359375,-0.748321533203125,0.18310546875,-0.18310546875,0.0,0.449462890625,-0.795166015625,0.4010009765625,-295.0,148.0,-148.0,101712.0,-3.2170002460479736,0,0
2.1889197999989847,0.37567138671875,-0.45404052734375,0.304443359375,-0.748321533203125,0.1220703125,-0.244140625,0.0,0.44775390625,-0.794921875,0.402587890625,-295.0,148.0,-148.0,101712.0,-3.2170002460479736,0,0
2.243669100003899,0.375640869140625,-0.454071044921875,0.304443359375,-0.748321533203125,0.0,0.0,-0.06103515625,0.4493408203125,-0.7940673828125,0.402587890625,-295.0,148.0,-148.0,101712.0,-3.2170002460479736,0,0
2.2437304000050062,0.375640869140625,-0.454071044921875,0.304412841796875,-0.748321533203125,0.1220703125,-0.30517578125,0.06103515625,0.4501953125,-0.7947998046875,0.4017333984375,-295.0,148.0,-148.0,101712.0,-3.2170002460479736,0,0
2.2437893000023905,0.375640869140625,-0.454071044921875,0.304412841796875,-0.748321533203125,0.1220703125,-0.30517578125,0.06103515625,0.4501953125,-0.7947998046875,0.4017333984375,-295.0,148.0,-148.0,101712.0,-3.2170002460479736,0,0
2.2438459000113653,0.375640869140625,-0.454071044921875,0.304443359375,-0.748321533203125,-0.06103515625,-0.244140625,-0.1220703125,0.449462890625,-0.7974853515625,0.4000244140625,-295.0,148.0,-148.0,101712.0,-3.2170002460479736,0,0
2.243991700001061,0.375640869140625,-0.454071044921875,0.304443359375,-0.748321533203125,-0.244140625,-0.1220703125,0.18310546875,0.4490966796875,-0.7962646484375,0.4019775390625,-295.0,148.0,-148.0,101712.0,-3.2170002460479736,0,0
2.244099900010042,0.375640869140625,-0.454071044921875,0.304443359375,-0.748321533203125,0.18310546875,-0.1220703125,0.06103515625,0.450927734375,-0.7967529296875,0.40185546875,-295.0,148.0,-148.0,101712.0,-3.2170002460479736,0,0
2.2441532000084408,0.375640869140625,-0.454071044921875,0.304443359375,-0.748321533203125,0.0,-0.1220703125,-0.3662109375,0.451171875,-0.7952880859375,0.3997802734375,-295.0,148.0,-148.0,101712.0,-3.2170002460479736,0,0
2.2442043000046397,0.375640869140625,-0.454071044921875,0.304443359375,-0.748321533203125,0.06103515625,-0.18310546875,0.06103515625,0.451171875,-0.795654296875,0.400390625,-295.0,148.0,-148.0,101712.0,-3.2170002460479736,0,0
2.2442558000038844,0.375640869140625,-0.454071044921875,0.304443359375,-0.748321533203125,0.1220703125,-0.06103515625,0.0,0.44970703125,-0.79638671875,0.4024658203125,-295.0,148.0,-148.0,101712.0,-3.2170002460479736,0,0
2.244307300003129,0.37567138671875,-0.454071044921875,0.304443359375,-0.748321533203125,-0.244140625,-0.3662109375,0.244140625,0.4505615234375,-0.7960205078125,0.4046630859375,-295.0,148.0,-148.0,101712.0,-3.2170002460479736,0,0
2.244358200012357,0.375640869140625,-0.454071044921875,0.304443359375,-0.748321533203125,0.1220703125,-0.30517578125,0.244140625,0.4481201171875,-0.79638671875,0.4039306640625,-295.0,148.0,-148.0,101712.0,-3.2170002460479736,0,0
2.2444094000093173,0.375640869140625,-0.454071044921875,0.304443359375,-0.748321533203125,0.1220703125,-0.30517578125,0.244140625,0.4481201171875,-0.79638671875,0.4039306640625,-295.0,148.0,-148.0,101712.0,-3.2170002460479736,0,0
2.318171999999322,0.375640869140625,-0.454071044921875,0.304443359375,-0.748321533203125,0.0,0.0,-0.18310546875,0.4508056640625,-0.7965087890625,0.4033203125,-295.0,148.0,-148.0,101712.0,-3.2170002460479736,0,0
2.318234400008805,0.375640869140625,-0.454071044921875,0.304412841796875,-0.748321533203125,0.30517578125,0.0,0.0,0.453857421875,-0.7955322265625,0.402099609375,-295.0,148.0,-148.0,101712.0,-3.2170002460479736,0,0
2.3182898000086425,0.375640869140625,-0.454071044921875,0.304412841796875,-0.748321533203125,-0.06103515625,-0.18310546875,0.0,0.45068359375,-0.7950439453125,0.4013671875,-295.0,148.0,-148.0,101712.0,-3.2170002460479736,0,0
2.3183442000008654,0.375640869140625,-0.454071044921875,0.304412841796875,-0.748321533203125,-0.3662109375,-0.1220703125,-0.1220703125,0.4508056640625,-0.794677734375,0.4000244140625,-295.0,148.0,-148.0,101711.0,-3.2160000801086426,0,0
2.3183992999984184,0.375640869140625,-0.454071044921875,0.304412841796875,-0.748321533203125,0.18310546875,-0.06103515625,-0.1220703125,0.4500732421875,-0.7972412109375,0.4024658203125,-295.0,149.0,-149.0,101711.0,-3.2160000801086426,0,0
2.318451400002232,0.37554931640625,-0.45404052734375,0.304473876953125,-0.748382568359375,-0.1220703125,0.06103515625,-0.1220703125,0.4500732421875,-0.7940673828125,0.4000244140625,-295.0,149.0,-149.0,101711.0,-3.2160000801086426,0,0
2.3185232000105316,0.37554931640625,-0.45404052734375,0.304473876953125,-0.748382568359375,0.42724609375,-0.244140625,0.0,0.4498291015625,-0.7955322265625,0.4010009765625,-295.0,149.0,-149.0,101711.0,-3.2160000801086426,0,0
2.318577500001993,0.37554931640625,-0.45404052734375,0.304473876953125,-0.748382568359375,0.18310546875,-0.18310546875,0.06103515625,0.4501953125,-0.7950439453125,0.40087890625,-295.0,149.0,-149.0,101711.0,-3.2160000801086426,0,0
2.318629700006568,0.37554931640625,-0.45404052734375,0.304473876953125,-0.748382568359375,0.06103515625,-0.06103515625,-0.1220703125,0.452392578125,-0.793212890625,0.4007568359375,-295.0,149.0,-149.0,101711.0,-3.2160000801086426,0,0
2.318684600002598,0.37554931640625,-0.45404052734375,0.304473876953125,-0.748382568359375,0.06103515625,-0.06103515625,-0.1220703125,0.452392578125,-0.793212890625,0.4007568359375,-295.0,149.0,-149.0,101711.0,-3.2160000801086426,0,0
2.318737900000997,0.37554931640625,-0.45404052734375,0.304473876953125,-0.748382568359375,0.06103515625,-0.18310546875,0.1220703125,0.4505615234375,-0.794921875,0.400390625,-295.0,149.0,-149.0,101711.0,-3.2160000801086426,0,0
2.318790200006333,0.375518798828125,-0.45404052734375,0.304473876953125,-0.748382568359375,0.30517578125,0.06103515625,0.244140625,0.45166015625,-0.7967529296875,0.4014892578125,-295.0,149.0,-149.0,101711.0,-3.2160000801086426,0,0
2.375949799999944,0.375518798828125,-0.45404052734375,0.304473876953125,-0.74835205078125,0.18310546875,0.06103515625,0.0,0.450927734375,-0.7979736328125,0.40087890625,-295.0,149.0,-149.0,101711.0,-3.2160000801086426,0,0
2.376011500004097,0.375518798828125,-0.45404052734375,0.304473876953125,-0.74835205078125,0.244140625,-0.1220703125,-0.18310546875,0.4500732421875,-0.796875,0.4014892578125,-295.0,149.0,-149.0,101711.0,-3.2160000801086426,0,0
2.3760661000123946,0.37554931640625,-0.45404052734375,0.30450439453125,-0.74835205078125,0.30517578125,-0.30517578125,-0.1220703125,0.44775390625,-0.7978515625,0.40185546875,-295.0,149.0,-149.0,101711.0,-3.2160000801086426,0,0
2.376119300010032,0.37554931640625,-0.45404052734375,0.30450439453125,-0.74835205078125,0.3662109375,-0.3662109375,-0.1220703125,0.4520263671875,-0.7991943359375,0.4029541015625,-295.0,149.0,-149.0,101711.0,-3.2160000801086426,0,0
2.3761712000123225,0.37554931640625,-0.45404052734375,0.30450439453125,-0.74835205078125,0.3662109375,-0.3662109375,-0.1220703125,0.4520263671875,-0.7991943359375,0.4029541015625,-295.0,149.0,-149.0,101711.0,-3.2160000801086426,0,0
2.37725180000416,0.37554931640625,-0.45404052734375,0.304473876953125,-0.74835205078125,0.06103515625,0.0,0.06103515625,0.4498291015625,-0.7947998046875,0.4024658203125,-295.0,149.0,-149.0,101711.0,-3.2160000801086426,0,0
2.3773140999983298,0.37554931640625,-0.45404052734375,0.30450439453125,-0.74835205078125,-0.244140625,-0.06103515625,-0.06103515625,0.4500732421875,-0.7969970703125,0.401611328125,-295.0,149.0,-149.0,101711.0,-3.2160000801086426,0,0
2.3773683000035817,0.37554931640625,-0.45404052734375,0.30450439453125,-0.74835205078125,0.244140625,-0.42724609375,-0.1220703125,0.45068359375,-0.7958984375,0.40087890625,-295.0,149.0,-149.0,101711.0,-3.2160000801086426,0,0
2.3774203000066336,0.37554931640625,-0.45404052734375,0.30450439453125,-0.74835205078125,0.3662109375,0.0,-0.06103515625,0.4500732421875,-0.7957763671875,0.3995361328125,-295.0,149.0,-149.0,101711.0,-3.2160000801086426,0,0
2.377473000000464,0.37554931640625,-0.45404052734375,0.30450439453125,-0.74835205078125,0.1220703125,-0.06103515625,-0.06103515625,0.449462890625,-0.7969970703125,0.4017333984375,-295.0,149.0,-149.0,101711.0,-3.2160000801086426,0,0
2.3775247000012314,0.37554931640625,-0.45404052734375,0.30450439453125,-0.74835205078125,0.1220703125,-0.06103515625,-0.06103515625,0.449462890625,-0.7969970703125,0.4017333984375,-295.0,150.0,-147.0,101712.0,-3.2170002460479736,0,0
2.377575500009698,0.375640869140625,-0.4541015625,0.304443359375,-0.748291015625,0.30517578125,0.0,-0.1220703125,0.4493408203125,-0.7958984375,0.4007568359375,-295.0,150.0,-147.0,101712.0,-3.2170002460479736,0,0
2.4382573000038974,0.375640869140625,-0.4541015625,0.304443359375,-0.748291015625,-0.1220703125,-0.3662109375,0.1220703125,0.452392578125,-0.79638671875,0.403564453125,-295.0,150.0,-147.0,101712.0,-3.2170002460479736,0,0
2.438325300012366,0.375640869140625,-0.4541015625,0.304443359375,-0.748291015625,0.0,0.0,0.0,0.451416015625,-0.79638671875,0.402099609375,-295.0,150.0,-147.0,101712.0,-3.2170002460479736,0,0
2.4383807000122033,0.375640869140625,-0.4541015625,0.304443359375,-0.748291015625,0.1220703125,-0.18310546875,0.1220703125,0.45166015625,-0.796142578125,0.4019775390625,-295.0,150.0,-147.0,101712.0,-3.2170002460479736,0,0
2.4384350000036648,0.375640869140625,-0.4541015625,0.304443359375,-0.748291015625,-0.3662109375,-0.1220703125,-0.1220703125,0.4490966796875,-0.7974853515625,0.4017333984375,-295.0,150.0,-147.0,101712.0,-3.2170002460479736,0,0
2.438510899999528,0.375640869140625,-0.4541015625,0.304443359375,-0.748291015625,0.3662109375,0.0,0.0,0.4493408203125,-0.7947998046875,0.3994140625,-295.0,150.0,-147.0,101712.0,-3.2170002460479736,0,0
2.438564900003257,0.375640869140625,-0.4541015625,0.304443359375,-0.748291015625,0.1220703125,0.0,-0.18310546875,0.4503173828125,-0.7960205078125,0.4010009765625,-295.0,150.0,-147.0,101712.0,-3.2170002460479736,0,0
2.438618200001656,0.375640869140625,-0.4541015625,0.304443359375,-0.748291015625,-0.06103515625,-0.30517578125,-0.06103515625,0.4510498046875,-0.7958984375,0.39990234375,-295.0,150.0,-147.0,101712.0,-3.2170002460479736,0,0
2.4386725000076694,0.375640869140625,-0.4541015625,0.304443359375,-0.748291015625,0.244140625,-0.1220703125,-0.1220703125,0.4508056640625,-0.79638671875,0.40087890625,-295.0,150.0,-147.0,101712.0,-3.2170002460479736,0,0
2.438724799998454,0.375640869140625,-0.4541015625,0.304443359375,-0.748291015625,-0.06103515625,-0.1220703125,-0.244140625,0.4500732421875,-0.7952880859375,0.401611328125,-295.0,150.0,-147.0,101712.0,-3.2170002460479736,0,0
2.4387792000052286,0.375640869140625,-0.4541015625,0.304443359375,-0.748291015625,-0.06103515625,-0.1220703125,-0.244140625,0.4500732421875,-0.7952880859375,0.401611328125,-295.0,150.0,-147.0,101712.0,-3.2170002460479736,0,0
2.4388327000051504,0.375640869140625,-0.4541015625,0.304443359375,-0.748291015625,0.18310546875,-0.06103515625,-0.30517578125,0.4490966796875,-0.7955322265625,0.4024658203125,-295.0,150.0,-147.0,101712.0,-3.2170002460479736,0,0
2.501161799998954,0.375640869140625,-0.4541015625,0.304443359375,-0.748291015625,0.0,-0.244140625,0.244140625,0.4512939453125,-0.7952880859375,0.400390625,-295.0,150.0,-147.0,101712.0,-3.2170002460479736,0,0
2.5012238000053912,0.375640869140625,-0.4541015625,0.304443359375,-0.748291015625,0.0,-0.18310546875,0.06103515625,0.4510498046875,-0.7955322265625,0.4034423828125,-295.0,150.0,-147.0,101712.0,-3.2170002460479736,0,0
2.501280600001337,0.375640869140625,-0.454071044921875,0.304443359375,-0.748291015625,0.1220703125,-0.18310546875,0.18310546875,0.44970703125,-0.7958984375,0.4039306640625,-295.0,150.0,-147.0,101712.0,-3.2170002460479736,0,0
2.501332600004389,0.375640869140625,-0.4541015625,0.304443359375,-0.748291015625,0.18310546875,-0.244140625,0.0,0.4512939453125,-0.7939453125,0.400146484375,-295.0,150.0,-147.0,101712.0,-3.2170002460479736,0,0
2.5013849000097252,0.375640869140625,-0.4541015625,0.304443359375,-0.748291015625,0.244140625,-0.30517578125,-0.42724609375,0.449951171875,-0.794677734375,0.4007568359375,-295.0,150.0,-147.0,101712.0,-3.2170002460479736,0,0
2.5014376000035554,0.375640869140625,-0.4541015625,0.304443359375,-0.748291015625,-0.06103515625,-0.1220703125,0.244140625,0.450927734375,-0.7952880859375,0.4029541015625,-295.0,150.0,-147.0,101711.0,-3.2160000801086426,0,0
2.5021417000098154,0.375640869140625,-0.4541015625,0.304443359375,-0.748321533203125,0.244140625,0.0,-0.06103515625,0.450439453125,-0.7939453125,0.40234375,-295.0,150.0,-147.0,101711.0,-3.2160000801086426,0,0
2.502203299998655,0.375732421875,-0.454132080078125,0.30438232421875,-0.748260498046875,-0.18310546875,-0.1220703125,0.1220703125,0.451904296875,-0.7962646484375,0.402587890625,-295.0,150.0,-147.0,101711.0,-3.2160000801086426,0,0
2.5022583000099985,0.375732421875,-0.454132080078125,0.30438232421875,-0.748260498046875,-0.18310546875,-0.1220703125,0.1220703125,0.451904296875,-0.7962646484375,0.402587890625,-295.0,150.0,-147.0,101711.0,-3.2160000801086426,0,0
2.502312000011443,0.375732421875,-0.454132080078125,0.30438232421875,-0.748260498046875,-0.18310546875,-0.18310546875,0.1220703125,0.45166015625,-0.7984619140625,0.401123046875,-295.0,150.0,-147.0,101711.0,-3.2160000801086426,0,0
2.5023656000121264,0.375732421875,-0.454132080078125,0.30438232421875,-0.748260498046875,0.1220703125,-0.18310546875,-0.30517578125,0.4505615234375,-0.796142578125,0.402099609375,-295.0,150.0,-147.0,101711.0,-3.2160000801086426,0,0
2.502418800009764,0.375732421875,-0.454132080078125,0.30438232421875,-0.748260498046875,0.0,-0.3662109375,-0.1220703125,0.4508056640625,-0.794921875,0.4012451171875,-295.0,150.0,-147.0,101711.0,-3.2160000801086426,0,0
2.5024709999997867,0.375732421875,-0.454132080078125,0.30438232421875,-0.748260498046875,0.42724609375,0.06103515625,-0.06103515625,0.4510498046875,-0.796630859375,0.4010009765625,-295.0,150.0,-147.0,101711.0,-3.2160000801086426,0,0
2.567462200007867,0.375732421875,-0.454132080078125,0.30438232421875,-0.748260498046875,0.1220703125,-0.1220703125,-0.18310546875,0.4501953125,-0.796630859375,0.4019775390625,-295.0,150.0,-147.0,101711.0,-3.2160000801086426,0,0
2.567529400010244,0.375732421875,-0.454132080078125,0.30438232421875,-0.748260498046875,0.1220703125,-0.1220703125,0.0,0.4503173828125,-0.797119140625,0.4029541015625,-295.0,150.0,-147.0,101711.0,-3.2160000801086426,0,0
2.5676781000074698,0.375732421875,-0.454132080078125,0.30438232421875,-0.748260498046875,0.1220703125,-0.1220703125,0.0,0.4503173828125,-0.797119140625,0.4029541015625,-295.0,150.0,-147.0,101711.0,-3.2160000801086426,0,0
2.567735700009507,0.375762939453125,-0.454132080078125,0.30438232421875,-0.748260498046875,0.06103515625,-0.1220703125,0.18310546875,0.448486328125,-0.7969970703125,0.4019775390625,-295.0,150.0,-147.0,101711.0,-3.2160000801086426,0,0
2.5678118000068935,0.375762939453125,-0.4541015625,0.30438232421875,-0.748260498046875,0.244140625,-0.1220703125,0.0,0.4495849609375,-0.79736328125,0.4029541015625,-295.0,150.0,-147.0,101711.0,-3.2160000801086426,0,0
2.5678678000112996,0.375762939453125,-0.4541015625,0.30438232421875,-0.748260498046875,0.06103515625,-0.06103515625,-0.1220703125,0.448486328125,-0.79638671875,0.402587890625,-295.0,150.0,-147.0,101711.0,-3.2160000801086426,0,0
2.5679214000119828,0.375762939453125,-0.454132080078125,0.30438232421875,-0.748260498046875,0.30517578125,-0.18310546875,0.1220703125,0.4527587890625,-0.7952880859375,0.40234375,-295.0,150.0,-147.0,101711.0,-3.2160000801086426,0,0
2.567974800011143,0.375762939453125,-0.454132080078125,0.30438232421875,-0.748260498046875,-0.1220703125,-0.244140625,0.0,0.4501953125,-0.796630859375,0.4024658203125,-295.0,150.0,-147.0,101711.0,-3.2160000801086426,0,0
2.5680273000034504,0.375762939453125,-0.4541015625,0.30438232421875,-0.748260498046875,-0.18310546875,-0.18310546875,-0.1220703125,0.4505615234375,-0.7969970703125,0.40234375,-295.0,150.0,-147.0,101711.0,-3.2160000801086426,0,0
2.5680821999994805,0.375762939453125,-0.4541015625,0.30438232421875,-0.748260498046875,0.1220703125,-0.1220703125,0.1220703125,0.450927734375,-0.7958984375,0.4031982421875,-295.0,150.0,-147.0,101711.0,-3.2160000801086426,0,0
2.568136300003971,0.375762939453125,-0.4541015625,0.30438232421875,-0.748260498046875,-0.06103515625,0.0,0.06103515625,0.44970703125,-0.7978515625,0.4031982421875,-295.0,150.0,-147.0,101711.0,-3.2160000801086426,0,0
2.628723900008481,0.3758544921875,-0.454132080078125,0.3043212890625,-0.748199462890625,0.244140625,-0.244140625,0.0,0.4498291015625,-0.79736328125,0.4017333984375,-296.0,150.0,-147.0,101711.0,-3.2160000801086426,0,0
2.628786900007981,0.3758544921875,-0.454132080078125,0.3043212890625,-0.748199462890625,0.244140625,-0.18310546875,-0.1220703125,0.452880859375,-0.796875,0.40234375,-296.0,150.0,-147.0,101711.0,-3.2160000801086426,0,0
2.628844200007734,0.3758544921875,-0.454132080078125,0.3043212890625,-0.748199462890625,0.3662109375,-0.18310546875,-0.1220703125,0.45068359375,-0.7982177734375,0.4024658203125,-296.0,150.0,-147.0,101711.0,-3.2160000801086426,0,0
2.6288987000007182,0.3758544921875,-0.454132080078125,0.3043212890625,-0.748199462890625,-0.06103515625,-0.3662109375,-0.1220703125,0.4473876953125,-0.7965087890625,0.402099609375,-296.0,150.0,-147.0,101711.0,-3.2160000801086426,0,0
2.628951100006816,0.3758544921875,-0.454132080078125,0.3043212890625,-0.748199462890625,0.1220703125,-0.3662109375,-0.18310546875,0.4508056640625,-0.7950439453125,0.4022216796875,-296.0,150.0,-147.0,101711.0,-3.2160000801086426,0,0
2.636693300009938,0.3758544921875,-0.454132080078125,0.3043212890625,-0.74822998046875,0.06103515625,-0.1220703125,0.0,0.4501953125,-0.7960205078125,0.40234375,-296.0,150.0,-147.0,101711.0,-3.2160000801086426,0,0
2.6367553000018233,0.3758544921875,-0.454132080078125,0.3043212890625,-0.74822998046875,0.30517578125,0.0,0.0,0.449951171875,-0.795166015625,0.4044189453125,-296.0,150.0,-147.0,101711.0,-3.2160000801086426,0,0
2.6368109000031836,0.3758544921875,-0.454132080078125,0.3043212890625,-0.74822998046875,-0.06103515625,-0.06103515625,-0.1220703125,0.44970703125,-0.7955322265625,0.402587890625,-296.0,150.0,-147.0,101711.0,-3.2160000801086426,0,0
2.6368640000000596,0.3758544921875,-0.454132080078125,0.3043212890625,-0.74822998046875,-0.06103515625,-0.06103515625,-0.1220703125,0.44970703125,-0.7955322265625,0.402587890625,-296.0,150.0,-147.0,101711.0,-3.2160000801086426,0,0
2.63692030000675,0.3758544921875,-0.454132080078125,0.3043212890625,-0.74822998046875,-0.06103515625,-0.18310546875,-0.18310546875,0.4521484375,-0.796630859375,0.4041748046875,-296.0,150.0,-147.0,101711.0,-3.2160000801086426,0,0
2.6369757000065874,0.375885009765625,-0.454132080078125,0.3043212890625,-0.74822998046875,0.06103515625,-0.1220703125,-0.244140625,0.44921875,-0.796630859375,0.402099609375,-296.0,150.0,-147.0,101711.0,-3.2160000801086426,0,0
2.695863400003873,0.375885009765625,-0.454132080078125,0.3043212890625,-0.74822998046875,-0.06103515625,-0.30517578125,0.18310546875,0.4488525390625,-0.7987060546875,0.4014892578125,-296.0,150.0,-147.0,101711.0,-3.2160000801086426,0,0
2.6959310000092955,0.375885009765625,-0.4541015625,0.3043212890625,-0.74822998046875,0.18310546875,-0.18310546875,0.06103515625,0.449462890625,-0.7955322265625,0.4013671875,-296.0,150.0,-147.0,101711.0,-3.2160000801086426,0,0
2.695990200008964,0.3758544921875,-0.454132080078125,0.304290771484375,-0.74822998046875,0.18310546875,-0.18310546875,-0.30517578125,0.4505615234375,-0.794677734375,0.40283203125,-296.0,150.0,-147.0,101711.0,-3.2160000801086426,0,0
2.696045000004233,0.3758544921875,-0.454132080078125,0.304290771484375,-0.74822998046875,0.18310546875,-0.244140625,-0.06103515625,0.4525146484375,-0.7960205078125,0.403076171875,-296.0,150.0,-147.0,101711.0,-3.2160000801086426,0,0
2.696099500011769,0.3758544921875,-0.454132080078125,0.304290771484375,-0.74822998046875,0.30517578125,-0.30517578125,-0.1220703125,0.451171875,-0.796142578125,0.402099609375,-296.0,150.0,-147.0,101711.0,-3.2160000801086426,0,0
2.696153700002469,0.3758544921875,-0.4541015625,0.304290771484375,-0.74822998046875,0.1220703125,-0.244140625,-0.06103515625,0.4505615234375,-0.7958984375,0.403076171875,-296.0,150.0,-147.0,101711.0,-3.2160000801086426,0,0
2.6965300000010757,0.375885009765625,-0.4541015625,0.304290771484375,-0.74822998046875,-0.06103515625,-0.18310546875,0.30517578125,0.44970703125,-0.7950439453125,0.403564453125,-296.0,150.0,-147.0,101711.0,-3.2160000801086426,0,0
2.6965921000082744,0.375885009765625,-0.4541015625,0.304290771484375,-0.74822998046875,-0.06103515625,-0.18310546875,0.30517578125,0.44970703125,-0.7950439453125,0.403564453125,-296.0,150.0,-147.0,101711.0,-3.2160000801086426,0,0
2.6966459000104805,0.375885009765625,-0.4541015625,0.304290771484375,-0.74822998046875,-0.1220703125,-0.3662109375,0.06103515625,0.4498291015625,-0.7960205078125,0.40283203125,-297.0,150.0,-145.0,101711.0,-3.2160000801086426,0,0
2.6966992000088794,0.376373291015625,-0.454315185546875,0.303985595703125,-0.74798583984375,0.18310546875,-0.06103515625,0.0,0.4508056640625,-0.798095703125,0.402099609375,-297.0,150.0,-145.0,101711.0,-3.2160000801086426,0,0
2.696752200004994,0.376373291015625,-0.454315185546875,0.303985595703125,-0.74798583984375,0.18310546875,-0.1220703125,-0.06103515625,0.4503173828125,-0.7960205078125,0.4017333984375,-297.0,150.0,-145.0,101711.0,-3.2160000801086426,0,0
2.696807100001024,0.376373291015625,-0.454315185546875,0.303985595703125,-0.74798583984375,-0.06103515625,0.06103515625,0.1220703125,0.451416015625,-0.796142578125,0.4017333984375,-297.0,150.0,-145.0,101711.0,-3.2160000801086426,0,0
2.6968645000015385,0.376373291015625,-0.454315185546875,0.303985595703125,-0.74798583984375,0.244140625,-0.1220703125,-0.1220703125,0.4501953125,-0.7957763671875,0.40087890625,-297.0,150.0,-145.0,101711.0,-3.2160000801086426,0,0
2.756445500010159,0.376373291015625,-0.454315185546875,0.303985595703125,-0.74798583984375,-0.06103515625,-0.18310546875,0.06103515625,0.450927734375,-0.7960205078125,0.4017333984375,-297.0,150.0,-145.0,101711.0,-3.2160000801086426,0,0
2.7565120000072056,0.376373291015625,-0.454315185546875,0.303985595703125,-0.74798583984375,-0.06103515625,-0.18310546875,0.06103515625,0.450927734375,-0.7960205078125,0.4017333984375,-297.0,150.0,-145.0,101711.0,-3.2160000801086426,0,0
2.7565660000109347,0.376373291015625,-0.454315185546875,0.303985595703125,-0.74798583984375,0.1220703125,-0.18310546875,0.06103515625,0.45166015625,-0.7957763671875,0.4027099609375,-297.0,150.0,-145.0,101711.0,-3.2160000801086426,0,0
2.756619400010095,0.376373291015625,-0.454315185546875,0.303985595703125,-0.74798583984375,0.0,-0.1220703125,-0.1220703125,0.44873046875,-0.795654296875,0.4017333984375,-297.0,150.0,-145.0,101712.0,-3.2170002460479736,0,0
2.756671800001641,0.376373291015625,-0.454315185546875,0.303985595703125,-0.74798583984375,-0.06103515625,-0.18310546875,0.1220703125,0.449462890625,-0.795166015625,0.401123046875,-297.0,150.0,-145.0,101712.0,-3.2170002460479736,0,0
2.756756700007827,0.376373291015625,-0.454315185546875,0.303985595703125,-0.74798583984375,0.0,0.0,0.06103515625,0.4515380859375,-0.795166015625,0.40234375,-297.0,150.0,-145.0,101712.0,-3.2170002460479736,0,0
2.7568092000001343,0.376373291015625,-0.454315185546875,0.303985595703125,-0.74798583984375,-0.1220703125,-0.30517578125,0.06103515625,0.4495849609375,-0.795654296875,0.4027099609375,-297.0,150.0,-145.0,101712.0,-3.2170002460479736,0,0
2.7568602000101237,0.376373291015625,-0.454315185546875,0.303985595703125,-0.74798583984375,0.1220703125,0.1220703125,-0.06103515625,0.4512939453125,-0.7960205078125,0.40087890625,-297.0,150.0,-145.0,101712.0,-3.2170002460479736,0,0
2.7569119000108913,0.376373291015625,-0.454315185546875,0.303985595703125,-0.74798583984375,0.1220703125,-0.1220703125,0.0,0.451171875,-0.7960205078125,0.401611328125,-297.0,150.0,-145.0,101712.0,-3.2170002460479736,0,0
2.7569664000038756,0.376373291015625,-0.454315185546875,0.303985595703125,-0.74798583984375,0.18310546875,-0.244140625,-0.06103515625,0.4505615234375,-0.798095703125,0.4010009765625,-297.0,150.0,-145.0,101712.0,-3.2170002460479736,0,0
2.7570201000053203,0.376373291015625,-0.454315185546875,0.303985595703125,-0.74798583984375,0.18310546875,-0.06103515625,-0.06103515625,0.44921875,-0.7955322265625,0.402099609375,-297.0,150.0,-145.0,101712.0,-3.2170002460479736,0,0
2.819215000010445,0.376373291015625,-0.454315185546875,0.303985595703125,-0.74798583984375,0.1220703125,-0.1220703125,0.06103515625,0.4527587890625,-0.7962646484375,0.4046630859375,-297.0,150.0,-146.0,101712.0,-3.2170002460479736,0,0
2.8192765999992844,0.376678466796875,-0.454437255859375,0.30377197265625,-0.747833251953125,-0.06103515625,-0.1220703125,0.1220703125,0.4520263671875,-0.7989501953125,0.4024658203125,-297.0,150.0,-146.0,101712.0,-3.2170002460479736,0,0
2.8193346000043675,0.376678466796875,-0.454437255859375,0.30377197265625,-0.747833251953125,-0.54931640625,-0.30517578125,0.06103515625,0.4512939453125,-0.797607421875,0.4034423828125,-297.0,150.0,-146.0,101712.0,-3.2170002460479736,0,0
2.819388500007335,0.376678466796875,-0.454437255859375,0.303802490234375,-0.747833251953125,0.0,0.06103515625,0.0,0.4512939453125,-0.795654296875,0.402099609375,-297.0,150.0,-146.0,101712.0,-3.2170002460479736,0,0
2.8194424000103027,0.376678466796875,-0.454437255859375,0.303802490234375,-0.747833251953125,0.1220703125,-0.244140625,-0.30517578125,0.4493408203125,-0.7960205078125,0.4014892578125,-297.0,150.0,-146.0,101712.0,-3.2170002460479736,0,0
2.8198981000023196,0.376678466796875,-0.454437255859375,0.303802490234375,-0.747833251953125,0.18310546875,-0.18310546875,-0.06103515625,0.4490966796875,-0.7955322265625,0.402587890625,-297.0,150.0,-146.0,101712.0,-3.2170002460479736,0,0
2.8199547000112943,0.376678466796875,-0.454437255859375,0.303802490234375,-0.747833251953125,0.06103515625,0.06103515625,-0.18310546875,0.4488525390625,-0.79541015625,0.4017333984375,-297.0,150.0,-146.0,101712.0,-3.2170002460479736,0,0
2.820011300005717,0.376678466796875,-0.454437255859375,0.303802490234375,-0.747833251953125,0.06103515625,0.06103515625,-0.18310546875,0.4488525390625,-0.79541015625,0.4017333984375,-297.0,150.0,-146.0,101712.0,-3.2170002460479736,0,0
2.8200652000086848,0.376678466796875,-0.454437255859375,0.303802490234375,-0.747833251953125,0.1220703125,-0.1220703125,0.1220703125,0.4493408203125,-0.79638671875,0.402587890625,-297.0,150.0,-146.0,101712.0,-3.2170002460479736,0,0
2.8201189000101294,0.376678466796875,-0.454437255859375,0.303802490234375,-0.747833251953125,0.1220703125,-0.244140625,-0.06103515625,0.4503173828125,-0.7958984375,0.400634765625,-297.0,150.0,-146.0,101712.0,-3.2170002460479736,0,0
2.820170999999391,0.376678466796875,-0.454437255859375,0.303802490234375,-0.747833251953125,0.244140625,0.0,0.18310546875,0.448486328125,-0.796630859375,0.40087890625,-297.0,150.0,-146.0,101712.0,-3.2170002460479736,0,0
2.891994400008116,0.376678466796875,-0.454437255859375,0.303802490234375,-0.747833251953125,-0.1220703125,-0.06103515625,0.1220703125,0.450927734375,-0.795166015625,0.4024658203125,-297.0,150.0,-146.0,101712.0,-3.2170002460479736,0,0
2.8920641000004252,0.376678466796875,-0.454437255859375,0.303802490234375,-0.747833251953125,0.18310546875,-0.1220703125,0.1220703125,0.451171875,-0.794921875,0.39990234375,-297.0,150.0,-146.0,101712.0,-3.2170002460479736,0,0
2.8921257000038167,0.376678466796875,-0.454437255859375,0.303802490234375,-0.747833251953125,0.244140625,-0.1220703125,0.0,0.448974609375,-0.7938232421875,0.400390625,-297.0,150.0,-146.0,101712.0,-3.2170002460479736,0,0
2.892183100004331,0.376678466796875,-0.454437255859375,0.303802490234375,-0.747833251953125,-0.1220703125,0.0,-0.18310546875,0.4510498046875,-0.7950439453125,0.4005126953125,-297.0,150.0,-146.0,101712.0,-3.2170002460479736,0,0
2.89224080000713,0.376678466796875,-0.4544677734375,0.303802490234375,-0.747833251953125,0.06103515625,-0.244140625,0.0,0.4512939453125,-0.7962646484375,0.39990234375,-297.0,150.0,-146.0,101712.0,-3.2170002460479736,0,0
