Time stamp(sec),quaternion_0,quaternion_1,quaternion_2,quaternion_3,roll_angular_rate,pitch_angular_rate,yaw_angular_rate,acc_X,acc_Y,acc_Z,mag_X,mag_Y,mag_Z,pressure,altitude
2616.742003,0.302276611328125,-0.092071533203125,-0.08544921875,-0.94488525390625,-12.63427734375,5.126953125,-17.9443359375,0.2421875,0.07275390625,0.9764404296875,-54.0,-42.0,-121.0,101926.0,-4.993000030517578,0,0
2616.749018,0.301788330078125,-0.092010498046875,-0.084991455078125,-0.945098876953125,-11.77978515625,3.5400390625,-14.404296875,0.2174072265625,0.0855712890625,0.989990234375,-54.0,-42.0,-121.0,101926.0,-4.993000030517578,0,0
2616.755997,0.301361083984375,-0.09197998046875,-0.084564208984375,-0.945281982421875,-11.5966796875,2.197265625,-12.6953125,0.20361328125,0.09130859375,0.9857177734375,-54.0,-42.0,-121.0,101926.0,-4.993000030517578,0,0
2616.762996,0.30035400390625,-0.09185791015625,-0.08349609375,-0.9456787109375,-11.04736328125,1.15966796875,-8.97216796875,0.199951171875,0.11181640625,1.0023193359375,-54.0,-42.0,-121.0,101926.0,-4.993000030517578,0,0
2616.770017,0.3001708984375,-0.091796875,-0.083221435546875,-0.945770263671875,-10.009765625,1.0986328125,-4.7607421875,0.194580078125,0.1378173828125,1.009765625,-54.0,-42.0,-121.0,101926.0,-4.993000030517578,0,0
2616.777001,0.299957275390625,-0.0916748046875,-0.082611083984375,-0.9459228515625,-9.27734375,1.220703125,-2.8076171875,0.1995849609375,0.1434326171875,1.0133056640625,-54.0,-42.0,-121.0,101926.0,-4.993000030517578,0,0
2616.784018,0.300018310546875,-0.09173583984375,-0.082427978515625,-0.945892333984375,-8.544921875,-1.708984375,3.23486328125,0.2041015625,0.1417236328125,0.9962158203125,-54.0,-42.0,-121.0,101926.0,-4.993000030517578,0,0
2616.790999,0.300140380859375,-0.091827392578125,-0.082275390625,-0.94586181640625,-7.87353515625,-2.62451171875,5.126953125,0.2059326171875,0.141845703125,1.0035400390625,-54.0,-42.0,-121.0,101926.0,-4.993000030517578,0,0
2616.797999,0.3009033203125,-0.0921630859375,-0.0819091796875,-0.94561767578125,-5.43212890625,-4.08935546875,10.80322265625,0.212158203125,0.1353759765625,1.0057373046875,-54.0,-42.0,-121.0,101926.0,-4.993000030517578,0,0
2616.80502,0.301239013671875,-0.09234619140625,-0.08184814453125,-0.94549560546875,-5.18798828125,-5.55419921875,12.02392578125,0.216796875,0.1387939453125,0.9947509765625,-54.0,-42.0,-121.0,101926.0,-4.993000030517578,0,0
2616.811998,0.302093505859375,-0.0928955078125,-0.08184814453125,-0.9451904296875,-4.5166015625,-7.080078125,13.61083984375,0.2181396484375,0.1387939453125,0.992431640625,-54.0,-42.0,-121.0,101926.0,-4.993000030517578,0,0
2616.819018,0.3031005859375,-0.09356689453125,-0.0819091796875,-0.944793701171875,-2.8076171875,-8.97216796875,17.27294921875,0.234375,0.128173828125,0.9908447265625,-54.0,-42.0,-121.0,101926.0,-4.994000434875488,0,0
2616.82505,0.3031005859375,-0.09356689453125,-0.0819091796875,-0.944793701171875,-2.8076171875,-8.97216796875,17.27294921875,0.234375,0.128173828125,0.9908447265625,-54.0,-42.0,-121.0,101926.0,-4.994000434875488,0,0
2616.832003,0.3067626953125,-0.0941162109375,-0.082183837890625,-0.94354248046875,-2.5634765625,-9.3994140625,18.6767578125,0.236572265625,0.1121826171875,0.990966796875,-52.0,-39.0,-119.0,101926.0,-4.994000434875488,0,0
2616.839018,0.308624267578125,-0.09539794921875,-0.082122802734375,-0.94281005859375,-2.01416015625,-9.521484375,20.6298828125,0.24365234375,0.0986328125,0.9842529296875,-52.0,-39.0,-119.0,101926.0,-4.994000434875488,0,0
2616.845997,0.30926513671875,-0.095794677734375,-0.0821533203125,-0.942535400390625,-1.77001953125,-9.94873046875,20.5078125,0.2392578125,0.1116943359375,0.974365234375,-52.0,-39.0,-119.0,101926.0,-4.994000434875488,0,0
2616.852996,0.310577392578125,-0.096588134765625,-0.082183837890625,-0.9420166015625,-1.3427734375,-10.07080078125,20.99609375,0.234130859375,0.10400390625,0.9765625,-52.0,-39.0,-119.0,101926.0,-4.994000434875488,0,0
2616.860016,0.3118896484375,-0.0972900390625,-0.082183837890625,-0.9415283203125,-2.0751953125,-8.97216796875,20.99609375,0.2322998046875,0.116943359375,0.971923828125,-52.0,-39.0,-119.0,101926.0,-4.994000434875488,0,0
2616.867001,0.312530517578125,-0.09759521484375,-0.082244873046875,-0.9412841796875,-1.15966796875,-8.056640625,20.69091796875,0.2344970703125,0.123779296875,0.9794921875,-52.0,-39.0,-119.0,101926.0,-4.994000434875488,0,0
2616.874018,0.31378173828125,-0.09814453125,-0.0823974609375,-0.940765380859375,-1.0986328125,-7.62939453125,20.263671875,0.2352294921875,0.1279296875,0.95263671875,-52.0,-39.0,-119.0,101926.0,-4.994000434875488,0,0
2616.91505,0.31866455078125,-0.10003662109375,-0.084625244140625,-0.938751220703125,6.8359375,-3.11279296875,14.58740234375,0.2755126953125,0.121337890625,0.9580078125,-52.0,-39.0,-119.0,101926.0,-4.994000434875488,0,0
2616.922003,0.32000732421875,-0.100433349609375,-0.0855712890625,-0.938140869140625,10.31494140625,-1.28173828125,11.8408203125,0.2818603515625,0.0789794921875,0.939697265625,-49.0,-35.0,-117.0,101926.0,-4.993000030517578,0,0
2616.929018,0.321533203125,-0.100677490234375,-0.0860595703125,-0.93756103515625,9.82666015625,-1.5869140625,11.41357421875,0.2767333984375,0.0567626953125,0.9227294921875,-49.0,-35.0,-117.0,101926.0,-4.993000030517578,0,0
2616.935997,0.321868896484375,-0.100830078125,-0.086212158203125,-0.937408447265625,9.82666015625,-2.86865234375,9.3994140625,0.25927734375,0.02392578125,0.9437255859375,-49.0,-35.0,-117.0,101926.0,-4.993000030517578,0,0
2616.942996,0.3228759765625,-0.101318359375,-0.08642578125,-0.93701171875,8.7890625,-3.23486328125,8.30078125,0.25634765625,0.002197265625,0.952880859375,-49.0,-35.0,-117.0,101926.0,-4.993000030517578,0,0
2616.950016,0.323150634765625,-0.101531982421875,-0.08648681640625,-0.9368896484375,8.6669921875,-6.34765625,6.77490234375,0.2386474609375,0.0057373046875,0.9718017578125,-49.0,-35.0,-117.0,101926.0,-4.993000030517578,0,0
2616.957001,0.323822021484375,-0.10205078125,-0.086700439453125,-0.936553955078125,9.033203125,-6.2255859375,6.28662109375,0.2314453125,0.003662109375,0.9832763671875,-49.0,-35.0,-117.0,101926.0,-4.993000030517578,0,0
2616.964018,0.324005126953125,-0.102203369140625,-0.0867919921875,-0.936492919921875,8.48388671875,-7.87353515625,3.84521484375,0.21728515625,0.0233154296875,1.0059814453125,-49.0,-35.0,-117.0,101926.0,-4.993000030517578,0,0
2616.970995,0.324127197265625,-0.102264404296875,-0.086944580078125,-0.936431884765625,9.82666015625,-7.080078125,2.50244140625,0.2135009765625,0.0283203125,1.0238037109375,-49.0,-35.0,-117.0,101926.0,-4.993000030517578,0,0
2616.977994,0.324371337890625,-0.1024169921875,-0.087432861328125,-0.936279296875,9.521484375,-6.89697265625,2.0751953125,0.2139892578125,0.0274658203125,1.0216064453125,-49.0,-35.0,-117.0,101926.0,-4.993000030517578,0,0
2616.985019,0.32440185546875,-0.10235595703125,-0.087646484375,-0.936248779296875,11.41357421875,-5.37109375,-0.67138671875,0.2099609375,0.043701171875,1.0574951171875,-49.0,-35.0,-117.0,101926.0,-4.993000030517578,0,0
2617.005996,0.324249267578125,-0.1016845703125,-0.08892822265625,-0.936248779296875,11.1083984375,-4.33349609375,-3.23486328125,0.2049560546875,0.0855712890625,1.029052734375,-49.0,-35.0,-117.0,101926.0,-4.993000030517578,0,0
2617.012029,0.324249267578125,-0.1016845703125,-0.08892822265625,-0.936248779296875,11.1083984375,-4.33349609375,-3.23486328125,0.2049560546875,0.0855712890625,1.029052734375,-49.0,-35.0,-117.0,101926.0,-4.993000030517578,0,0
2617.019019,0.32379150390625,-0.10089111328125,-0.090545654296875,-0.93634033203125,11.1083984375,-2.44140625,-3.7841796875,0.2095947265625,0.12646484375,1.0299072265625,-49.0,-35.0,-117.0,101926.0,-4.993000030517578,0,0
2617.025997,0.322174072265625,-0.100799560546875,-0.0909423828125,-0.936859130859375,10.8642578125,-2.01416015625,-4.7607421875,0.2216796875,0.1693115234375,0.982666015625,-46.0,-32.0,-115.0,101926.0,-4.993000030517578,0,0
2617.032996,0.3218994140625,-0.100341796875,-0.091949462890625,-0.936920166015625,11.04736328125,-1.46484375,-4.82177734375,0.2244873046875,0.165283203125,0.983642578125,-46.0,-32.0,-115.0,101926.0,-4.993000030517578,0,0
2617.040017,0.3216552734375,-0.100006103515625,-0.09295654296875,-0.93695068359375,10.31494140625,-0.67138671875,-4.57763671875,0.25146484375,0.16064453125,0.9610595703125,-46.0,-32.0,-115.0,101926.0,-4.993000030517578,0,0
2617.047001,0.321380615234375,-0.099884033203125,-0.093963623046875,-0.93695068359375,10.6201171875,-1.64794921875,-4.7607421875,0.257080078125,0.15673828125,0.9537353515625,-46.0,-32.0,-115.0,101926.0,-4.993000030517578,0,0
2617.054018,0.321258544921875,-0.099853515625,-0.094390869140625,-0.93695068359375,9.6435546875,-1.89208984375,-4.150390625,0.2650146484375,0.1280517578125,0.96044921875,-46.0,-32.0,-115.0,101926.0,-4.993000030517578,0,0
2617.060999,0.321075439453125,-0.099853515625,-0.095062255859375,-0.93695068359375,8.1787109375,-0.6103515625,-3.35693359375,0.2744140625,0.1160888671875,0.95849609375,-46.0,-32.0,-115.0,101926.0,-4.993000030517578,0,0
2617.067999,0.3209228515625,-0.099884033203125,-0.095550537109375,-0.93695068359375,6.9580078125,-0.3662109375,-3.0517578125,0.277587890625,0.112060546875,0.948974609375,-46.0,-32.0,-115.0,101926.0,-4.993000030517578,0,0
2617.07502,0.32086181640625,-0.099884033203125,-0.09576416015625,-0.93695068359375,4.94384765625,1.03759765625,-2.44140625,0.2828369140625,0.1151123046875,0.9471435546875,-46.0,-32.0,-115.0,101926.0,-4.993000030517578,0,0
2617.081998,0.32073974609375,-0.099945068359375,-0.096221923828125,-0.936920166015625,2.8076171875,1.3427734375,-1.953125,0.2779541015625,0.121337890625,0.92578125,-46.0,-32.0,-115.0,101926.0,-4.993000030517578,0,0
2617.089018,0.320709228515625,-0.099945068359375,-0.096343994140625,-0.936920166015625,1.708984375,1.77001953125,-1.28173828125,0.2730712890625,0.1280517578125,0.9183349609375,-46.0,-32.0,-115.0,101926.0,-4.993000030517578,0,0
2617.095996,0.3206787109375,-0.0999755859375,-0.096405029296875,-0.936920166015625,0.1220703125,1.89208984375,-0.79345703125,0.2706298828125,0.1280517578125,0.91552734375,-46.0,-32.0,-115.0,101926.0,-4.993000030517578,0,0
2617.102029,0.3206787109375,-0.0999755859375,-0.096405029296875,-0.936920166015625,0.1220703125,1.89208984375,-0.79345703125,0.2706298828125,0.1280517578125,0.91552734375,-46.0,-32.0,-115.0,101926.0,-4.993000030517578,0,0
2617.109018,0.32061767578125,-0.099578857421875,-0.096649169921875,-0.93695068359375,0.18310546875,5.06591796875,-0.42724609375,0.2606201171875,0.1397705078125,0.906982421875,-46.0,-32.0,-115.0,101926.0,-4.993000030517578,0,0
2617.115997,0.32061767578125,-0.099456787109375,-0.096710205078125,-0.936981201171875,0.30517578125,5.615234375,-0.244140625,0.265869140625,0.134033203125,0.9095458984375,-46.0,-32.0,-115.0,101926.0,-4.991000175476074,0,0
2617.122996,0.32061767578125,-0.09918212890625,-0.096771240234375,-0.936981201171875,0.8544921875,7.2021484375,-0.48828125,0.279541015625,0.1219482421875,0.9140625,-44.0,-30.0,-114.0,101926.0,-4.991000175476074,0,0
2617.130016,0.323577880859375,-0.09869384765625,-0.09710693359375,-0.936004638671875,0.67138671875,7.2021484375,-0.6103515625,0.2943115234375,0.1190185546875,0.9046630859375,-44.0,-30.0,-114.0,101926.0,-4.991000175476074,0,0
2617.137001,0.323577880859375,-0.0986328125,-0.097076416015625,-0.936004638671875,0.1220703125,7.32421875,-0.42724609375,0.292724609375,0.10888671875,0.90966796875,-44.0,-30.0,-114.0,101926.0,-4.991000175476074,0,0
2617.144018,0.323638916015625,-0.098541259765625,-0.096771240234375,-0.93603515625,-1.89208984375,6.04248046875,-0.30517578125,0.28955078125,0.0980224609375,0.9278564453125,-44.0,-30.0,-114.0,101926.0,-4.991000175476074,0,0
2617.150995,0.32366943359375,-0.098541259765625,-0.09661865234375,-0.93603515625,-2.5634765625,5.0048828125,-0.1220703125,0.2803955078125,0.0965576171875,0.93310546875,-44.0,-30.0,-114.0,101926.0,-4.991000175476074,0,0
2617.157994,0.323638916015625,-0.0986328125,-0.09600830078125,-0.93609619140625,-2.99072265625,3.60107421875,0.1220703125,0.273681640625,0.0902099609375,0.9398193359375,-44.0,-30.0,-114.0,101926.0,-4.991000175476074,0,0
2617.179018,0.323486328125,-0.098602294921875,-0.094635009765625,-0.936279296875,-6.04248046875,-0.3662109375,-0.732421875,0.203369140625,0.107666015625,1.004638671875,-44.0,-30.0,-114.0,101926.0,-4.991000175476074,0,0
2617.185996,0.32342529296875,-0.098541259765625,-0.094329833984375,-0.93634033203125,-6.4697265625,-0.42724609375,-1.220703125,0.1998291015625,0.1053466796875,1.0078125,-44.0,-30.0,-114.0,101926.0,-4.991000175476074,0,0
2617.192996,0.32330322265625,-0.098388671875,-0.093841552734375,-0.93646240234375,-6.2255859375,-0.6103515625,-1.0986328125,0.1949462890625,0.114501953125,1.0130615234375,-44.0,-30.0,-114.0,101926.0,-4.991000175476074,0,0
2617.199028,0.32330322265625,-0.098388671875,-0.093841552734375,-0.93646240234375,-6.2255859375,-0.6103515625,-1.0986328125,0.1949462890625,0.114501953125,1.0130615234375,-44.0,-30.0,-114.0,101926.0,-4.991000175476074,0,0
2617.205997,0.323089599609375,-0.098175048828125,-0.093292236328125,-0.936614990234375,-5.859375,-0.8544921875,-1.52587890625,0.2064208984375,0.14697265625,1.0234375,-44.0,-30.0,-114.0,101926.0,-4.991000175476074,0,0
2617.212996,0.322906494140625,-0.098114013671875,-0.093109130859375,-0.93670654296875,-6.8359375,-1.40380859375,-1.3427734375,0.2127685546875,0.143310546875,1.00927734375,-44.0,-30.0,-114.0,101926.0,-4.991000175476074,0,0
2617.220016,0.3226318359375,-0.09814453125,-0.093048095703125,-0.936798095703125,-3.662109375,-2.44140625,-2.74658203125,0.228515625,0.160888671875,0.9942626953125,-44.0,-30.0,-114.0,101926.0,-4.993000030517578,0,0
2617.227001,0.324005126953125,-0.09808349609375,-0.093170166015625,-0.936309814453125,-4.82177734375,-3.23486328125,-2.44140625,0.23876953125,0.1451416015625,0.993896484375,-41.0,-30.0,-114.0,101926.0,-4.993000030517578,0,0
2617.234018,0.323760986328125,-0.09820556640625,-0.093109130859375,-0.9364013671875,-4.39453125,-2.62451171875,-3.173828125,0.24072265625,0.1510009765625,1.0076904296875,-41.0,-30.0,-114.0,101926.0,-4.993000030517578,0,0
2617.240995,0.323516845703125,-0.098419189453125,-0.093109130859375,-0.93646240234375,-3.662109375,-3.60107421875,-2.8076171875,0.24462890625,0.11962890625,0.9661865234375,-41.0,-30.0,-114.0,101926.0,-4.993000030517578,0,0
2617.295997,0.322235107421875,-0.100799560546875,-0.09283447265625,-0.936676025390625,-1.64794921875,-5.859375,-1.28173828125,0.277099609375,0.1055908203125,0.9229736328125,-41.0,-30.0,-114.0,101926.0,-4.993000030517578,0,0
2617.302996,0.32208251953125,-0.10125732421875,-0.092803955078125,-0.936676025390625,-1.0986328125,-2.25830078125,-1.28173828125,0.26416015625,0.09326171875,0.9664306640625,-41.0,-30.0,-114.0,101926.0,-4.993000030517578,0,0
2617.310016,0.322052001953125,-0.10137939453125,-0.0927734375,-0.936676025390625,0.30517578125,-1.89208984375,-0.8544921875,0.261962890625,0.0821533203125,0.9412841796875,-41.0,-30.0,-114.0,101926.0,-4.993000030517578,0,0
2617.317001,0.322052001953125,-0.1015625,-0.0927734375,-0.9366455078125,1.3427734375,-2.5634765625,-0.18310546875,0.2655029296875,0.0711669921875,0.9398193359375,-39.0,-30.0,-114.0,101925.0,-4.991000175476074,0,0
2617.324018,0.32147216796875,-0.101806640625,-0.0924072265625,-0.936859130859375,1.77001953125,-1.03759765625,-0.9765625,0.2552490234375,0.0555419921875,0.9715576171875,-39.0,-30.0,-114.0,101925.0,-4.991000175476074,0,0
2617.330999,0.321502685546875,-0.101837158203125,-0.09222412109375,-0.936859130859375,1.0986328125,1.64794921875,0.18310546875,0.246826171875,0.0323486328125,0.9503173828125,-39.0,-30.0,-114.0,101925.0,-4.991000175476074,0,0
2617.337999,0.32171630859375,-0.101776123046875,-0.091766357421875,-0.93682861328125,4.21142578125,2.62451171875,0.244140625,0.2506103515625,0.0357666015625,0.9588623046875,-39.0,-30.0,-114.0,101925.0,-4.991000175476074,0,0
2617.34502,0.321807861328125,-0.101776123046875,-0.091522216796875,-0.93682861328125,0.3662109375,2.74658203125,1.52587890625,0.256103515625,0.0244140625,0.9500732421875,-39.0,-30.0,-114.0,101925.0,-4.991000175476074,0,0
2617.351998,0.321929931640625,-0.101776123046875,-0.09136962890625,-0.936798095703125,1.89208984375,2.25830078125,2.01416015625,0.2532958984375,0.0419921875,0.9571533203125,-39.0,-30.0,-114.0,101925.0,-4.991000175476074,0,0
2617.359018,0.322235107421875,-0.10186767578125,-0.090911865234375,-0.936737060546875,-0.9765625,1.220703125,2.25830078125,0.248291015625,0.056640625,0.9405517578125,-39.0,-30.0,-114.0,101925.0,-4.991000175476074,0,0
2617.365996,0.322357177734375,-0.101959228515625,-0.090789794921875,-0.93670654296875,-1.220703125,-1.3427734375,3.11279296875,0.2392578125,0.0794677734375,0.9664306640625,-39.0,-30.0,-114.0,101925.0,-4.991000175476074,0,0
2617.372996,0.32244873046875,-0.10198974609375,-0.090667724609375,-0.936676025390625,-1.3427734375,-1.15966796875,3.35693359375,0.23388671875,0.0877685546875,0.9786376953125,-39.0,-30.0,-114.0,101925.0,-4.991000175476074,0,0
2617.380021,0.32275390625,-0.101959228515625,-0.090484619140625,-0.93658447265625,-1.8310546875,-0.79345703125,3.41796875,0.218505859375,0.1304931640625,1.0050048828125,-39.0,-30.0,-114.0,101925.0,-4.991000175476074,0,0
2617.386053,0.32275390625,-0.101959228515625,-0.090484619140625,-0.93658447265625,-1.8310546875,-0.79345703125,3.41796875,0.218505859375,0.1304931640625,1.0050048828125,-39.0,-30.0,-114.0,101925.0,-4.991000175476074,0,0
2617.392996,0.32293701171875,-0.10174560546875,-0.090484619140625,-0.936553955078125,-0.79345703125,-0.1220703125,3.2958984375,0.220458984375,0.140869140625,0.989013671875,-39.0,-30.0,-114.0,101925.0,-4.991000175476074,0,0
2617.400017,0.32318115234375,-0.10150146484375,-0.09075927734375,-0.93646240234375,0.0,-0.91552734375,2.685546875,0.2188720703125,0.148193359375,0.9998779296875,-39.0,-30.0,-114.0,101925.0,-4.991000175476074,0,0
2617.407001,0.3232421875,-0.10137939453125,-0.090850830078125,-0.93646240234375,0.3662109375,0.18310546875,2.8076171875,0.224365234375,0.1480712890625,1.0057373046875,-39.0,-30.0,-114.0,101925.0,-4.991000175476074,0,0
2617.414018,0.323333740234375,-0.10125732421875,-0.0909423828125,-0.936431884765625,0.9765625,0.30517578125,2.99072265625,0.228515625,0.145751953125,0.9959716796875,-39.0,-30.0,-114.0,101926.0,-4.992000102996826,0,0
2617.435019,0.319061279296875,-0.100860595703125,-0.090789794921875,-0.93792724609375,-0.30517578125,2.13623046875,1.52587890625,0.2257080078125,0.1417236328125,1.0084228515625,-38.0,-30.0,-114.0,101926.0,-4.992000102996826,0,0
2617.441998,0.31915283203125,-0.100738525390625,-0.090789794921875,-0.93792724609375,0.18310546875,2.5634765625,2.0751953125,0.2374267578125,0.1234130859375,0.9825439453125,-38.0,-30.0,-114.0,101926.0,-4.992000102996826,0,0
2617.449018,0.319244384765625,-0.100616455078125,-0.0908203125,-0.937896728515625,-0.244140625,1.89208984375,1.77001953125,0.243896484375,0.1170654296875,0.973876953125,-38.0,-30.0,-114.0,101926.0,-4.992000102996826,0,0
2617.455996,0.31927490234375,-0.1005859375,-0.090850830078125,-0.937896728515625,-0.79345703125,0.48828125,1.15966796875,0.2548828125,0.128662109375,0.9700927734375,-38.0,-30.0,-114.0,101926.0,-4.992000102996826,0,0
2617.462996,0.319305419921875,-0.10064697265625,-0.090911865234375,-0.9378662109375,-0.79345703125,-0.30517578125,1.15966796875,0.259521484375,0.1336669921875,0.95654296875,-38.0,-30.0,-114.0,101926.0,-4.992000102996826,0,0
2617.470021,0.3193359375,-0.100860595703125,-0.091033935546875,-0.937835693359375,-1.89208984375,-0.9765625,1.15966796875,0.26806640625,0.1326904296875,0.953369140625,-38.0,-30.0,-114.0,101926.0,-4.992000102996826,0,0
2617.476049,0.3193359375,-0.100860595703125,-0.091033935546875,-0.937835693359375,-1.89208984375,-0.9765625,1.15966796875,0.26806640625,0.1326904296875,0.953369140625,-38.0,-30.0,-114.0,101926.0,-4.992000102996826,0,0
2617.482996,0.319305419921875,-0.101470947265625,-0.09112548828125,-0.937774658203125,-3.173828125,-2.44140625,0.42724609375,0.294921875,0.122314453125,0.9495849609375,-38.0,-30.0,-114.0,101926.0,-4.992000102996826,0,0
2617.490016,0.319244384765625,-0.101898193359375,-0.091064453125,-0.937744140625,-3.35693359375,-1.0986328125,-0.30517578125,0.2906494140625,0.1026611328125,0.9581298828125,-38.0,-30.0,-114.0,101926.0,-4.992000102996826,0,0
2617.497001,0.319183349609375,-0.10223388671875,-0.090789794921875,-0.937744140625,-3.72314453125,-0.244140625,-0.9765625,0.2774658203125,0.0828857421875,0.9493408203125,-38.0,-30.0,-114.0,101926.0,-4.992000102996826,0,0
2617.504018,0.319122314453125,-0.102386474609375,-0.090484619140625,-0.93780517578125,-2.74658203125,0.18310546875,-1.52587890625,0.2701416015625,0.07763671875,0.9599609375,-38.0,-30.0,-114.0,101926.0,-4.992000102996826,0,0
2617.525019,0.31439208984375,-0.10321044921875,-0.08892822265625,-0.939453125,-3.7841796875,-1.0986328125,-2.197265625,0.241943359375,0.0526123046875,0.9613037109375,-36.0,-29.0,-114.0,101926.0,-4.992000102996826,0,0
2617.531998,0.3143310546875,-0.10321044921875,-0.088714599609375,-0.939483642578125,-3.5400390625,0.79345703125,-2.3193359375,0.238525390625,0.072021484375,0.967529296875,-36.0,-29.0,-114.0,101926.0,-4.992000102996826,0,0
2617.539018,0.314056396484375,-0.103240966796875,-0.088165283203125,-0.93963623046875,-3.5400390625,0.48828125,-2.8076171875,0.2421875,0.082275390625,0.95361328125,-36.0,-29.0,-114.0,101926.0,-4.992000102996826,0,0
2617.545996,0.31396484375,-0.103179931640625,-0.088043212890625,-0.939666748046875,-3.2958984375,2.62451171875,-2.74658203125,0.25048828125,0.1002197265625,0.96630859375,-36.0,-29.0,-114.0,101926.0,-4.992000102996826,0,0
2617.552996,0.313873291015625,-0.1031494140625,-0.087890625,-0.939727783203125,-4.39453125,3.0517578125,-2.5634765625,0.2550048828125,0.098388671875,0.9569091796875,-36.0,-29.0,-114.0,101926.0,-4.992000102996826,0,0
2617.560021,0.313568115234375,-0.103057861328125,-0.08758544921875,-0.939849853515625,-4.638671875,3.41796875,-2.5634765625,0.2608642578125,0.109619140625,0.9404296875,-36.0,-29.0,-114.0,101926.0,-4.992000102996826,0,0
2617.567001,0.3134765625,-0.10302734375,-0.087493896484375,-0.939910888671875,-4.33349609375,3.173828125,-2.38037109375,0.2635498046875,0.120361328125,0.927734375,-36.0,-29.0,-114.0,101926.0,-4.992000102996826,0,0
2617.573032,0.3134765625,-0.10302734375,-0.087493896484375,-0.939910888671875,-4.33349609375,3.173828125,-2.38037109375,0.2635498046875,0.120361328125,0.927734375,-36.0,-29.0,-114.0,101926.0,-4.992000102996826,0,0
2617.580016,0.3131103515625,-0.1031494140625,-0.087371826171875,-0.940032958984375,-2.8076171875,0.48828125,-2.3193359375,0.257568359375,0.11669921875,0.9390869140625,-36.0,-29.0,-114.0,101926.0,-4.992000102996826,0,0
2617.587001,0.313018798828125,-0.10321044921875,-0.08734130859375,-0.9400634765625,-2.74658203125,-1.40380859375,-2.197265625,0.2445068359375,0.1097412109375,0.9544677734375,-36.0,-29.0,-114.0,101926.0,-4.992000102996826,0,0
2617.594019,0.31292724609375,-0.103240966796875,-0.0872802734375,-0.9400634765625,-2.197265625,-1.46484375,-2.01416015625,0.23828125,0.1068115234375,0.9730224609375,-36.0,-29.0,-114.0,101926.0,-4.992000102996826,0,0
2617.600995,0.312774658203125,-0.103240966796875,-0.087158203125,-0.940155029296875,-1.46484375,-2.25830078125,-1.3427734375,0.218017578125,0.1060791015625,0.9805908203125,-36.0,-29.0,-114.0,101926.0,-4.992000102996826,0,0
2617.607994,0.312713623046875,-0.10321044921875,-0.087127685546875,-0.940185546875,-1.3427734375,-2.0751953125,-1.220703125,0.2171630859375,0.1063232421875,0.9952392578125,-36.0,-29.0,-114.0,101926.0,-4.992000102996826,0,0
2617.615019,0.31268310546875,-0.103179931640625,-0.087066650390625,-0.940185546875,-1.40380859375,-1.5869140625,-0.67138671875,0.21875,0.1058349609375,0.99658203125,-36.0,-29.0,-114.0,101926.0,-4.992000102996826,0,0
2617.621998,0.30841064453125,-0.103363037109375,-0.086639404296875,-0.941619873046875,-1.15966796875,-1.15966796875,-0.18310546875,0.228271484375,0.12939453125,1.004150390625,-35.0,-28.0,-113.0,101926.0,-4.992000102996826,0,0
2617.629018,0.308380126953125,-0.103271484375,-0.086700439453125,-0.941619873046875,-0.8544921875,-0.1220703125,0.1220703125,0.2354736328125,0.131591796875,1.003173828125,-35.0,-28.0,-113.0,101926.0,-4.992000102996826,0,0
2617.635996,0.308349609375,-0.103118896484375,-0.0867919921875,-0.941650390625,-0.91552734375,-0.3662109375,0.54931640625,0.24072265625,0.1240234375,0.9998779296875,-35.0,-28.0,-113.0,101926.0,-4.992000102996826,0,0
2617.642996,0.30841064453125,-0.10308837890625,-0.08685302734375,-0.941619873046875,0.9765625,0.0,1.3427734375,0.2535400390625,0.1103515625,0.98291015625,-35.0,-28.0,-113.0,101926.0,-4.992000102996826,0,0
2617.650021,0.3084716796875,-0.103240966796875,-0.0870361328125,-0.94158935546875,1.220703125,-1.03759765625,1.15966796875,0.2623291015625,0.1072998046875,0.973388671875,-35.0,-28.0,-113.0,101926.0,-4.992000102996826,0,0
2617.657001,0.30859375,-0.103485107421875,-0.087188720703125,-0.941497802734375,2.74658203125,-1.89208984375,1.52587890625,0.275634765625,0.079833984375,0.973388671875,-35.0,-28.0,-113.0,101926.0,-4.992000102996826,0,0
2617.663037,0.30859375,-0.103485107421875,-0.087188720703125,-0.941497802734375,2.74658203125,-1.89208984375,1.52587890625,0.275634765625,0.079833984375,0.973388671875,-35.0,-28.0,-113.0,101926.0,-4.992000102996826,0,0
2617.670017,0.308868408203125,-0.104095458984375,-0.087249755859375,-0.94134521484375,2.50244140625,-2.685546875,2.13623046875,0.2796630859375,0.0660400390625,0.9622802734375,-35.0,-28.0,-113.0,101926.0,-4.992000102996826,0,0
2617.677001,0.30908203125,-0.10467529296875,-0.087158203125,-0.941192626953125,2.25830078125,-5.18798828125,2.99072265625,0.2728271484375,0.0272216796875,0.96044921875,-35.0,-28.0,-113.0,101926.0,-4.992000102996826,0,0
2617.697999,0.309814453125,-0.10601806640625,-0.086395263671875,-0.940887451171875,-0.8544921875,-4.150390625,4.69970703125,0.25244140625,0.0323486328125,0.976806640625,-35.0,-28.0,-113.0,101926.0,-4.992000102996826,0,0
2617.70502,0.310150146484375,-0.106353759765625,-0.0860595703125,-0.940765380859375,-1.28173828125,-3.5400390625,4.57763671875,0.248779296875,0.0426025390625,0.97265625,-35.0,-28.0,-113.0,101926.0,-4.992000102996826,0,0
2617.711998,0.310302734375,-0.10650634765625,-0.085906982421875,-0.94073486328125,-2.86865234375,-2.8076171875,4.82177734375,0.24560546875,0.0728759765625,0.96142578125,-35.0,-28.0,-113.0,101926.0,-4.992000102996826,0,0
2617.719018,0.31060791015625,-0.106719970703125,-0.085693359375,-0.94061279296875,-3.41796875,-2.62451171875,5.615234375,0.242919921875,0.1015625,0.9578857421875,-35.0,-28.0,-113.0,101926.0,-4.992000102996826,0,0
2617.725996,0.30615234375,-0.10736083984375,-0.0850830078125,-0.942047119140625,-3.173828125,-2.197265625,5.0048828125,0.248046875,0.1116943359375,0.9549560546875,-36.0,-26.0,-112.0,101926.0,-4.992000102996826,0,0
2617.732996,0.3062744140625,-0.107452392578125,-0.0850830078125,-0.941986083984375,-2.8076171875,-2.50244140625,4.69970703125,0.2530517578125,0.12744140625,0.9522705078125,-36.0,-26.0,-112.0,101926.0,-4.992000102996826,0,0
2617.740021,0.306640625,-0.107635498046875,-0.085235595703125,-0.941864013671875,-1.46484375,-2.01416015625,4.45556640625,0.2481689453125,0.12841796875,0.954345703125,-36.0,-26.0,-112.0,101926.0,-4.992000102996826,0,0
2617.747001,0.306732177734375,-0.107635498046875,-0.0853271484375,-0.941802978515625,-0.30517578125,-1.0986328125,3.84521484375,0.245361328125,0.125,0.9517822265625,-36.0,-26.0,-112.0,101926.0,-4.992000102996826,0,0
2617.754015,0.306854248046875,-0.10760498046875,-0.08538818359375,-0.9417724609375,0.1220703125,-0.244140625,3.72314453125,0.241943359375,0.1217041015625,0.9521484375,-36.0,-26.0,-112.0,101926.0,-4.992000102996826,0,0
2617.760047,0.306854248046875,-0.10760498046875,-0.08538818359375,-0.9417724609375,0.1220703125,-0.244140625,3.72314453125,0.241943359375,0.1217041015625,0.9521484375,-36.0,-26.0,-112.0,101926.0,-4.992000102996826,0,0
2617.767001,0.3072509765625,-0.107330322265625,-0.0855712890625,-0.941650390625,0.67138671875,2.99072265625,2.9296875,0.2564697265625,0.09521484375,0.947021484375,-36.0,-26.0,-112.0,101926.0,-4.992000102996826,0,0
2617.787994,0.3077392578125,-0.1070556640625,-0.0850830078125,-0.941558837890625,-3.11279296875,2.197265625,2.8076171875,0.2529296875,0.090087890625,0.9403076171875,-36.0,-26.0,-112.0,101926.0,-4.992000102996826,0,0
2617.795019,0.307952880859375,-0.1070556640625,-0.084686279296875,-0.9415283203125,-3.662109375,1.40380859375,2.685546875,0.245361328125,0.0965576171875,0.9453125,-36.0,-26.0,-112.0,101926.0,-4.992000102996826,0,0
2617.801998,0.308013916015625,-0.107086181640625,-0.084564208984375,-0.9415283203125,-5.126953125,-1.220703125,2.8076171875,0.2353515625,0.1146240234375,0.96875,-36.0,-26.0,-112.0,101926.0,-4.992000102996826,0,0
2617.809018,0.308074951171875,-0.107147216796875,-0.08441162109375,-0.941497802734375,-5.2490234375,-2.25830078125,2.8076171875,0.232421875,0.1131591796875,0.9765625,-36.0,-26.0,-112.0,101926.0,-4.992000102996826,0,0
2617.815996,0.3082275390625,-0.107269287109375,-0.08404541015625,-0.941497802734375,-5.0048828125,-2.62451171875,2.44140625,0.2286376953125,0.11181640625,0.9857177734375,-36.0,-26.0,-112.0,101926.0,-4.991000175476074,0,0
2617.822996,0.303497314453125,-0.10772705078125,-0.083404541015625,-0.943023681640625,-4.33349609375,-2.197265625,1.89208984375,0.2298583984375,0.11328125,1.0009765625,-36.0,-27.0,-114.0,101926.0,-4.991000175476074,0,0
2617.830021,0.303497314453125,-0.107757568359375,-0.083282470703125,-0.943023681640625,-4.0283203125,-2.01416015625,1.64794921875,0.2349853515625,0.1107177734375,1.00146484375,-36.0,-27.0,-114.0,101926.0,-4.991000175476074,0,0
2617.837001,0.3035888671875,-0.10784912109375,-0.082977294921875,-0.943023681640625,-4.33349609375,-1.40380859375,1.5869140625,0.24951171875,0.104736328125,1.0103759765625,-36.0,-27.0,-114.0,101926.0,-4.991000175476074,0,0
2617.844015,0.303619384765625,-0.107879638671875,-0.082855224609375,-0.943023681640625,-4.33349609375,-0.732421875,1.3427734375,0.2498779296875,0.1058349609375,1.0096435546875,-36.0,-27.0,-114.0,101926.0,-4.991000175476074,0,0
2617.850047,0.303619384765625,-0.107879638671875,-0.082855224609375,-0.943023681640625,-4.33349609375,-0.732421875,1.3427734375,0.2498779296875,0.1058349609375,1.0096435546875,-36.0,-27.0,-114.0,101926.0,-4.991000175476074,0,0
2617.857001,0.303680419921875,-0.108123779296875,-0.08245849609375,-0.9429931640625,-4.150390625,-1.0986328125,1.0986328125,0.260498046875,0.11279296875,0.994873046875,-36.0,-27.0,-114.0,101926.0,-4.991000175476074,0,0
2617.864018,0.303680419921875,-0.108184814453125,-0.0823974609375,-0.9429931640625,-4.21142578125,-1.0986328125,1.0986328125,0.26318359375,0.1099853515625,0.9937744140625,-36.0,-27.0,-114.0,101926.0,-4.991000175476074,0,0
2617.870995,0.3037109375,-0.108306884765625,-0.082275390625,-0.9429931640625,-4.33349609375,-1.220703125,0.9765625,0.2589111328125,0.1151123046875,0.9921875,-36.0,-27.0,-114.0,101926.0,-4.991000175476074,0,0
2617.877994,0.303680419921875,-0.108428955078125,-0.082183837890625,-0.9429931640625,-3.5400390625,-1.77001953125,0.54931640625,0.254638671875,0.1138916015625,0.974365234375,-36.0,-27.0,-114.0,101926.0,-4.991000175476074,0,0
2617.885019,0.30364990234375,-0.108673095703125,-0.08221435546875,-0.942962646484375,-3.0517578125,-2.38037109375,0.6103515625,0.25634765625,0.1153564453125,0.9652099609375,-36.0,-27.0,-114.0,101926.0,-4.991000175476074,0,0
2617.891998,0.303619384765625,-0.10882568359375,-0.082244873046875,-0.942962646484375,-2.62451171875,-3.662109375,-0.06103515625,0.261962890625,0.1119384765625,0.95703125,-36.0,-27.0,-114.0,101926.0,-4.991000175476074,0,0
2617.899018,0.303558349609375,-0.10919189453125,-0.082305908203125,-0.94293212890625,-2.13623046875,-4.45556640625,-0.18310546875,0.2677001953125,0.1053466796875,0.9503173828125,-36.0,-27.0,-114.0,101926.0,-4.991000175476074,0,0
2617.905996,0.30352783203125,-0.109619140625,-0.0823974609375,-0.94287109375,-0.9765625,-4.21142578125,-0.06103515625,0.2733154296875,0.092041015625,0.9530029296875,-36.0,-27.0,-114.0,101926.0,-4.991000175476074,0,0
2617.912996,0.303497314453125,-0.109832763671875,-0.082427978515625,-0.94287109375,-1.0986328125,-4.150390625,-0.244140625,0.271728515625,0.086669921875,0.95263671875,-36.0,-27.0,-114.0,101926.0,-4.991000175476074,0,0
2617.920021,0.303436279296875,-0.1102294921875,-0.0823974609375,-0.942840576171875,-1.46484375,-3.96728515625,-0.3662109375,0.27294921875,0.0782470703125,0.9495849609375,-37.0,-28.0,-114.0,101926.0,-4.991000175476074,0,0
2617.927001,0.299346923828125,-0.110931396484375,-0.081817626953125,-0.944122314453125,-1.64794921875,-3.47900390625,-0.3662109375,0.2711181640625,0.07421875,0.95703125,-37.0,-28.0,-114.0,101926.0,-4.991000175476074,0,0
2617.934015,0.29931640625,-0.111083984375,-0.081756591796875,-0.944122314453125,-1.708984375,-2.38037109375,-0.6103515625,0.2685546875,0.0679931640625,0.955078125,-37.0,-28.0,-114.0,101926.0,-4.991000175476074,0,0
2617.940999,0.29925537109375,-0.111358642578125,-0.081451416015625,-0.944122314453125,-1.953125,-1.46484375,-0.48828125,0.26171875,0.064697265625,0.9639892578125,-37.0,-28.0,-114.0,101926.0,-4.991000175476074,0,0
2617.960999,0.2991943359375,-0.11138916015625,-0.081085205078125,-0.94415283203125,0.6103515625,2.8076171875,-0.67138671875,0.26708984375,0.06884765625,0.961181640625,-37.0,-28.0,-114.0,101926.0,-4.991000175476074,0,0
2617.967999,0.299224853515625,-0.111328125,-0.0810546875,-0.944183349609375,2.01416015625,3.7841796875,-0.54931640625,0.2720947265625,0.063232421875,0.95458984375,-37.0,-28.0,-114.0,101926.0,-4.991000175476074,0,0
2617.97502,0.29925537109375,-0.111175537109375,-0.0810546875,-0.944183349609375,2.74658203125,4.21142578125,-0.67138671875,0.2783203125,0.0543212890625,0.9429931640625,-37.0,-28.0,-114.0,101926.0,-4.991000175476074,0,0
2617.981998,0.299285888671875,-0.1112060546875,-0.0810546875,-0.94415283203125,3.41796875,3.47900390625,-0.30517578125,0.293212890625,0.041259765625,0.9263916015625,-37.0,-28.0,-114.0,101926.0,-4.991000175476074,0,0
2617.989018,0.299346923828125,-0.111236572265625,-0.081024169921875,-0.94415283203125,2.5634765625,2.62451171875,0.06103515625,0.291259765625,0.0433349609375,0.9267578125,-37.0,-28.0,-114.0,101926.0,-4.991000175476074,0,0
2617.995996,0.299468994140625,-0.111541748046875,-0.0809326171875,-0.944091796875,1.03759765625,0.732421875,0.9765625,0.2938232421875,0.0430908203125,0.936279296875,-37.0,-28.0,-114.0,101926.0,-4.991000175476074,0,0
2618.002996,0.299560546875,-0.1116943359375,-0.080780029296875,-0.94403076171875,0.244140625,-0.18310546875,1.5869140625,0.2889404296875,0.0233154296875,0.9443359375,-37.0,-28.0,-114.0,101926.0,-4.991000175476074,0,0
2618.010021,0.299713134765625,-0.11212158203125,-0.080413818359375,-0.9439697265625,-1.3427734375,-0.54931640625,1.8310546875,0.2847900390625,0.026611328125,0.9427490234375,-37.0,-28.0,-114.0,101926.0,-4.991000175476074,0,0
2618.017001,0.299896240234375,-0.112548828125,-0.079986572265625,-0.94390869140625,-3.23486328125,-3.23486328125,2.62451171875,0.258056640625,0.03759765625,0.9727783203125,-37.0,-28.0,-114.0,101926.0,-4.991000175476074,0,0
2618.024015,0.2945556640625,-0.1131591796875,-0.079132080078125,-0.945587158203125,-3.35693359375,-2.62451171875,3.0517578125,0.2562255859375,0.0518798828125,0.9727783203125,-37.0,-29.0,-114.0,101926.0,-4.991000175476074,0,0
2618.030994,0.29473876953125,-0.11346435546875,-0.078857421875,-0.945526123046875,-3.84521484375,-3.5400390625,3.2958984375,0.250244140625,0.06884765625,0.9573974609375,-37.0,-29.0,-114.0,101926.0,-4.991000175476074,0,0
2618.050995,0.29510498046875,-0.113525390625,-0.0789794921875,-0.94537353515625,-2.8076171875,-1.52587890625,3.23486328125,0.2401123046875,0.1695556640625,0.9775390625,-37.0,-29.0,-114.0,101926.0,-4.991000175476074,0,0
2618.057994,0.295166015625,-0.1134033203125,-0.079376220703125,-0.945343017578125,-1.708984375,-2.38037109375,2.38037109375,0.2354736328125,0.17822265625,0.9710693359375,-37.0,-29.0,-114.0,101926.0,-4.991000175476074,0,0
2618.065019,0.295196533203125,-0.113372802734375,-0.07958984375,-0.9453125,-0.91552734375,-2.86865234375,2.3193359375,0.2386474609375,0.1741943359375,0.9788818359375,-37.0,-29.0,-114.0,101926.0,-4.991000175476074,0,0
2618.071998,0.29522705078125,-0.11328125,-0.079986572265625,-0.945281982421875,-0.8544921875,-3.72314453125,2.13623046875,0.2305908203125,0.1666259765625,0.994384765625,-37.0,-29.0,-114.0,101926.0,-4.991000175476074,0,0
2618.079018,0.295257568359375,-0.113250732421875,-0.080413818359375,-0.94525146484375,-0.9765625,-4.7607421875,1.953125,0.234375,0.1705322265625,0.9957275390625,-37.0,-29.0,-114.0,101926.0,-4.991000175476074,0,0
2618.085996,0.295257568359375,-0.113311767578125,-0.080841064453125,-0.9451904296875,-0.30517578125,-5.37109375,1.40380859375,0.2354736328125,0.1622314453125,0.9989013671875,-37.0,-29.0,-114.0,101926.0,-4.991000175476074,0,0
2618.092996,0.295257568359375,-0.1134033203125,-0.081024169921875,-0.9451904296875,0.42724609375,-6.04248046875,0.67138671875,0.241943359375,0.1326904296875,0.9993896484375,-37.0,-29.0,-114.0,101926.0,-4.991000175476074,0,0
2618.100021,0.29522705078125,-0.113616943359375,-0.081146240234375,-0.945159912109375,0.30517578125,-5.4931640625,0.244140625,0.2413330078125,0.08984375,1.0169677734375,-37.0,-29.0,-114.0,101926.0,-4.991000175476074,0,0
2618.107001,0.29522705078125,-0.113677978515625,-0.0810546875,-0.94512939453125,0.18310546875,-4.08935546875,0.244140625,0.239501953125,0.057373046875,1.010498046875,-37.0,-29.0,-114.0,101926.0,-4.991000175476074,0,0
2618.114015,0.295257568359375,-0.11376953125,-0.08099365234375,-0.94512939453125,0.3662109375,-3.84521484375,0.06103515625,0.2440185546875,0.051513671875,1.0028076171875,-37.0,-29.0,-114.0,101926.0,-4.991000175476074,0,0
2618.120994,0.295257568359375,-0.11407470703125,-0.080718994140625,-0.94512939453125,-1.28173828125,-4.638671875,0.0,0.253173828125,0.037353515625,0.98974609375,-37.0,-28.0,-114.0,101926.0,-4.991000175476074,0,0
2618.127998,0.290313720703125,-0.1148681640625,-0.07965087890625,-0.9466552734375,-4.08935546875,-3.662109375,0.42724609375,0.2657470703125,0.0302734375,0.990234375,-37.0,-28.0,-114.0,101926.0,-4.991000175476074,0,0
2618.134026,0.290313720703125,-0.1148681640625,-0.07965087890625,-0.9466552734375,-4.08935546875,-3.662109375,0.42724609375,0.2657470703125,0.0302734375,0.990234375,-37.0,-28.0,-114.0,101926.0,-4.991000175476074,0,0
2618.140995,0.290313720703125,-0.115936279296875,-0.078643798828125,-0.94659423828125,-6.65283203125,-3.72314453125,0.42724609375,0.2864990234375,0.053466796875,0.9676513671875,-37.0,-28.0,-114.0,101926.0,-4.991000175476074,0,0
2618.147994,0.290313720703125,-0.116241455078125,-0.078399658203125,-0.94659423828125,-7.568359375,-4.08935546875,0.67138671875,0.2913818359375,0.069580078125,0.9539794921875,-37.0,-28.0,-114.0,101926.0,-4.991000175476074,0,0
2618.155019,0.29022216796875,-0.116973876953125,-0.077972412109375,-0.946563720703125,-6.591796875,-3.60107421875,0.42724609375,0.2889404296875,0.0777587890625,0.961181640625,-37.0,-28.0,-114.0,101926.0,-4.991000175476074,0,0
2618.161998,0.29022216796875,-0.11724853515625,-0.077850341796875,-0.946533203125,-5.31005859375,-3.72314453125,0.18310546875,0.29150390625,0.074462890625,0.93896484375,-37.0,-28.0,-114.0,101926.0,-4.991000175476074,0,0
2618.169018,0.290191650390625,-0.117523193359375,-0.0777587890625,-0.946502685546875,-4.150390625,-4.0283203125,-0.1220703125,0.291259765625,0.0731201171875,0.9371337890625,-37.0,-28.0,-114.0,101926.0,-4.992000102996826,0,0
2618.175996,0.290130615234375,-0.117950439453125,-0.0775146484375,-0.946502685546875,-3.90625,-2.9296875,-0.18310546875,0.2884521484375,0.0679931640625,0.9466552734375,-37.0,-28.0,-114.0,101926.0,-4.992000102996826,0,0
2618.182996,0.290130615234375,-0.1180419921875,-0.0775146484375,-0.946502685546875,-0.67138671875,0.6103515625,-0.42724609375,0.285888671875,0.0628662109375,0.9400634765625,-37.0,-28.0,-114.0,101926.0,-4.992000102996826,0,0
2618.190021,0.290130615234375,-0.11810302734375,-0.077392578125,-0.94647216796875,-0.30517578125,1.3427734375,-0.18310546875,0.28955078125,0.0584716796875,0.939208984375,-37.0,-28.0,-114.0,101926.0,-4.992000102996826,0,0
2618.197001,0.2901611328125,-0.1181640625,-0.0771484375,-0.946502685546875,-1.3427734375,3.0517578125,0.06103515625,0.2940673828125,0.0450439453125,0.9388427734375,-37.0,-28.0,-114.0,101926.0,-4.992000102996826,0,0
2618.204015,0.290191650390625,-0.1181640625,-0.0770263671875,-0.946502685546875,-1.89208984375,2.99072265625,0.0,0.288330078125,0.0499267578125,0.9447021484375,-37.0,-28.0,-114.0,101926.0,-4.992000102996826,0,0
2618.224031,0.290252685546875,-0.118072509765625,-0.076416015625,-0.946533203125,-2.685546875,3.173828125,0.3662109375,0.276611328125,0.0552978515625,0.95703125,-37.0,-28.0,-113.0,101926.0,-4.992000102996826,0,0
2618.230999,0.286865234375,-0.118072509765625,-0.07568359375,-0.9476318359375,-3.90625,1.220703125,1.220703125,0.2462158203125,0.09765625,0.9649658203125,-37.0,-28.0,-113.0,101926.0,-4.992000102996826,0,0
2618.237999,0.286895751953125,-0.117919921875,-0.075714111328125,-0.9476318359375,-2.8076171875,1.3427734375,1.89208984375,0.2459716796875,0.13720703125,0.987060546875,-37.0,-28.0,-113.0,101926.0,-4.992000102996826,0,0
2618.24502,0.28692626953125,-0.117767333984375,-0.0758056640625,-0.9476318359375,-1.953125,1.8310546875,1.77001953125,0.2469482421875,0.146240234375,0.983154296875,-37.0,-28.0,-113.0,101926.0,-4.992000102996826,0,0
2618.251998,0.28704833984375,-0.11712646484375,-0.076263427734375,-0.9476318359375,-1.46484375,1.8310546875,1.77001953125,0.2452392578125,0.1533203125,0.978759765625,-37.0,-28.0,-113.0,101926.0,-4.992000102996826,0,0
2618.259018,0.287109375,-0.116851806640625,-0.076385498046875,-0.9476318359375,1.15966796875,3.72314453125,2.50244140625,0.2451171875,0.141357421875,0.99609375,-37.0,-28.0,-113.0,101926.0,-4.992000102996826,0,0
2618.265996,0.287200927734375,-0.1165771484375,-0.0765380859375,-0.9476318359375,2.25830078125,4.08935546875,2.74658203125,0.24755859375,0.13330078125,0.9976806640625,-37.0,-28.0,-113.0,101926.0,-4.992000102996826,0,0
2618.272996,0.287506103515625,-0.1158447265625,-0.076995849609375,-0.947601318359375,3.662109375,3.47900390625,2.74658203125,0.249267578125,0.1160888671875,0.982421875,-37.0,-28.0,-113.0,101926.0,-4.992000102996826,0,0
2618.280021,0.287628173828125,-0.11566162109375,-0.077117919921875,-0.94757080078125,3.7841796875,2.74658203125,2.8076171875,0.251953125,0.099853515625,0.9820556640625,-37.0,-28.0,-113.0,101926.0,-4.992000102996826,0,0
2618.287001,0.287872314453125,-0.115325927734375,-0.07733154296875,-0.947540283203125,4.33349609375,2.685546875,2.9296875,0.25146484375,0.09326171875,0.990966796875,-37.0,-28.0,-113.0,101926.0,-4.992000102996826,0,0
2618.294015,0.28814697265625,-0.115142822265625,-0.077484130859375,-0.94744873046875,4.45556640625,1.40380859375,3.47900390625,0.2672119140625,0.0731201171875,0.9661865234375,-37.0,-28.0,-113.0,101926.0,-4.992000102996826,0,0
2618.315023,0.28887939453125,-0.11517333984375,-0.0777587890625,-0.94720458984375,4.69970703125,-0.48828125,3.2958984375,0.281982421875,0.03857421875,0.9586181640625,-37.0,-28.0,-113.0,101926.0,-4.992000102996826,0,0
2618.321056,0.28887939453125,-0.11517333984375,-0.0777587890625,-0.94720458984375,4.69970703125,-0.48828125,3.2958984375,0.281982421875,0.03857421875,0.9586181640625,-37.0,-28.0,-113.0,101926.0,-4.992000102996826,0,0
2618.327994,0.2857666015625,-0.115875244140625,-0.077423095703125,-0.948089599609375,3.662109375,-2.01416015625,3.5400390625,0.2860107421875,0.039306640625,0.9541015625,-39.0,-28.0,-112.0,101926.0,-4.992000102996826,0,0
2618.335019,0.286041259765625,-0.116241455078125,-0.077484130859375,-0.947967529296875,2.50244140625,-3.5400390625,3.5400390625,0.2769775390625,0.05029296875,0.944580078125,-39.0,-28.0,-112.0,101926.0,-4.992000102996826,0,0
2618.341998,0.2862548828125,-0.116607666015625,-0.077606201171875,-0.947845458984375,2.01416015625,-3.72314453125,3.173828125,0.2789306640625,0.05615234375,0.9417724609375,-39.0,-28.0,-112.0,101926.0,-4.992000102996826,0,0
2618.349018,0.286346435546875,-0.1168212890625,-0.077667236328125,-0.947784423828125,1.3427734375,-3.7841796875,3.0517578125,0.2843017578125,0.06787109375,0.943359375,-39.0,-28.0,-112.0,101926.0,-4.992000102996826,0,0
2618.355996,0.286590576171875,-0.11737060546875,-0.077972412109375,-0.947601318359375,1.5869140625,-3.23486328125,2.44140625,0.2926025390625,0.07958984375,0.946533203125,-39.0,-28.0,-112.0,101926.0,-4.992000102996826,0,0
2618.362996,0.28662109375,-0.11749267578125,-0.078094482421875,-0.94757080078125,1.77001953125,-2.74658203125,1.40380859375,0.2806396484375,0.088134765625,0.952392578125,-39.0,-28.0,-112.0,101926.0,-4.992000102996826,0,0
2618.370021,0.286712646484375,-0.1175537109375,-0.07818603515625,-0.947540283203125,2.8076171875,-2.197265625,2.13623046875,0.2760009765625,0.0753173828125,0.960205078125,-39.0,-28.0,-112.0,101926.0,-4.993000030517578,0,0
2618.377001,0.286834716796875,-0.117706298828125,-0.07861328125,-0.94744873046875,4.0283203125,-2.01416015625,1.28173828125,0.266357421875,0.0751953125,0.9620361328125,-39.0,-28.0,-112.0,101926.0,-4.993000030517578,0,0
2618.384015,0.286895751953125,-0.11767578125,-0.078765869140625,-0.947418212890625,5.18798828125,-1.8310546875,0.732421875,0.2559814453125,0.0728759765625,0.96435546875,-39.0,-28.0,-112.0,101926.0,-4.993000030517578,0,0
2618.390994,0.287017822265625,-0.117462158203125,-0.0791015625,-0.9473876953125,5.37109375,-1.708984375,0.67138671875,0.251953125,0.0679931640625,0.9649658203125,-39.0,-28.0,-112.0,101926.0,-4.993000030517578,0,0
2618.397998,0.28704833984375,-0.117340087890625,-0.079254150390625,-0.947357177734375,6.04248046875,1.8310546875,0.244140625,0.2568359375,0.0655517578125,0.9610595703125,-39.0,-28.0,-112.0,101926.0,-4.993000030517578,0,0
2618.405018,0.287078857421875,-0.117279052734375,-0.079315185546875,-0.947357177734375,3.60107421875,1.0986328125,0.06103515625,0.2652587890625,0.0703125,0.9388427734375,-39.0,-28.0,-112.0,101926.0,-4.993000030517578,0,0
2618.411046,0.287078857421875,-0.117279052734375,-0.079315185546875,-0.947357177734375,3.60107421875,1.0986328125,0.06103515625,0.2652587890625,0.0703125,0.9388427734375,-39.0,-28.0,-112.0,101926.0,-4.993000030517578,0,0
2618.417994,0.287139892578125,-0.117034912109375,-0.07965087890625,-0.947357177734375,2.13623046875,2.685546875,0.18310546875,0.285400390625,0.0867919921875,0.9456787109375,-39.0,-28.0,-112.0,101926.0,-4.993000030517578,0,0
2618.425019,0.284576416015625,-0.117279052734375,-0.079376220703125,-0.9481201171875,0.1220703125,1.708984375,-0.18310546875,0.28857421875,0.091552734375,0.9371337890625,-39.0,-28.0,-112.0,101926.0,-4.993000030517578,0,0
2618.431998,0.2845458984375,-0.117431640625,-0.0794677734375,-0.948089599609375,-0.42724609375,0.67138671875,-0.1220703125,0.284912109375,0.0916748046875,0.9403076171875,-39.0,-28.0,-112.0,101926.0,-4.993000030517578,0,0
2618.439018,0.284515380859375,-0.117462158203125,-0.079498291015625,-0.948089599609375,-1.15966796875,-1.52587890625,-0.42724609375,0.2626953125,0.0982666015625,0.962158203125,-39.0,-28.0,-112.0,101926.0,-4.993000030517578,0,0
2618.445996,0.284454345703125,-0.117462158203125,-0.0794677734375,-0.9481201171875,-1.5869140625,-1.46484375,-0.48828125,0.2542724609375,0.10009765625,0.9739990234375,-39.0,-28.0,-112.0,101926.0,-4.993000030517578,0,0
2618.452996,0.28436279296875,-0.11737060546875,-0.079437255859375,-0.948150634765625,-0.6103515625,-0.9765625,-1.220703125,0.244873046875,0.09228515625,0.999267578125,-39.0,-28.0,-112.0,101926.0,-4.993000030517578,0,0
2618.460021,0.284332275390625,-0.117279052734375,-0.07940673828125,-0.94818115234375,-0.42724609375,0.0,-1.52587890625,0.242431640625,0.089111328125,1.008544921875,-39.0,-28.0,-112.0,101926.0,-4.993000030517578,0,0
2618.467001,0.28424072265625,-0.116973876953125,-0.079315185546875,-0.948272705078125,-0.54931640625,0.9765625,-1.28173828125,0.2431640625,0.08837890625,1.010498046875,-39.0,-28.0,-112.0,101926.0,-4.994000434875488,0,0
2618.487998,0.283905029296875,-0.11639404296875,-0.07928466796875,-0.94842529296875,-1.953125,1.5869140625,-1.8310546875,0.2603759765625,0.1148681640625,1.003173828125,-39.0,-28.0,-112.0,101926.0,-4.994000434875488,0,0
2618.495018,0.283782958984375,-0.1162109375,-0.079315185546875,-0.948486328125,-2.01416015625,1.220703125,-1.52587890625,0.2669677734375,0.1280517578125,0.997314453125,-39.0,-28.0,-112.0,101926.0,-4.994000434875488,0,0
2618.502002,0.283599853515625,-0.116058349609375,-0.0794677734375,-0.94854736328125,-1.46484375,0.9765625,-1.953125,0.26708984375,0.131103515625,0.9912109375,-39.0,-28.0,-112.0,101926.0,-4.994000434875488,0,0
2618.50803,0.283599853515625,-0.116058349609375,-0.0794677734375,-0.94854736328125,-1.46484375,0.9765625,-1.953125,0.26708984375,0.131103515625,0.9912109375,-39.0,-28.0,-112.0,101926.0,-4.994000434875488,0,0
2618.515019,0.283294677734375,-0.115936279296875,-0.0797119140625,-0.948638916015625,0.3662109375,0.0,-2.8076171875,0.2666015625,0.1063232421875,0.9869384765625,-39.0,-28.0,-112.0,101926.0,-4.994000434875488,0,0
2618.521998,0.283233642578125,-0.115875244140625,-0.07977294921875,-0.94866943359375,0.91552734375,0.42724609375,-2.44140625,0.262451171875,0.0955810546875,0.9862060546875,-39.0,-29.0,-113.0,101926.0,-4.994000434875488,0,0
2618.529018,0.279693603515625,-0.1160888671875,-0.07940673828125,-0.94970703125,0.91552734375,-0.1220703125,-2.44140625,0.259521484375,0.0814208984375,0.9652099609375,-39.0,-29.0,-113.0,101926.0,-4.994000434875488,0,0
2618.535996,0.279571533203125,-0.11614990234375,-0.079437255859375,-0.949737548828125,0.42724609375,-0.91552734375,-1.5869140625,0.268798828125,0.0732421875,0.967041015625,-39.0,-29.0,-113.0,101926.0,-4.994000434875488,0,0
2618.542996,0.279510498046875,-0.11627197265625,-0.079376220703125,-0.949737548828125,0.1220703125,0.1220703125,-1.0986328125,0.28076171875,0.0693359375,0.964599609375,-39.0,-29.0,-113.0,101926.0,-4.994000434875488,0,0
2618.550021,0.279510498046875,-0.1163330078125,-0.079345703125,-0.949737548828125,-0.8544921875,0.6103515625,-0.79345703125,0.286865234375,0.0662841796875,0.964111328125,-39.0,-29.0,-113.0,101926.0,-4.994000434875488,0,0
2618.570999,0.279571533203125,-0.116424560546875,-0.07891845703125,-0.949737548828125,-0.9765625,3.2958984375,0.54931640625,0.2847900390625,0.07666015625,0.93603515625,-39.0,-29.0,-113.0,101926.0,-4.994000434875488,0,0
2618.577998,0.2796630859375,-0.116424560546875,-0.07891845703125,-0.94970703125,0.9765625,2.01416015625,0.91552734375,0.2794189453125,0.0823974609375,0.92626953125,-39.0,-29.0,-113.0,101926.0,-4.994000434875488,0,0
2618.585023,0.27972412109375,-0.116424560546875,-0.078948974609375,-0.94970703125,1.3427734375,1.5869140625,1.28173828125,0.27783203125,0.0791015625,0.9248046875,-39.0,-29.0,-113.0,101926.0,-4.994000434875488,0,0
2618.592002,0.27996826171875,-0.116455078125,-0.07916259765625,-0.949615478515625,1.77001953125,1.220703125,1.52587890625,0.275634765625,0.0791015625,0.9259033203125,-39.0,-29.0,-113.0,101926.0,-4.994000434875488,0,0
2618.598035,0.27996826171875,-0.116455078125,-0.07916259765625,-0.949615478515625,1.77001953125,1.220703125,1.52587890625,0.275634765625,0.0791015625,0.9259033203125,-39.0,-29.0,-113.0,101926.0,-4.994000434875488,0,0
2618.60502,0.280181884765625,-0.116485595703125,-0.07928466796875,-0.94952392578125,4.08935546875,1.3427734375,2.74658203125,0.283203125,0.0574951171875,0.9385986328125,-39.0,-29.0,-113.0,101926.0,-4.994000434875488,0,0
2618.611998,0.2806396484375,-0.116455078125,-0.079345703125,-0.94940185546875,5.2490234375,1.5869140625,2.74658203125,0.2828369140625,0.048095703125,0.935791015625,-39.0,-29.0,-113.0,101926.0,-4.994000434875488,0,0
2618.619018,0.28082275390625,-0.116424560546875,-0.07928466796875,-0.9493408203125,5.859375,2.9296875,3.2958984375,0.275146484375,0.021484375,0.9395751953125,-40.0,-29.0,-113.0,101926.0,-4.994000434875488,0,0
2618.625996,0.27508544921875,-0.116912841796875,-0.078460693359375,-0.951019287109375,5.126953125,3.5400390625,4.2724609375,0.2840576171875,0.0047607421875,0.934326171875,-40.0,-29.0,-113.0,101926.0,-4.994000434875488,0,0
2618.632996,0.27569580078125,-0.117034912109375,-0.07818603515625,-0.95086669921875,4.0283203125,2.8076171875,4.5166015625,0.2845458984375,0.0098876953125,0.927978515625,-40.0,-29.0,-113.0,101926.0,-4.994000434875488,0,0
2618.640021,0.27587890625,-0.1170654296875,-0.078094482421875,-0.9508056640625,1.3427734375,1.03759765625,5.18798828125,0.273681640625,0.0364990234375,0.9453125,-40.0,-29.0,-113.0,101926.0,-4.994000434875488,0,0
2618.647001,0.27630615234375,-0.117095947265625,-0.077911376953125,-0.95068359375,0.30517578125,1.28173828125,5.7373046875,0.267822265625,0.0523681640625,0.9532470703125,-40.0,-29.0,-113.0,101926.0,-4.994000434875488,0,0
2618.654015,0.27667236328125,-0.117095947265625,-0.0780029296875,-0.950592041015625,0.8544921875,-1.15966796875,5.55419921875,0.24951171875,0.1031494140625,0.953857421875,-40.0,-29.0,-113.0,101926.0,-4.994000434875488,0,0
2618.660994,0.276824951171875,-0.11712646484375,-0.078125,-0.950531005859375,1.40380859375,-2.5634765625,5.31005859375,0.245361328125,0.114501953125,0.9593505859375,-40.0,-29.0,-113.0,101926.0,-4.994000434875488,0,0
2618.667998,0.277130126953125,-0.1170654296875,-0.078460693359375,-0.950408935546875,2.01416015625,-2.86865234375,5.18798828125,0.238037109375,0.114501953125,0.9730224609375,-40.0,-29.0,-113.0,101926.0,-4.993000030517578,0,0
2618.675018,0.277435302734375,-0.116943359375,-0.07879638671875,-0.9503173828125,4.08935546875,-3.35693359375,4.21142578125,0.2279052734375,0.10986328125,0.9969482421875,-40.0,-29.0,-113.0,101926.0,-4.993000030517578,0,0
2618.682002,0.277679443359375,-0.1168212890625,-0.0792236328125,-0.950225830078125,4.7607421875,-3.5400390625,3.90625,0.2293701171875,0.109619140625,1.0010986328125,-40.0,-29.0,-113.0,101926.0,-4.993000030517578,0,0
2618.68803,0.277679443359375,-0.1168212890625,-0.0792236328125,-0.950225830078125,4.7607421875,-3.5400390625,3.90625,0.2293701171875,0.109619140625,1.0010986328125,-40.0,-29.0,-113.0,101926.0,-4.993000030517578,0,0
2618.695019,0.277984619140625,-0.116607666015625,-0.07965087890625,-0.95013427734375,3.173828125,-3.35693359375,3.11279296875,0.2265625,0.107421875,1.021240234375,-40.0,-29.0,-113.0,101926.0,-4.993000030517578,0,0
2618.701998,0.27813720703125,-0.116455078125,-0.079864501953125,-0.9500732421875,2.5634765625,-3.173828125,2.62451171875,0.2247314453125,0.1068115234375,1.02294921875,-40.0,-29.0,-113.0,101926.0,-4.993000030517578,0,0
2618.709018,0.2781982421875,-0.1163330078125,-0.079986572265625,-0.9500732421875,2.99072265625,-2.01416015625,1.5869140625,0.232666015625,0.111328125,1.0244140625,-40.0,-29.0,-113.0,101926.0,-4.993000030517578,0,0
2618.715996,0.278289794921875,-0.1160888671875,-0.0802001953125,-0.950042724609375,2.3193359375,-0.732421875,1.40380859375,0.237548828125,0.113525390625,1.0196533203125,-40.0,-29.0,-113.0,101926.0,-4.993000030517578,0,0
2618.722996,0.275787353515625,-0.116058349609375,-0.080169677734375,-0.950775146484375,2.99072265625,-0.18310546875,0.79345703125,0.243896484375,0.119384765625,1.0142822265625,-41.0,-29.0,-114.0,101926.0,-4.993000030517578,0,0
2618.744015,0.27569580078125,-0.1160888671875,-0.0810546875,-0.95074462890625,2.86865234375,-1.5869140625,-1.15966796875,0.284912109375,0.095458984375,0.9681396484375,-41.0,-29.0,-114.0,101926.0,-4.993000030517578,0,0
2618.750994,0.275634765625,-0.116180419921875,-0.081207275390625,-0.950714111328125,2.86865234375,-2.50244140625,-1.46484375,0.2841796875,0.0933837890625,0.9583740234375,-41.0,-29.0,-114.0,101926.0,-4.993000030517578,0,0
2618.757998,0.275482177734375,-0.11669921875,-0.08154296875,-0.95068359375,1.5869140625,-3.96728515625,-1.5869140625,0.2872314453125,0.0792236328125,0.9410400390625,-41.0,-29.0,-114.0,101926.0,-4.993000030517578,0,0
2618.765018,0.275421142578125,-0.116912841796875,-0.08160400390625,-0.950653076171875,1.03759765625,-3.7841796875,-1.77001953125,0.2889404296875,0.0743408203125,0.9459228515625,-41.0,-29.0,-114.0,101926.0,-4.993000030517578,0,0
2618.772002,0.275299072265625,-0.11737060546875,-0.081573486328125,-0.950653076171875,0.9765625,-2.9296875,-1.708984375,0.2874755859375,0.06982421875,0.94873046875,-41.0,-29.0,-114.0,101926.0,-4.993000030517578,0,0
2618.779018,0.275238037109375,-0.11749267578125,-0.081512451171875,-0.950653076171875,-0.67138671875,-1.40380859375,-1.46484375,0.2847900390625,0.0623779296875,0.9365234375,-41.0,-29.0,-114.0,101926.0,-4.993000030517578,0,0
2618.785049,0.275238037109375,-0.11749267578125,-0.081512451171875,-0.950653076171875,-0.67138671875,-1.40380859375,-1.46484375,0.2847900390625,0.0623779296875,0.9365234375,-41.0,-29.0,-114.0,101926.0,-4.993000030517578,0,0
2618.791998,0.275115966796875,-0.117828369140625,-0.0811767578125,-0.95068359375,-1.15966796875,-0.79345703125,-1.3427734375,0.276123046875,0.0648193359375,0.9464111328125,-41.0,-29.0,-114.0,101926.0,-4.993000030517578,0,0
2618.799018,0.275115966796875,-0.1177978515625,-0.0810546875,-0.95068359375,-1.77001953125,0.9765625,-0.6103515625,0.2672119140625,0.075439453125,0.9541015625,-41.0,-29.0,-114.0,101926.0,-4.993000030517578,0,0
2618.805996,0.27508544921875,-0.117767333984375,-0.080963134765625,-0.950714111328125,-1.5869140625,2.13623046875,-0.42724609375,0.265625,0.0809326171875,0.9544677734375,-41.0,-29.0,-114.0,101926.0,-4.993000030517578,0,0
2618.812996,0.27508544921875,-0.11749267578125,-0.080780029296875,-0.950775146484375,0.18310546875,4.638671875,-0.42724609375,0.27734375,0.0830078125,0.9486083984375,-41.0,-29.0,-114.0,101926.0,-4.993000030517578,0,0
2618.834015,0.272308349609375,-0.11700439453125,-0.080108642578125,-0.951690673828125,1.8310546875,7.38525390625,0.06103515625,0.2906494140625,0.0592041015625,0.92724609375,-40.0,-29.0,-115.0,101926.0,-4.993000030517578,0,0
2618.840999,0.272369384765625,-0.116943359375,-0.08001708984375,-0.951690673828125,1.220703125,6.591796875,0.30517578125,0.2943115234375,0.051513671875,0.923095703125,-40.0,-29.0,-115.0,101926.0,-4.993000030517578,0,0
2618.847998,0.2724609375,-0.116851806640625,-0.07977294921875,-0.951690673828125,-0.48828125,4.82177734375,0.91552734375,0.2852783203125,0.0477294921875,0.9315185546875,-40.0,-29.0,-115.0,101926.0,-4.993000030517578,0,0
2618.855023,0.27264404296875,-0.116790771484375,-0.079345703125,-0.951690673828125,-2.9296875,3.2958984375,2.197265625,0.268798828125,0.05029296875,0.9468994140625,-40.0,-29.0,-115.0,101926.0,-4.993000030517578,0,0
2618.862002,0.27276611328125,-0.116790771484375,-0.078887939453125,-0.951690673828125,-3.84521484375,1.64794921875,2.0751953125,0.2596435546875,0.062255859375,0.952392578125,-40.0,-29.0,-115.0,101926.0,-4.993000030517578,0,0
2618.869018,0.2728271484375,-0.11676025390625,-0.07867431640625,-0.951690673828125,-4.7607421875,0.79345703125,2.5634765625,0.2470703125,0.0858154296875,0.9794921875,-40.0,-29.0,-115.0,101926.0,-4.994000434875488,0,0
2618.875049,0.2728271484375,-0.11676025390625,-0.07867431640625,-0.951690673828125,-4.7607421875,0.79345703125,2.5634765625,0.2470703125,0.0858154296875,0.9794921875,-40.0,-29.0,-115.0,101926.0,-4.994000434875488,0,0
2618.881998,0.273162841796875,-0.1163330078125,-0.078338623046875,-0.95166015625,-3.23486328125,0.732421875,3.41796875,0.233154296875,0.122314453125,0.9910888671875,-40.0,-29.0,-115.0,101926.0,-4.994000434875488,0,0
2618.889018,0.273223876953125,-0.116180419921875,-0.078399658203125,-0.95166015625,-1.28173828125,1.0986328125,3.0517578125,0.2359619140625,0.1429443359375,0.987060546875,-40.0,-29.0,-115.0,101926.0,-4.994000434875488,0,0
2618.895996,0.273406982421875,-0.1158447265625,-0.07867431640625,-0.951629638671875,0.3662109375,1.64794921875,2.99072265625,0.2506103515625,0.155517578125,0.993408203125,-40.0,-29.0,-115.0,101926.0,-4.994000434875488,0,0
2618.902996,0.2735595703125,-0.115570068359375,-0.079071044921875,-0.95159912109375,2.0751953125,1.8310546875,2.86865234375,0.26171875,0.1444091796875,0.9830322265625,-40.0,-29.0,-115.0,101926.0,-4.994000434875488,0,0
2618.910021,0.273651123046875,-0.115478515625,-0.079254150390625,-0.951568603515625,2.62451171875,0.8544921875,2.9296875,0.259521484375,0.133056640625,0.9803466796875,-40.0,-29.0,-115.0,101926.0,-4.994000434875488,0,0
2618.917001,0.27386474609375,-0.115325927734375,-0.0794677734375,-0.951507568359375,2.5634765625,0.0,2.99072265625,0.2528076171875,0.1007080078125,0.9921875,-40.0,-28.0,-116.0,101926.0,-4.994000434875488,0,0
2618.924015,0.271270751953125,-0.115447998046875,-0.079254150390625,-0.952239990234375,2.5634765625,-0.3662109375,3.2958984375,0.24755859375,0.0899658203125,0.985595703125,-40.0,-28.0,-116.0,101926.0,-4.994000434875488,0,0
2618.930994,0.271392822265625,-0.11541748046875,-0.07928466796875,-0.95220947265625,2.0751953125,-1.40380859375,3.662109375,0.2432861328125,0.0887451171875,0.9775390625,-40.0,-28.0,-116.0,101926.0,-4.994000434875488,0,0
2618.937998,0.271728515625,-0.115570068359375,-0.0794677734375,-0.95208740234375,1.46484375,-2.50244140625,3.173828125,0.25634765625,0.0926513671875,0.9749755859375,-40.0,-28.0,-116.0,101926.0,-4.994000434875488,0,0
2618.945018,0.2718505859375,-0.11566162109375,-0.07952880859375,-0.9520263671875,0.9765625,-2.13623046875,3.5400390625,0.2728271484375,0.0928955078125,0.9779052734375,-40.0,-28.0,-116.0,101926.0,-4.994000434875488,0,0
2618.952002,0.27215576171875,-0.11602783203125,-0.07977294921875,-0.951873779296875,1.03759765625,-1.64794921875,3.41796875,0.279296875,0.09326171875,0.97607421875,-40.0,-28.0,-116.0,101926.0,-4.994000434875488,0,0
2618.959018,0.27227783203125,-0.1162109375,-0.079864501953125,-0.951812744140625,1.953125,-2.9296875,3.23486328125,0.29443359375,0.0863037109375,0.947998046875,-40.0,-28.0,-116.0,101926.0,-4.994000434875488,0,0
2618.965996,0.272369384765625,-0.116424560546875,-0.079986572265625,-0.951751708984375,1.3427734375,-3.7841796875,2.9296875,0.29833984375,0.08837890625,0.937255859375,-40.0,-28.0,-116.0,101926.0,-4.993000030517578,0,0
2618.972028,0.272369384765625,-0.116424560546875,-0.079986572265625,-0.951751708984375,1.3427734375,-3.7841796875,2.9296875,0.29833984375,0.08837890625,0.937255859375,-40.0,-28.0,-116.0,101926.0,-4.993000030517578,0,0
2618.979018,0.272735595703125,-0.117462158203125,-0.0802001953125,-0.951507568359375,0.67138671875,-3.90625,2.8076171875,0.2962646484375,0.0654296875,0.940185546875,-40.0,-28.0,-116.0,101926.0,-4.993000030517578,0,0
2618.985996,0.2728271484375,-0.117706298828125,-0.080230712890625,-0.951446533203125,0.732421875,-4.638671875,2.13623046875,0.290771484375,0.0701904296875,0.93310546875,-40.0,-28.0,-116.0,101926.0,-4.993000030517578,0,0
2619.007001,0.273223876953125,-0.11865234375,-0.080291748046875,-0.951202392578125,2.25830078125,-4.2724609375,1.64794921875,0.2606201171875,0.054931640625,0.956298828125,-40.0,-28.0,-116.0,101926.0,-4.993000030517578,0,0
2619.014015,0.27337646484375,-0.118743896484375,-0.080230712890625,-0.951141357421875,2.38037109375,-1.5869140625,1.5869140625,0.253173828125,0.051025390625,0.9771728515625,-40.0,-28.0,-116.0,101926.0,-4.993000030517578,0,0
2619.020994,0.273468017578125,-0.1187744140625,-0.0802001953125,-0.95111083984375,2.01416015625,-1.708984375,2.01416015625,0.2547607421875,0.0521240234375,0.9644775390625,-41.0,-28.0,-116.0,101926.0,-4.993000030517578,0,0
2619.027998,0.271759033203125,-0.11895751953125,-0.07989501953125,-0.95159912109375,2.38037109375,-1.52587890625,2.01416015625,0.258056640625,0.05224609375,0.9588623046875,-41.0,-28.0,-116.0,101926.0,-4.993000030517578,0,0
2619.035018,0.271942138671875,-0.1187744140625,-0.079742431640625,-0.95159912109375,1.89208984375,3.2958984375,1.77001953125,0.264404296875,0.0511474609375,0.9678955078125,-41.0,-28.0,-116.0,101926.0,-4.993000030517578,0,0
2619.042002,0.272125244140625,-0.11859130859375,-0.079620361328125,-0.951568603515625,1.77001953125,4.0283203125,1.953125,0.2734375,0.0574951171875,0.951171875,-41.0,-28.0,-116.0,101926.0,-4.993000030517578,0,0
2619.049018,0.272216796875,-0.1185302734375,-0.07958984375,-0.951568603515625,0.6103515625,4.45556640625,1.708984375,0.2841796875,0.0728759765625,0.94140625,-41.0,-28.0,-116.0,101926.0,-4.993000030517578,0,0
2619.055996,0.272308349609375,-0.118499755859375,-0.07958984375,-0.9515380859375,-0.6103515625,2.25830078125,1.3427734375,0.291259765625,0.0948486328125,0.925537109375,-41.0,-28.0,-116.0,101926.0,-4.993000030517578,0,0
2619.062028,0.272308349609375,-0.118499755859375,-0.07958984375,-0.9515380859375,-0.6103515625,2.25830078125,1.3427734375,0.291259765625,0.0948486328125,0.925537109375,-41.0,-28.0,-116.0,101926.0,-4.993000030517578,0,0
2619.069018,0.272430419921875,-0.1185302734375,-0.079681396484375,-0.951507568359375,-1.15966796875,0.79345703125,1.40380859375,0.2803955078125,0.1168212890625,0.94384765625,-41.0,-28.0,-116.0,101926.0,-4.994000434875488,0,0
2619.075996,0.272491455078125,-0.11859130859375,-0.079833984375,-0.951446533203125,-0.8544921875,-1.64794921875,1.220703125,0.2685546875,0.1226806640625,0.9521484375,-41.0,-28.0,-116.0,101926.0,-4.994000434875488,0,0
2619.097001,0.27252197265625,-0.118255615234375,-0.0799560546875,-0.95147705078125,0.6103515625,0.244140625,0.54931640625,0.2392578125,0.09228515625,1.0142822265625,-41.0,-28.0,-116.0,101926.0,-4.994000434875488,0,0
2619.104015,0.272552490234375,-0.118072509765625,-0.07989501953125,-0.951507568359375,-0.244140625,1.52587890625,0.6103515625,0.2379150390625,0.0960693359375,1.0096435546875,-41.0,-28.0,-116.0,101926.0,-4.994000434875488,0,0
2619.110994,0.2725830078125,-0.117889404296875,-0.079833984375,-0.951507568359375,-0.30517578125,2.25830078125,1.03759765625,0.2384033203125,0.09765625,1.0147705078125,-41.0,-28.0,-116.0,101926.0,-4.994000434875488,0,0
2619.117998,0.27264404296875,-0.11749267578125,-0.07977294921875,-0.951568603515625,-1.3427734375,2.99072265625,1.220703125,0.2430419921875,0.111083984375,1.009521484375,-41.0,-29.0,-117.0,101926.0,-4.994000434875488,0,0
2619.125023,0.2691650390625,-0.117340087890625,-0.07928466796875,-0.952606201171875,-1.28173828125,4.8828125,1.28173828125,0.2587890625,0.1234130859375,1.0115966796875,-41.0,-29.0,-117.0,101926.0,-4.994000434875488,0,0
2619.132002,0.269195556640625,-0.11712646484375,-0.07928466796875,-0.952606201171875,-1.46484375,5.2490234375,1.5869140625,0.267333984375,0.12890625,0.9990234375,-41.0,-29.0,-117.0,101926.0,-4.994000434875488,0,0
2619.139018,0.269287109375,-0.11669921875,-0.079437255859375,-0.95263671875,-0.244140625,3.60107421875,1.0986328125,0.2823486328125,0.12451171875,0.9656982421875,-41.0,-29.0,-117.0,101926.0,-4.994000434875488,0,0
2619.145996,0.269287109375,-0.116668701171875,-0.079559326171875,-0.95263671875,0.1220703125,2.5634765625,0.79345703125,0.2886962890625,0.123046875,0.95703125,-41.0,-29.0,-117.0,101926.0,-4.994000434875488,0,0
2619.152996,0.269378662109375,-0.1168212890625,-0.079803466796875,-0.95257568359375,0.48828125,0.79345703125,1.40380859375,0.298828125,0.0985107421875,0.9571533203125,-41.0,-29.0,-117.0,101926.0,-4.994000434875488,0,0
2619.159029,0.269378662109375,-0.1168212890625,-0.079803466796875,-0.95257568359375,0.48828125,0.79345703125,1.40380859375,0.298828125,0.0985107421875,0.9571533203125,-41.0,-29.0,-117.0,101926.0,-4.994000434875488,0,0
2619.165996,0.269439697265625,-0.117095947265625,-0.079864501953125,-0.9525146484375,-0.1220703125,-1.40380859375,1.0986328125,0.297607421875,0.0782470703125,0.94921875,-41.0,-29.0,-117.0,101926.0,-4.994000434875488,0,0
2619.172996,0.26959228515625,-0.1175537109375,-0.07965087890625,-0.952423095703125,-0.3662109375,-1.8310546875,1.3427734375,0.2882080078125,0.0709228515625,0.9537353515625,-41.0,-29.0,-117.0,101926.0,-4.994000434875488,0,0
2619.180021,0.2696533203125,-0.11767578125,-0.079498291015625,-0.952392578125,-1.52587890625,-1.64794921875,2.01416015625,0.2689208984375,0.05517578125,0.960205078125,-41.0,-29.0,-117.0,101926.0,-4.994000434875488,0,0
2619.187001,0.269805908203125,-0.1177978515625,-0.0792236328125,-0.952362060546875,-1.46484375,-0.79345703125,1.8310546875,0.263916015625,0.058837890625,0.966552734375,-41.0,-29.0,-117.0,101926.0,-4.994000434875488,0,0
2619.194015,0.2698974609375,-0.11785888671875,-0.079010009765625,-0.952362060546875,-2.197265625,0.244140625,1.40380859375,0.26513671875,0.0733642578125,0.95751953125,-41.0,-29.0,-117.0,101926.0,-4.994000434875488,0,0
2619.200999,0.269927978515625,-0.11785888671875,-0.078887939453125,-0.952362060546875,-1.953125,1.15966796875,1.40380859375,0.263916015625,0.07958984375,0.96337890625,-41.0,-29.0,-117.0,101926.0,-4.994000434875488,0,0
2619.207998,0.27001953125,-0.117828369140625,-0.07867431640625,-0.952362060546875,-2.38037109375,1.52587890625,1.46484375,0.269775390625,0.0877685546875,0.9532470703125,-41.0,-29.0,-117.0,101926.0,-4.994000434875488,0,0
2619.215023,0.27008056640625,-0.1177978515625,-0.07861328125,-0.95233154296875,-1.28173828125,1.3427734375,0.79345703125,0.2681884765625,0.0965576171875,0.9547119140625,-41.0,-29.0,-117.0,101926.0,-4.994000434875488,0,0
2619.222002,0.270111083984375,-0.117767333984375,-0.07855224609375,-0.95233154296875,-1.15966796875,1.15966796875,0.79345703125,0.268798828125,0.0880126953125,0.9527587890625,-41.0,-29.0,-117.0,101926.0,-4.994000434875488,0,0
2619.229018,0.266815185546875,-0.1180419921875,-0.078155517578125,-0.953277587890625,-0.48828125,0.9765625,0.3662109375,0.268798828125,0.0889892578125,0.94873046875,-41.0,-29.0,-117.0,101926.0,-4.994000434875488,0,0
2619.235996,0.266845703125,-0.11798095703125,-0.078125,-0.953277587890625,1.46484375,1.953125,-0.244140625,0.27099609375,0.0628662109375,0.9503173828125,-41.0,-29.0,-117.0,101926.0,-4.994000434875488,0,0
2619.242995,0.266815185546875,-0.117950439453125,-0.0780029296875,-0.95330810546875,1.8310546875,1.8310546875,-0.9765625,0.271484375,0.0504150390625,0.9444580078125,-41.0,-29.0,-117.0,101926.0,-4.994000434875488,0,0
2619.249028,0.266815185546875,-0.117950439453125,-0.0780029296875,-0.95330810546875,1.8310546875,1.8310546875,-0.9765625,0.271484375,0.0504150390625,0.9444580078125,-41.0,-29.0,-117.0,101926.0,-4.994000434875488,0,0
2619.270021,0.26678466796875,-0.117889404296875,-0.077056884765625,-0.953399658203125,-0.9765625,3.0517578125,-1.3427734375,0.2822265625,0.0269775390625,0.95068359375,-41.0,-29.0,-117.0,101926.0,-4.992000102996826,0,0
2619.277001,0.26666259765625,-0.1180419921875,-0.076416015625,-0.953460693359375,-3.96728515625,1.28173828125,-0.9765625,0.27490234375,0.0482177734375,0.9471435546875,-41.0,-29.0,-117.0,101926.0,-4.992000102996826,0,0
2619.284015,0.266632080078125,-0.11810302734375,-0.07623291015625,-0.9534912109375,-5.37109375,0.67138671875,-0.8544921875,0.265625,0.079345703125,0.9600830078125,-41.0,-29.0,-117.0,101926.0,-4.992000102996826,0,0
2619.290994,0.266571044921875,-0.11810302734375,-0.076080322265625,-0.9534912109375,-5.2490234375,-0.06103515625,-0.79345703125,0.259033203125,0.0946044921875,0.9583740234375,-41.0,-29.0,-117.0,101926.0,-4.992000102996826,0,0
2619.297998,0.266387939453125,-0.11810302734375,-0.07598876953125,-0.95355224609375,-3.23486328125,-0.9765625,-0.9765625,0.246826171875,0.1263427734375,0.9730224609375,-41.0,-29.0,-117.0,101926.0,-4.992000102996826,0,0
2619.305018,0.26629638671875,-0.118072509765625,-0.076019287109375,-0.953582763671875,-2.50244140625,-1.220703125,-0.9765625,0.2464599609375,0.129638671875,0.9765625,-41.0,-29.0,-117.0,101926.0,-4.992000102996826,0,0
2619.312002,0.266204833984375,-0.11773681640625,-0.07635498046875,-0.95361328125,-2.197265625,-0.8544921875,-0.8544921875,0.244140625,0.1290283203125,0.987060546875,-41.0,-29.0,-117.0,101926.0,-4.992000102996826,0,0
2619.319018,0.26617431640625,-0.117645263671875,-0.07647705078125,-0.953643798828125,0.9765625,0.244140625,-0.6103515625,0.2510986328125,0.1395263671875,0.9913330078125,-39.0,-30.0,-117.0,101926.0,-4.992000102996826,0,0
2619.325996,0.26324462890625,-0.1177978515625,-0.07623291015625,-0.9544677734375,0.06103515625,0.42724609375,-0.1220703125,0.2491455078125,0.1270751953125,0.9931640625,-39.0,-30.0,-117.0,101926.0,-4.992000102996826,0,0
2619.332995,0.263214111328125,-0.11749267578125,-0.076324462890625,-0.9544677734375,-0.18310546875,0.9765625,0.1220703125,0.246337890625,0.1231689453125,0.9967041015625,-39.0,-30.0,-117.0,101926.0,-4.992000102996826,0,0
2619.340016,0.26324462890625,-0.117431640625,-0.076324462890625,-0.954498291015625,-2.5634765625,-0.6103515625,1.28173828125,0.2418212890625,0.123046875,0.9808349609375,-39.0,-30.0,-117.0,101926.0,-4.992000102996826,0,0
2619.360021,0.263427734375,-0.1170654296875,-0.0762939453125,-0.954498291015625,-2.3193359375,1.28173828125,2.01416015625,0.2652587890625,0.12451171875,0.9732666015625,-39.0,-30.0,-117.0,101926.0,-4.992000102996826,0,0
2619.367001,0.263458251953125,-0.117034912109375,-0.07635498046875,-0.9544677734375,-1.52587890625,0.42724609375,1.89208984375,0.265625,0.12158203125,0.9591064453125,-39.0,-30.0,-117.0,101926.0,-4.993000030517578,0,0
2619.374015,0.263641357421875,-0.1171875,-0.076507568359375,-0.95440673828125,-0.48828125,-0.6103515625,2.25830078125,0.28271484375,0.0986328125,0.960693359375,-39.0,-30.0,-117.0,101926.0,-4.993000030517578,0,0
2619.380994,0.263702392578125,-0.1173095703125,-0.076507568359375,-0.954376220703125,-0.42724609375,-1.0986328125,2.13623046875,0.28955078125,0.0892333984375,0.9517822265625,-39.0,-30.0,-117.0,101926.0,-4.993000030517578,0,0
2619.387998,0.26385498046875,-0.11767578125,-0.076446533203125,-0.95428466796875,-1.40380859375,-1.953125,2.50244140625,0.2974853515625,0.06298828125,0.9361572265625,-39.0,-30.0,-117.0,101926.0,-4.993000030517578,0,0
2619.395018,0.264007568359375,-0.11822509765625,-0.076324462890625,-0.954193115234375,-1.220703125,-3.47900390625,2.25830078125,0.3016357421875,0.0478515625,0.9373779296875,-39.0,-30.0,-117.0,101926.0,-4.993000030517578,0,0
2619.402002,0.26416015625,-0.118743896484375,-0.0760498046875,-0.9541015625,-1.220703125,-3.23486328125,2.197265625,0.302001953125,0.0389404296875,0.947265625,-39.0,-30.0,-117.0,101926.0,-4.993000030517578,0,0
2619.409018,0.26422119140625,-0.11895751953125,-0.075836181640625,-0.954071044921875,-2.50244140625,-2.38037109375,2.01416015625,0.2899169921875,0.02685546875,0.958740234375,-39.0,-30.0,-117.0,101926.0,-4.993000030517578,0,0
2619.415996,0.264404296875,-0.11932373046875,-0.07537841796875,-0.954010009765625,-3.23486328125,-2.38037109375,2.38037109375,0.26953125,0.0330810546875,0.9603271484375,-39.0,-30.0,-117.0,101926.0,-4.993000030517578,0,0
2619.422996,0.26446533203125,-0.119476318359375,-0.07513427734375,-0.9539794921875,-3.2958984375,-2.25830078125,2.197265625,0.2640380859375,0.0345458984375,0.962890625,-39.0,-29.0,-118.0,101926.0,-4.993000030517578,0,0
2619.43002,0.2596435546875,-0.12005615234375,-0.07403564453125,-0.955322265625,-3.96728515625,-1.40380859375,2.3193359375,0.257568359375,0.0423583984375,0.96826171875,-39.0,-29.0,-118.0,101926.0,-4.993000030517578,0,0
2619.436053,0.2596435546875,-0.12005615234375,-0.07403564453125,-0.955322265625,-3.96728515625,-1.40380859375,2.3193359375,0.257568359375,0.0423583984375,0.96826171875,-39.0,-29.0,-118.0,101926.0,-4.993000030517578,0,0
2619.442996,0.259796142578125,-0.120147705078125,-0.073394775390625,-0.955322265625,-3.23486328125,0.06103515625,1.40380859375,0.25927734375,0.072998046875,0.9716796875,-39.0,-29.0,-118.0,101926.0,-4.993000030517578,0,0
2619.450021,0.25982666015625,-0.120025634765625,-0.07330322265625,-0.955322265625,-1.52587890625,3.23486328125,0.8544921875,0.26025390625,0.0787353515625,0.9771728515625,-39.0,-29.0,-118.0,101926.0,-4.993000030517578,0,0
2619.457001,0.259918212890625,-0.11968994140625,-0.07318115234375,-0.955352783203125,0.244140625,4.33349609375,0.30517578125,0.27001953125,0.0723876953125,0.947998046875,-39.0,-29.0,-118.0,101926.0,-4.993000030517578,0,0
2619.464015,0.259918212890625,-0.11968994140625,-0.073150634765625,-0.955352783203125,1.0986328125,3.35693359375,-0.244140625,0.283935546875,0.05615234375,0.9248046875,-39.0,-29.0,-118.0,101926.0,-4.993000030517578,0,0
2619.470999,0.25994873046875,-0.11968994140625,-0.0731201171875,-0.955352783203125,0.9765625,3.11279296875,-0.18310546875,0.2896728515625,0.0504150390625,0.9283447265625,-39.0,-29.0,-118.0,101926.0,-4.993000030517578,0,0
2619.477998,0.259979248046875,-0.119781494140625,-0.072906494140625,-0.955352783203125,-0.244140625,2.38037109375,-0.1220703125,0.2896728515625,0.0487060546875,0.931884765625,-39.0,-29.0,-118.0,101926.0,-4.993000030517578,0,0
2619.485023,0.259979248046875,-0.119873046875,-0.072784423828125,-0.955352783203125,-1.77001953125,0.42724609375,-0.1220703125,0.2803955078125,0.0499267578125,0.933837890625,-39.0,-29.0,-118.0,101926.0,-4.993000030517578,0,0
2619.492002,0.259979248046875,-0.120208740234375,-0.072418212890625,-0.955352783203125,-2.13623046875,-0.42724609375,0.18310546875,0.274658203125,0.0565185546875,0.9393310546875,-39.0,-29.0,-118.0,101926.0,-4.993000030517578,0,0
2619.499018,0.25994873046875,-0.12030029296875,-0.072265625,-0.955352783203125,-4.57763671875,-2.62451171875,0.30517578125,0.2528076171875,0.0782470703125,0.9674072265625,-39.0,-29.0,-118.0,101926.0,-4.993000030517578,0,0
2619.505996,0.25994873046875,-0.120330810546875,-0.0721435546875,-0.955352783203125,-4.33349609375,-2.197265625,0.3662109375,0.2430419921875,0.0806884765625,0.9852294921875,-39.0,-29.0,-118.0,101926.0,-4.993000030517578,0,0
2619.512996,0.259918212890625,-0.120147705078125,-0.071868896484375,-0.955413818359375,-4.08935546875,-1.46484375,0.54931640625,0.2359619140625,0.08984375,0.9931640625,-39.0,-29.0,-118.0,101926.0,-4.993000030517578,0,0
2619.533037,0.256134033203125,-0.120147705078125,-0.071380615234375,-0.956451416015625,-2.50244140625,0.18310546875,0.18310546875,0.229736328125,0.1287841796875,1.002197265625,-39.0,-29.0,-119.0,101926.0,-4.994000434875488,0,0
2619.540021,0.25604248046875,-0.119354248046875,-0.071746826171875,-0.95654296875,-0.79345703125,2.685546875,0.06103515625,0.2567138671875,0.14111328125,0.9940185546875,-39.0,-29.0,-119.0,101926.0,-4.994000434875488,0,0
2619.547001,0.256011962890625,-0.119110107421875,-0.07196044921875,-0.956573486328125,-0.30517578125,1.953125,-0.244140625,0.26171875,0.1318359375,0.98583984375,-39.0,-29.0,-119.0,101926.0,-4.994000434875488,0,0
2619.554015,0.2559814453125,-0.118988037109375,-0.0721435546875,-0.95660400390625,0.3662109375,0.9765625,-0.06103515625,0.2645263671875,0.106201171875,0.9825439453125,-39.0,-29.0,-119.0,101926.0,-4.994000434875488,0,0
2619.560994,0.2559814453125,-0.11895751953125,-0.072174072265625,-0.95660400390625,0.6103515625,0.1220703125,-0.1220703125,0.2646484375,0.0968017578125,0.975341796875,-39.0,-29.0,-119.0,101926.0,-4.994000434875488,0,0
2619.567998,0.255950927734375,-0.1190185546875,-0.072296142578125,-0.956573486328125,0.8544921875,-0.91552734375,-0.18310546875,0.2640380859375,0.090087890625,0.9761962890625,-39.0,-29.0,-119.0,101926.0,-4.994000434875488,0,0
2619.575018,0.255950927734375,-0.119171142578125,-0.072265625,-0.956573486328125,-0.3662109375,-2.685546875,0.244140625,0.26123046875,0.067626953125,0.9749755859375,-39.0,-29.0,-119.0,101926.0,-4.994000434875488,0,0
2619.582002,0.2559814453125,-0.11932373046875,-0.07220458984375,-0.95654296875,-0.732421875,-2.8076171875,0.18310546875,0.259765625,0.066162109375,0.976806640625,-39.0,-29.0,-119.0,101926.0,-4.994000434875488,0,0
2619.589018,0.2559814453125,-0.119415283203125,-0.0721435546875,-0.95654296875,-0.54931640625,-2.74658203125,0.48828125,0.26123046875,0.0655517578125,0.9776611328125,-39.0,-29.0,-119.0,101926.0,-4.994000434875488,0,0
2619.595996,0.256011962890625,-0.119598388671875,-0.072113037109375,-0.956512451171875,-0.3662109375,-1.64794921875,0.30517578125,0.27392578125,0.0701904296875,0.973876953125,-39.0,-29.0,-119.0,101926.0,-4.994000434875488,0,0
2619.602995,0.256011962890625,-0.119720458984375,-0.07208251953125,-0.95648193359375,-0.1220703125,-0.18310546875,0.67138671875,0.2816162109375,0.069091796875,0.967041015625,-39.0,-29.0,-119.0,101926.0,-4.994000434875488,0,0
2619.623037,0.25604248046875,-0.11993408203125,-0.072052001953125,-0.95648193359375,-0.1220703125,0.67138671875,0.48828125,0.2901611328125,0.0616455078125,0.947265625,-39.0,-31.0,-119.0,101926.0,-4.994000434875488,0,0
2619.630021,0.2513427734375,-0.12060546875,-0.071319580078125,-0.957672119140625,-0.244140625,0.06103515625,0.79345703125,0.289306640625,0.045654296875,0.945068359375,-39.0,-31.0,-119.0,101926.0,-4.994000434875488,0,0
2619.637001,0.251434326171875,-0.12078857421875,-0.071136474609375,-0.9576416015625,-0.48828125,-0.8544921875,1.0986328125,0.278076171875,0.0380859375,0.9468994140625,-39.0,-31.0,-119.0,101926.0,-4.994000434875488,0,0
2619.644015,0.251495361328125,-0.1209716796875,-0.070892333984375,-0.957611083984375,-1.0986328125,-1.46484375,1.03759765625,0.2625732421875,0.0443115234375,0.9527587890625,-39.0,-31.0,-119.0,101926.0,-4.994000434875488,0,0
2619.650994,0.25152587890625,-0.121002197265625,-0.07080078125,-0.957611083984375,-1.220703125,-1.0986328125,0.9765625,0.257080078125,0.0501708984375,0.9561767578125,-39.0,-31.0,-119.0,101926.0,-4.994000434875488,0,0
2619.657998,0.251678466796875,-0.12103271484375,-0.07061767578125,-0.95758056640625,0.42724609375,0.6103515625,1.220703125,0.2587890625,0.05908203125,0.9578857421875,-39.0,-31.0,-119.0,101926.0,-4.994000434875488,0,0
2619.665018,0.251739501953125,-0.1209716796875,-0.070587158203125,-0.95758056640625,1.0986328125,1.77001953125,0.9765625,0.2620849609375,0.062744140625,0.962646484375,-39.0,-31.0,-119.0,101926.0,-4.994000434875488,0,0
2619.672002,0.25177001953125,-0.120880126953125,-0.070587158203125,-0.95758056640625,1.708984375,3.23486328125,0.9765625,0.2689208984375,0.0621337890625,0.9586181640625,-39.0,-31.0,-119.0,101926.0,-4.994000434875488,0,0
2619.679018,0.251922607421875,-0.120574951171875,-0.0706787109375,-0.95758056640625,2.44140625,5.2490234375,0.54931640625,0.297119140625,0.0693359375,0.93701171875,-39.0,-31.0,-119.0,101926.0,-4.994000434875488,0,0
2619.685996,0.251983642578125,-0.120513916015625,-0.07073974609375,-0.95758056640625,1.89208984375,4.7607421875,0.732421875,0.2972412109375,0.0684814453125,0.931884765625,-39.0,-31.0,-119.0,101926.0,-4.994000434875488,0,0
2619.692995,0.252105712890625,-0.120391845703125,-0.0706787109375,-0.957550048828125,1.46484375,4.82177734375,0.732421875,0.2969970703125,0.064697265625,0.934326171875,-39.0,-31.0,-119.0,101926.0,-4.994000434875488,0,0
2619.700016,0.252166748046875,-0.120391845703125,-0.070648193359375,-0.957550048828125,-0.67138671875,2.44140625,1.03759765625,0.2816162109375,0.067138671875,0.939453125,-39.0,-31.0,-119.0,101926.0,-4.994000434875488,0,0
2619.707004,0.252227783203125,-0.12042236328125,-0.070556640625,-0.95751953125,-1.28173828125,1.220703125,1.03759765625,0.2718505859375,0.0723876953125,0.9422607421875,-39.0,-31.0,-119.0,101926.0,-4.994000434875488,0,0
2619.714018,0.25225830078125,-0.120452880859375,-0.07049560546875,-0.95751953125,-1.03759765625,-1.52587890625,0.9765625,0.2432861328125,0.0775146484375,0.970458984375,-39.0,-31.0,-119.0,101926.0,-4.994000434875488,0,0
2619.720052,0.25225830078125,-0.120452880859375,-0.07049560546875,-0.95751953125,-1.03759765625,-1.52587890625,0.9765625,0.2432861328125,0.0775146484375,0.970458984375,-39.0,-31.0,-119.0,101926.0,-4.994000434875488,0,0
2619.727001,0.246978759765625,-0.12078857421875,-0.06976318359375,-0.958892822265625,-0.54931640625,-2.13623046875,0.67138671875,0.230224609375,0.077880859375,0.9920654296875,-39.0,-31.0,-118.0,101926.0,-4.993000030517578,0,0
2619.734015,0.246978759765625,-0.12054443359375,-0.069732666015625,-0.95892333984375,-0.6103515625,-2.25830078125,0.48828125,0.228515625,0.0806884765625,0.9989013671875,-39.0,-31.0,-118.0,101926.0,-4.993000030517578,0,0
2619.740999,0.246978759765625,-0.120391845703125,-0.06976318359375,-0.958953857421875,-0.1220703125,-0.244140625,0.48828125,0.2315673828125,0.1009521484375,1.015380859375,-39.0,-31.0,-118.0,101926.0,-4.993000030517578,0,0
2619.747998,0.246978759765625,-0.1201171875,-0.06988525390625,-0.958984375,-0.244140625,0.67138671875,0.732421875,0.23876953125,0.1058349609375,1.013916015625,-39.0,-31.0,-118.0,101926.0,-4.993000030517578,0,0
2619.755023,0.24700927734375,-0.11981201171875,-0.070037841796875,-0.959014892578125,0.54931640625,2.197265625,0.91552734375,0.2593994140625,0.1160888671875,1.0074462890625,-39.0,-31.0,-118.0,101926.0,-4.993000030517578,0,0
2619.762002,0.247039794921875,-0.119537353515625,-0.0701904296875,-0.959014892578125,0.18310546875,2.5634765625,0.6103515625,0.263427734375,0.111083984375,1.00048828125,-39.0,-31.0,-118.0,101926.0,-4.993000030517578,0,0
2619.769018,0.2470703125,-0.11944580078125,-0.070281982421875,-0.959014892578125,0.3662109375,2.50244140625,0.8544921875,0.266845703125,0.1085205078125,0.994140625,-39.0,-31.0,-118.0,101926.0,-4.993000030517578,0,0
2619.775996,0.24713134765625,-0.119354248046875,-0.070526123046875,-0.958984375,1.0986328125,0.8544921875,0.9765625,0.275146484375,0.108154296875,0.9658203125,-39.0,-31.0,-118.0,101926.0,-4.993000030517578,0,0
2619.797004,0.247314453125,-0.120086669921875,-0.071075439453125,-0.95880126953125,-0.30517578125,-4.638671875,1.5869140625,0.27099609375,0.08740234375,0.9500732421875,-39.0,-31.0,-118.0,101926.0,-4.993000030517578,0,0
2619.804018,0.247344970703125,-0.120269775390625,-0.0711669921875,-0.958770751953125,0.18310546875,-5.615234375,1.52587890625,0.26611328125,0.0897216796875,0.9525146484375,-39.0,-31.0,-118.0,101926.0,-4.993000030517578,0,0
2619.810052,0.247344970703125,-0.120269775390625,-0.0711669921875,-0.958770751953125,0.18310546875,-5.615234375,1.52587890625,0.26611328125,0.0897216796875,0.9525146484375,-39.0,-31.0,-118.0,101926.0,-4.993000030517578,0,0
2619.817001,0.24749755859375,-0.120758056640625,-0.071380615234375,-0.958648681640625,1.0986328125,-3.35693359375,1.953125,0.272705078125,0.0797119140625,0.964111328125,-40.0,-32.0,-117.0,101926.0,-4.993000030517578,0,0
2619.824015,0.242645263671875,-0.121337890625,-0.07080078125,-0.959869384765625,1.46484375,-2.3193359375,1.708984375,0.278076171875,0.0654296875,0.9637451171875,-40.0,-32.0,-117.0,101926.0,-4.993000030517578,0,0
2619.830994,0.242706298828125,-0.12139892578125,-0.07080078125,-0.9598388671875,1.3427734375,-0.732421875,1.52587890625,0.280029296875,0.054443359375,0.9573974609375,-40.0,-32.0,-117.0,101926.0,-4.993000030517578,0,0
2619.837998,0.242919921875,-0.12158203125,-0.070587158203125,-0.95977783203125,1.03759765625,0.1220703125,1.64794921875,0.27880859375,0.041259765625,0.957275390625,-40.0,-32.0,-117.0,101926.0,-4.993000030517578,0,0
2619.845018,0.24298095703125,-0.12164306640625,-0.070465087890625,-0.95977783203125,-0.54931640625,0.244140625,1.52587890625,0.274658203125,0.0361328125,0.956298828125,-40.0,-32.0,-117.0,101926.0,-4.993000030517578,0,0
2619.852002,0.2431640625,-0.12188720703125,-0.070068359375,-0.959716796875,-0.9765625,-0.244140625,1.5869140625,0.2723388671875,0.03955078125,0.9547119140625,-40.0,-32.0,-117.0,101926.0,-4.993000030517578,0,0
2619.859018,0.243194580078125,-0.1219482421875,-0.0699462890625,-0.959716796875,-1.77001953125,-0.91552734375,1.03759765625,0.2684326171875,0.0511474609375,0.9639892578125,-40.0,-32.0,-117.0,101926.0,-4.993000030517578,0,0
2619.880016,0.243255615234375,-0.1220703125,-0.069793701171875,-0.959686279296875,1.52587890625,0.42724609375,-0.244140625,0.274169921875,0.0635986328125,0.95068359375,-40.0,-32.0,-117.0,101926.0,-4.993000030517578,0,0
2619.887004,0.24322509765625,-0.12200927734375,-0.069854736328125,-0.959716796875,2.62451171875,1.46484375,-0.79345703125,0.27490234375,0.0555419921875,0.952392578125,-40.0,-32.0,-117.0,101926.0,-4.993000030517578,0,0
2619.894018,0.24322509765625,-0.121978759765625,-0.069854736328125,-0.959716796875,2.5634765625,3.0517578125,-1.220703125,0.2891845703125,0.0390625,0.948486328125,-40.0,-32.0,-117.0,101926.0,-4.993000030517578,0,0
2619.900998,0.24322509765625,-0.1219482421875,-0.069793701171875,-0.959716796875,1.77001953125,2.74658203125,-1.15966796875,0.2890625,0.0350341796875,0.9443359375,-40.0,-32.0,-117.0,101926.0,-4.993000030517578,0,0
2619.907026,0.24322509765625,-0.1219482421875,-0.069793701171875,-0.959716796875,1.77001953125,2.74658203125,-1.15966796875,0.2890625,0.0350341796875,0.9443359375,-40.0,-32.0,-117.0,101926.0,-4.993000030517578,0,0
2619.914015,0.243133544921875,-0.1219482421875,-0.069366455078125,-0.95977783203125,-1.708984375,0.91552734375,-0.79345703125,0.2664794921875,0.052001953125,0.958251953125,-40.0,-32.0,-117.0,101926.0,-4.993000030517578,0,0
2619.920994,0.24310302734375,-0.121917724609375,-0.0692138671875,-0.95977783203125,-2.38037109375,0.54931640625,-0.79345703125,0.25830078125,0.0582275390625,0.9693603515625,-40.0,-32.0,-116.0,101926.0,-4.994000434875488,0,0
2619.927998,0.23876953125,-0.122222900390625,-0.06854248046875,-0.96087646484375,-2.197265625,0.0,-0.9765625,0.2518310546875,0.0616455078125,0.976318359375,-40.0,-32.0,-116.0,101926.0,-4.994000434875488,0,0
2619.935018,0.238677978515625,-0.12200927734375,-0.068359375,-0.9609375,-1.40380859375,-0.79345703125,-0.3662109375,0.2357177734375,0.087646484375,0.99462890625,-40.0,-32.0,-116.0,101926.0,-4.994000434875488,0,0
2619.942002,0.2386474609375,-0.121917724609375,-0.068359375,-0.960968017578125,-1.40380859375,-0.9765625,-0.6103515625,0.2308349609375,0.095703125,0.996826171875,-40.0,-32.0,-116.0,101926.0,-4.994000434875488,0,0
2619.949018,0.23858642578125,-0.12164306640625,-0.068450927734375,-0.96099853515625,-1.15966796875,-0.48828125,-0.30517578125,0.2353515625,0.109375,1.0028076171875,-40.0,-32.0,-116.0,101926.0,-4.994000434875488,0,0
2619.955996,0.238555908203125,-0.121368408203125,-0.068634033203125,-0.961029052734375,-0.8544921875,1.03759765625,-0.06103515625,0.2388916015625,0.1226806640625,1.0048828125,-40.0,-32.0,-116.0,101926.0,-4.994000434875488,0,0
2619.962995,0.238525390625,-0.12103271484375,-0.068817138671875,-0.961090087890625,-0.9765625,1.3427734375,0.18310546875,0.2415771484375,0.12939453125,0.998291015625,-40.0,-32.0,-116.0,101926.0,-4.994000434875488,0,0
2619.970016,0.238525390625,-0.120880126953125,-0.0689697265625,-0.961090087890625,-0.54931640625,1.64794921875,0.30517578125,0.2537841796875,0.144775390625,0.9862060546875,-40.0,-32.0,-116.0,101926.0,-4.994000434875488,0,0
2619.977004,0.238494873046875,-0.120635986328125,-0.069305419921875,-0.961090087890625,0.1220703125,2.25830078125,0.1220703125,0.26806640625,0.1439208984375,0.97998046875,-40.0,-32.0,-116.0,101926.0,-4.994000434875488,0,0
2619.984018,0.23846435546875,-0.12042236328125,-0.069671630859375,-0.96112060546875,1.03759765625,2.13623046875,0.1220703125,0.2767333984375,0.1263427734375,0.9713134765625,-40.0,-32.0,-116.0,101926.0,-4.994000434875488,0,0
2619.990998,0.23846435546875,-0.120391845703125,-0.06982421875,-0.96112060546875,1.52587890625,1.77001953125,-0.42724609375,0.28076171875,0.1114501953125,0.970703125,-40.0,-32.0,-116.0,101926.0,-4.994000434875488,0,0
2619.997026,0.23846435546875,-0.120391845703125,-0.06982421875,-0.96112060546875,1.52587890625,1.77001953125,-0.42724609375,0.28076171875,0.1114501953125,0.970703125,-40.0,-32.0,-116.0,101926.0,-4.994000434875488,0,0
2620.004015,0.23846435546875,-0.120513916015625,-0.070098876953125,-0.9610595703125,1.15966796875,-1.03759765625,-0.1220703125,0.2816162109375,0.0606689453125,0.954833984375,-40.0,-32.0,-116.0,101926.0,-4.994000434875488,0,0
2620.010995,0.23846435546875,-0.120635986328125,-0.070098876953125,-0.9610595703125,0.91552734375,-1.708984375,0.18310546875,0.2779541015625,0.0504150390625,0.954345703125,-40.0,-32.0,-116.0,101926.0,-4.994000434875488,0,0
2620.017998,0.238494873046875,-0.120880126953125,-0.069976806640625,-0.961029052734375,-0.06103515625,-2.62451171875,-0.06103515625,0.271484375,0.040283203125,0.9564208984375,-39.0,-32.0,-115.0,101926.0,-4.99500036239624,0,0
2620.025023,0.234405517578125,-0.121490478515625,-0.069244384765625,-0.962005615234375,-0.79345703125,-2.99072265625,0.1220703125,0.27099609375,0.0428466796875,0.9595947265625,-39.0,-32.0,-115.0,101926.0,-4.99500036239624,0,0
2620.032002,0.234405517578125,-0.12158203125,-0.06915283203125,-0.962005615234375,-1.8310546875,-1.77001953125,-0.06103515625,0.27099609375,0.0499267578125,0.9686279296875,-39.0,-32.0,-115.0,101926.0,-4.99500036239624,0,0
2620.052996,0.234344482421875,-0.12200927734375,-0.06866455078125,-0.962005615234375,-1.64794921875,0.42724609375,-0.42724609375,0.2781982421875,0.063720703125,0.955322265625,-39.0,-32.0,-115.0,101926.0,-4.99500036239624,0,0
2620.06002,0.23431396484375,-0.1220703125,-0.068603515625,-0.962005615234375,-1.52587890625,0.18310546875,-0.67138671875,0.2781982421875,0.0679931640625,0.943359375,-39.0,-32.0,-115.0,101926.0,-4.99500036239624,0,0
2620.067004,0.234283447265625,-0.12213134765625,-0.06854248046875,-0.962005615234375,-1.89208984375,-0.06103515625,-0.67138671875,0.2764892578125,0.0672607421875,0.9443359375,-39.0,-32.0,-115.0,101926.0,-4.99500036239624,0,0
2620.074018,0.23419189453125,-0.12225341796875,-0.068359375,-0.9620361328125,-1.77001953125,-0.244140625,-0.91552734375,0.2725830078125,0.068115234375,0.9505615234375,-39.0,-32.0,-115.0,101926.0,-4.99500036239624,0,0
2620.080998,0.234130859375,-0.12225341796875,-0.06829833984375,-0.9620361328125,-0.54931640625,0.79345703125,-1.28173828125,0.2694091796875,0.06005859375,0.957763671875,-39.0,-32.0,-115.0,101926.0,-4.99500036239624,0,0
2620.087998,0.23406982421875,-0.122222900390625,-0.068267822265625,-0.962066650390625,0.3662109375,1.03759765625,-1.28173828125,0.2672119140625,0.0562744140625,0.9542236328125,-39.0,-32.0,-115.0,101926.0,-4.99500036239624,0,0
2620.094031,0.23406982421875,-0.122222900390625,-0.068267822265625,-0.962066650390625,0.3662109375,1.03759765625,-1.28173828125,0.2672119140625,0.0562744140625,0.9542236328125,-39.0,-32.0,-115.0,101926.0,-4.99500036239624,0,0
2620.100999,0.233978271484375,-0.1221923828125,-0.068206787109375,-0.96209716796875,2.74658203125,2.25830078125,-1.953125,0.2838134765625,0.0333251953125,0.9447021484375,-39.0,-32.0,-115.0,101926.0,-4.99500036239624,0,0
2620.107998,0.233917236328125,-0.1221923828125,-0.068145751953125,-0.962127685546875,2.74658203125,2.25830078125,-1.77001953125,0.287841796875,0.0299072265625,0.9462890625,-39.0,-32.0,-115.0,101926.0,-4.99500036239624,0,0
2620.115019,0.23388671875,-0.1221923828125,-0.068023681640625,-0.962127685546875,2.25830078125,2.25830078125,-1.77001953125,0.284912109375,0.031982421875,0.946044921875,-39.0,-32.0,-115.0,101926.0,-4.994000434875488,0,0
2620.122002,0.23028564453125,-0.122467041015625,-0.0675048828125,-0.9630126953125,-0.79345703125,0.54931640625,-0.67138671875,0.2584228515625,0.05224609375,0.9293212890625,-39.0,-31.0,-114.0,101926.0,-4.994000434875488,0,0
2620.142995,0.23016357421875,-0.12249755859375,-0.067474365234375,-0.9630126953125,-0.48828125,-2.38037109375,0.06103515625,0.237548828125,0.114013671875,0.9688720703125,-39.0,-31.0,-114.0,101926.0,-4.994000434875488,0,0
2620.150016,0.230133056640625,-0.12237548828125,-0.067779541015625,-0.963043212890625,2.3193359375,-1.52587890625,-0.06103515625,0.2359619140625,0.1080322265625,0.9805908203125,-39.0,-31.0,-114.0,101926.0,-4.994000434875488,0,0
2620.157004,0.230194091796875,-0.122161865234375,-0.068115234375,-0.9630126953125,4.57763671875,-0.91552734375,0.3662109375,0.2418212890625,0.0880126953125,0.9876708984375,-39.0,-31.0,-114.0,101926.0,-4.994000434875488,0,0
2620.164018,0.230224609375,-0.1220703125,-0.06829833984375,-0.9630126953125,5.126953125,-0.67138671875,0.8544921875,0.2451171875,0.0792236328125,0.991943359375,-39.0,-31.0,-114.0,101926.0,-4.994000434875488,0,0
2620.170998,0.230377197265625,-0.121917724609375,-0.06854248046875,-0.962982177734375,5.859375,-0.3662109375,1.52587890625,0.2584228515625,0.0562744140625,0.9984130859375,-39.0,-31.0,-114.0,101926.0,-4.994000434875488,0,0
2620.177998,0.2305908203125,-0.121856689453125,-0.068695068359375,-0.962921142578125,5.18798828125,-0.6103515625,2.62451171875,0.263671875,0.0418701171875,1.0040283203125,-39.0,-31.0,-114.0,101926.0,-4.994000434875488,0,0
2620.18403,0.2305908203125,-0.121856689453125,-0.068695068359375,-0.962921142578125,5.18798828125,-0.6103515625,2.62451171875,0.263671875,0.0418701171875,1.0040283203125,-39.0,-31.0,-114.0,101926.0,-4.994000434875488,0,0
2620.190994,0.231048583984375,-0.121978759765625,-0.068756103515625,-0.962799072265625,3.11279296875,-1.5869140625,3.7841796875,0.2802734375,0.0499267578125,0.994873046875,-39.0,-31.0,-114.0,101926.0,-4.994000434875488,0,0
2620.197998,0.23138427734375,-0.12213134765625,-0.068817138671875,-0.962677001953125,3.11279296875,-1.64794921875,4.94384765625,0.27783203125,0.0562744140625,0.9959716796875,-39.0,-31.0,-114.0,101926.0,-4.994000434875488,0,0
2620.205018,0.231781005859375,-0.122283935546875,-0.06890869140625,-0.962554931640625,3.0517578125,-2.13623046875,5.37109375,0.2752685546875,0.0655517578125,0.98974609375,-39.0,-31.0,-114.0,101926.0,-4.994000434875488,0,0
2620.212002,0.23199462890625,-0.12237548828125,-0.069000244140625,-0.962493896484375,3.173828125,-2.50244140625,5.9814453125,0.2801513671875,0.0751953125,0.9815673828125,-39.0,-31.0,-114.0,101926.0,-4.994000434875488,0,0
2620.219018,0.232421875,-0.122650146484375,-0.069305419921875,-0.96234130859375,3.5400390625,-3.5400390625,6.591796875,0.284912109375,0.087646484375,0.9598388671875,-39.0,-31.0,-115.0,101926.0,-4.994000434875488,0,0
2620.225996,0.22332763671875,-0.12371826171875,-0.0684814453125,-0.96441650390625,3.5400390625,-4.2724609375,6.591796875,0.2862548828125,0.0906982421875,0.9521484375,-39.0,-31.0,-115.0,101926.0,-4.994000434875488,0,0
2620.232995,0.223602294921875,-0.123931884765625,-0.06866455078125,-0.96429443359375,3.72314453125,-4.45556640625,7.50732421875,0.291015625,0.0906982421875,0.94287109375,-39.0,-31.0,-115.0,101926.0,-4.994000434875488,0,0
2620.24002,0.224395751953125,-0.124664306640625,-0.069366455078125,-0.9639892578125,3.173828125,-4.33349609375,8.97216796875,0.3043212890625,0.100341796875,0.9344482421875,-39.0,-31.0,-115.0,101926.0,-4.994000434875488,0,0
2620.247004,0.22467041015625,-0.12493896484375,-0.069580078125,-0.9638671875,1.5869140625,-4.33349609375,8.85009765625,0.31494140625,0.115478515625,0.923583984375,-39.0,-31.0,-115.0,101926.0,-4.994000434875488,0,0
2620.254018,0.2254638671875,-0.125732421875,-0.07012939453125,-0.963531494140625,1.0986328125,-4.5166015625,8.72802734375,0.311767578125,0.1265869140625,0.925048828125,-39.0,-31.0,-115.0,101926.0,-4.994000434875488,0,0
2620.260998,0.225738525390625,-0.12591552734375,-0.070220947265625,-0.96343994140625,0.79345703125,-4.5166015625,8.6669921875,0.2806396484375,0.0977783203125,0.9345703125,-39.0,-31.0,-115.0,101926.0,-4.994000434875488,0,0
2620.267998,0.22601318359375,-0.126068115234375,-0.070281982421875,-0.963348388671875,0.48828125,-4.21142578125,8.36181640625,0.270263671875,0.0924072265625,0.9488525390625,-39.0,-31.0,-115.0,101926.0,-4.994000434875488,0,0
2620.275018,0.226806640625,-0.126373291015625,-0.0703125,-0.963134765625,1.8310546875,-4.21142578125,8.30078125,0.261474609375,0.0830078125,0.9554443359375,-39.0,-31.0,-115.0,101926.0,-4.994000434875488,0,0
2620.28105,0.226806640625,-0.126373291015625,-0.0703125,-0.963134765625,1.8310546875,-4.21142578125,8.30078125,0.261474609375,0.0830078125,0.9554443359375,-39.0,-31.0,-115.0,101926.0,-4.994000434875488,0,0
2620.287998,0.227264404296875,-0.126434326171875,-0.070159912109375,-0.9630126953125,-0.18310546875,-2.8076171875,6.53076171875,0.2467041015625,0.0650634765625,0.9986572265625,-39.0,-31.0,-115.0,101926.0,-4.994000434875488,0,0
2620.295018,0.227813720703125,-0.126190185546875,-0.069732666015625,-0.96295166015625,-0.30517578125,-0.9765625,6.04248046875,0.2518310546875,0.0592041015625,1.01611328125,-39.0,-31.0,-115.0,101926.0,-4.994000434875488,0,0
2620.315996,0.228240966796875,-0.12591552734375,-0.068817138671875,-0.96295166015625,-3.90625,3.5400390625,0.8544921875,0.3018798828125,0.06201171875,0.9630126953125,-39.0,-31.0,-115.0,101926.0,-4.99500036239624,0,0
2620.322996,0.22332763671875,-0.126312255859375,-0.0679931640625,-0.964111328125,-4.638671875,3.60107421875,0.1220703125,0.3133544921875,0.06982421875,0.9605712890625,-39.0,-31.0,-116.0,101926.0,-4.99500036239624,0,0
2620.33002,0.223236083984375,-0.126434326171875,-0.067657470703125,-0.964141845703125,-5.9814453125,2.99072265625,-0.42724609375,0.313232421875,0.0816650390625,0.950927734375,-39.0,-31.0,-116.0,101926.0,-4.99500036239624,0,0
2620.337004,0.222991943359375,-0.126617431640625,-0.06732177734375,-0.964202880859375,-9.3994140625,0.6103515625,-2.44140625,0.2979736328125,0.1153564453125,0.9332275390625,-39.0,-31.0,-116.0,101926.0,-4.99500036239624,0,0
2620.344018,0.22259521484375,-0.126861572265625,-0.067047119140625,-0.964263916015625,-9.765625,-0.67138671875,-3.2958984375,0.2921142578125,0.12158203125,0.935302734375,-39.0,-31.0,-116.0,101926.0,-4.99500036239624,0,0
2620.350998,0.22235107421875,-0.126922607421875,-0.066925048828125,-0.964324951171875,-10.009765625,-1.03759765625,-4.7607421875,0.2752685546875,0.1357421875,0.9652099609375,-39.0,-31.0,-116.0,101926.0,-4.99500036239624,0,0
2620.357998,0.2218017578125,-0.126922607421875,-0.0667724609375,-0.9644775390625,-9.33837890625,-0.42724609375,-6.16455078125,0.2685546875,0.1534423828125,0.968505859375,-39.0,-31.0,-116.0,101926.0,-4.99500036239624,0,0
2620.365018,0.221160888671875,-0.1268310546875,-0.0667724609375,-0.964630126953125,-8.60595703125,-0.42724609375,-7.01904296875,0.265380859375,0.158935546875,0.9747314453125,-39.0,-31.0,-116.0,101926.0,-4.99500036239624,0,0
2620.371051,0.221160888671875,-0.1268310546875,-0.0667724609375,-0.964630126953125,-8.60595703125,-0.42724609375,-7.01904296875,0.265380859375,0.158935546875,0.9747314453125,-39.0,-31.0,-116.0,101926.0,-4.99500036239624,0,0
2620.377998,0.220123291015625,-0.12640380859375,-0.06683349609375,-0.96490478515625,-4.5166015625,3.662109375,-9.70458984375,0.2764892578125,0.13232421875,1.011474609375,-39.0,-31.0,-116.0,101926.0,-4.99500036239624,0,0
2620.385023,0.219390869140625,-0.126068115234375,-0.066802978515625,-0.965118408203125,-4.0283203125,3.96728515625,-10.07080078125,0.2767333984375,0.1199951171875,1.007080078125,-39.0,-31.0,-116.0,101926.0,-4.99500036239624,0,0
2620.405996,0.217620849609375,-0.125518798828125,-0.06610107421875,-0.96563720703125,-5.0048828125,1.953125,-9.765625,0.2734375,0.05810546875,0.99658203125,-39.0,-31.0,-116.0,101926.0,-4.99500036239624,0,0
2620.412996,0.21728515625,-0.12548828125,-0.065887451171875,-0.965728759765625,-5.43212890625,1.46484375,-9.58251953125,0.2733154296875,0.0550537109375,0.9879150390625,-39.0,-31.0,-116.0,101926.0,-4.994000434875488,0,0
2620.420016,0.21661376953125,-0.125518798828125,-0.065460205078125,-0.965911865234375,-5.43212890625,0.18310546875,-9.033203125,0.2718505859375,0.0494384765625,0.9853515625,-38.0,-32.0,-116.0,101926.0,-4.994000434875488,0,0
2620.427004,0.21026611328125,-0.126007080078125,-0.064239501953125,-0.96734619140625,-5.615234375,-0.732421875,-7.9345703125,0.2706298828125,0.046142578125,0.9755859375,-38.0,-32.0,-116.0,101926.0,-4.994000434875488,0,0
2620.434018,0.209991455078125,-0.126068115234375,-0.06402587890625,-0.9674072265625,-5.18798828125,-1.03759765625,-7.4462890625,0.267333984375,0.0489501953125,0.96923828125,-38.0,-32.0,-116.0,101926.0,-4.994000434875488,0,0
2620.440998,0.209320068359375,-0.12628173828125,-0.063629150390625,-0.967559814453125,-3.90625,-1.708984375,-5.55419921875,0.2718505859375,0.0684814453125,0.9603271484375,-38.0,-32.0,-116.0,101926.0,-4.994000434875488,0,0
2620.447997,0.209136962890625,-0.126373291015625,-0.06353759765625,-0.96759033203125,-3.2958984375,-1.3427734375,-4.82177734375,0.2799072265625,0.06689453125,0.9599609375,-38.0,-32.0,-116.0,101926.0,-4.994000434875488,0,0
2620.455018,0.208740234375,-0.126495361328125,-0.063385009765625,-0.9676513671875,-2.74658203125,-0.8544921875,-4.150390625,0.2830810546875,0.068603515625,0.96484375,-38.0,-32.0,-116.0,101926.0,-4.994000434875488,0,0
2620.46105,0.208740234375,-0.126495361328125,-0.063385009765625,-0.9676513671875,-2.74658203125,-0.8544921875,-4.150390625,0.2830810546875,0.068603515625,0.96484375,-38.0,-32.0,-116.0,101926.0,-4.994000434875488,0,0
2620.467998,0.2086181640625,-0.12652587890625,-0.0633544921875,-0.967681884765625,1.0986328125,1.8310546875,-2.0751953125,0.289794921875,0.0460205078125,0.9560546875,-38.0,-32.0,-116.0,101926.0,-4.994000434875488,0,0
2620.475018,0.2086181640625,-0.126434326171875,-0.063262939453125,-0.96771240234375,2.13623046875,1.89208984375,-1.52587890625,0.2857666015625,0.038330078125,0.95556640625,-38.0,-32.0,-116.0,101926.0,-4.994000434875488,0,0
2620.482002,0.208709716796875,-0.126434326171875,-0.063201904296875,-0.967681884765625,3.60107421875,2.0751953125,0.91552734375,0.27685546875,0.0107421875,0.9508056640625,-38.0,-32.0,-116.0,101926.0,-4.994000434875488,0,0
2620.489018,0.20892333984375,-0.12640380859375,-0.063079833984375,-0.9676513671875,3.5400390625,1.46484375,1.46484375,0.2733154296875,0.013916015625,0.946533203125,-38.0,-32.0,-116.0,101926.0,-4.994000434875488,0,0
2620.495996,0.209197998046875,-0.12628173828125,-0.06304931640625,-0.967620849609375,3.72314453125,0.79345703125,3.11279296875,0.250732421875,0.02880859375,0.9468994140625,-38.0,-32.0,-116.0,101926.0,-4.994000434875488,0,0
2620.502995,0.2093505859375,-0.126220703125,-0.06304931640625,-0.96759033203125,3.84521484375,1.52587890625,4.0283203125,0.2525634765625,0.035888671875,0.9466552734375,-38.0,-32.0,-116.0,101926.0,-4.994000434875488,0,0
2620.510016,0.209747314453125,-0.126007080078125,-0.06317138671875,-0.967529296875,3.90625,1.953125,4.57763671875,0.2525634765625,0.04345703125,0.94189453125,-38.0,-32.0,-116.0,101926.0,-4.994000434875488,0,0
2620.517004,0.21014404296875,-0.12579345703125,-0.063385009765625,-0.967437744140625,4.8828125,2.5634765625,4.82177734375,0.256591796875,0.0511474609375,0.93505859375,-39.0,-32.0,-115.0,101926.0,-4.994000434875488,0,0
2620.524018,0.204376220703125,-0.1260986328125,-0.06280517578125,-0.96868896484375,6.77490234375,3.11279296875,5.126953125,0.273193359375,0.0714111328125,0.930419921875,-39.0,-32.0,-115.0,101926.0,-4.994000434875488,0,0
2620.530998,0.205047607421875,-0.12579345703125,-0.063446044921875,-0.968536376953125,7.080078125,3.0517578125,5.37109375,0.2757568359375,0.0728759765625,0.927978515625,-39.0,-32.0,-115.0,101926.0,-4.994000434875488,0,0
2620.537997,0.20526123046875,-0.125701904296875,-0.063690185546875,-0.968475341796875,7.32421875,2.9296875,5.615234375,0.2838134765625,0.0753173828125,0.9354248046875,-39.0,-32.0,-115.0,101926.0,-4.994000434875488,0,0
2620.545018,0.205718994140625,-0.1256103515625,-0.06402587890625,-0.9683837890625,6.7138671875,2.25830078125,5.7373046875,0.2818603515625,0.0650634765625,0.934814453125,-39.0,-32.0,-115.0,101926.0,-4.994000434875488,0,0
2620.552001,0.2061767578125,-0.125518798828125,-0.0643310546875,-0.96826171875,6.16455078125,0.79345703125,5.37109375,0.2708740234375,0.051513671875,0.9605712890625,-39.0,-32.0,-115.0,101926.0,-4.994000434875488,0,0
2620.558034,0.2061767578125,-0.125518798828125,-0.0643310546875,-0.96826171875,6.16455078125,0.79345703125,5.37109375,0.2708740234375,0.051513671875,0.9605712890625,-39.0,-32.0,-115.0,101926.0,-4.994000434875488,0,0
2620.579018,0.207305908203125,-0.1248779296875,-0.06494140625,-0.96807861328125,5.18798828125,-0.79345703125,4.0283203125,0.22412109375,0.0765380859375,0.998291015625,-39.0,-32.0,-115.0,101926.0,-4.994000434875488,0,0
2620.585996,0.20758056640625,-0.124542236328125,-0.065216064453125,-0.968048095703125,4.57763671875,-0.48828125,3.662109375,0.2254638671875,0.0841064453125,1.0040283203125,-39.0,-32.0,-115.0,101926.0,-4.994000434875488,0,0
2620.592995,0.207733154296875,-0.124114990234375,-0.065643310546875,-0.968048095703125,3.47900390625,1.15966796875,2.197265625,0.2344970703125,0.1295166015625,1.0120849609375,-39.0,-32.0,-115.0,101926.0,-4.994000434875488,0,0
2620.60002,0.207794189453125,-0.123626708984375,-0.06622314453125,-0.968048095703125,3.96728515625,1.5869140625,1.64794921875,0.2398681640625,0.14697265625,1.0068359375,-39.0,-32.0,-115.0,101926.0,-4.994000434875488,0,0
2620.607004,0.207794189453125,-0.1234130859375,-0.06646728515625,-0.968048095703125,2.25830078125,2.50244140625,0.67138671875,0.24853515625,0.15869140625,1.001953125,-39.0,-32.0,-115.0,101926.0,-4.994000434875488,0,0
2620.614018,0.207763671875,-0.123016357421875,-0.06707763671875,-0.96807861328125,2.8076171875,2.50244140625,-0.48828125,0.2596435546875,0.1563720703125,0.9844970703125,-39.0,-32.0,-115.0,101926.0,-4.994000434875488,0,0
2620.620998,0.20770263671875,-0.12286376953125,-0.067474365234375,-0.96807861328125,4.5166015625,2.01416015625,-1.64794921875,0.267578125,0.1605224609375,0.9759521484375,-38.0,-30.0,-115.0,101926.0,-4.994000434875488,0,0
2620.627998,0.2034912109375,-0.1229248046875,-0.06756591796875,-0.968963623046875,4.33349609375,1.3427734375,-2.74658203125,0.2740478515625,0.1239013671875,0.9691162109375,-38.0,-30.0,-115.0,101926.0,-4.994000434875488,0,0
2620.635018,0.203277587890625,-0.122802734375,-0.06805419921875,-0.968994140625,4.21142578125,1.40380859375,-3.90625,0.2813720703125,0.1080322265625,0.959228515625,-38.0,-30.0,-115.0,101926.0,-4.994000434875488,0,0
2620.642001,0.202972412109375,-0.122772216796875,-0.0684814453125,-0.969024658203125,3.11279296875,-0.244140625,-5.0048828125,0.2745361328125,0.1007080078125,0.942138671875,-38.0,-30.0,-115.0,101926.0,-4.994000434875488,0,0
2620.648034,0.202972412109375,-0.122772216796875,-0.0684814453125,-0.969024658203125,3.11279296875,-0.244140625,-5.0048828125,0.2745361328125,0.1007080078125,0.942138671875,-38.0,-30.0,-115.0,101926.0,-4.994000434875488,0,0
2620.669018,0.2017822265625,-0.12298583984375,-0.0689697265625,-0.969207763671875,-0.244140625,0.6103515625,-6.4697265625,0.2823486328125,0.07373046875,0.946533203125,-38.0,-30.0,-115.0,101926.0,-4.994000434875488,0,0
2620.675996,0.201080322265625,-0.12298583984375,-0.068939208984375,-0.9693603515625,0.1220703125,1.15966796875,-7.26318359375,0.27734375,0.0728759765625,0.948974609375,-38.0,-30.0,-115.0,101926.0,-4.994000434875488,0,0
2620.682996,0.2008056640625,-0.122955322265625,-0.06890869140625,-0.96942138671875,-0.54931640625,1.52587890625,-7.99560546875,0.2696533203125,0.06201171875,0.949951171875,-38.0,-30.0,-115.0,101926.0,-4.994000434875488,0,0
2620.69002,0.200042724609375,-0.122894287109375,-0.06854248046875,-0.9696044921875,-0.67138671875,1.52587890625,-7.8125,0.2662353515625,0.05615234375,0.9527587890625,-38.0,-30.0,-115.0,101926.0,-4.994000434875488,0,0
2620.697004,0.199798583984375,-0.122894287109375,-0.068359375,-0.96966552734375,-1.953125,0.9765625,-8.056640625,0.267333984375,0.0330810546875,0.953125,-38.0,-30.0,-115.0,101926.0,-4.994000434875488,0,0
2620.704018,0.19952392578125,-0.1229248046875,-0.06817626953125,-0.9697265625,-2.3193359375,0.79345703125,-8.36181640625,0.2669677734375,0.031005859375,0.9541015625,-38.0,-30.0,-115.0,101926.0,-4.994000434875488,0,0
2620.710998,0.19873046875,-0.12286376953125,-0.067535400390625,-0.969940185546875,-2.74658203125,1.15966796875,-8.11767578125,0.265380859375,0.0335693359375,0.95849609375,-38.0,-30.0,-115.0,101926.0,-4.994000434875488,0,0
2620.717998,0.198486328125,-0.122802734375,-0.067352294921875,-0.97003173828125,-2.8076171875,1.77001953125,-8.11767578125,0.2584228515625,0.0350341796875,0.952880859375,-38.0,-30.0,-115.0,101926.0,-4.994000434875488,0,0
2620.725018,0.193572998046875,-0.123046875,-0.06658935546875,-0.971038818359375,-2.197265625,2.5634765625,-8.056640625,0.2569580078125,0.0347900390625,0.943359375,-38.0,-30.0,-115.0,101926.0,-4.994000434875488,0,0
2620.732001,0.19287109375,-0.122894287109375,-0.06610107421875,-0.971221923828125,-1.89208984375,2.8076171875,-7.62939453125,0.260986328125,0.036376953125,0.939208984375,-38.0,-30.0,-115.0,101926.0,-4.994000434875488,0,0
2620.739019,0.192657470703125,-0.12286376953125,-0.065948486328125,-0.971282958984375,-0.3662109375,3.90625,-7.14111328125,0.283447265625,0.02197265625,0.932373046875,-38.0,-30.0,-115.0,101926.0,-4.994000434875488,0,0
2620.74505,0.192657470703125,-0.12286376953125,-0.065948486328125,-0.971282958984375,-0.3662109375,3.90625,-7.14111328125,0.283447265625,0.02197265625,0.932373046875,-38.0,-30.0,-115.0,101926.0,-4.994000434875488,0,0
2620.752002,0.1920166015625,-0.122833251953125,-0.065185546875,-0.971466064453125,-0.9765625,3.60107421875,-5.126953125,0.287109375,0.0142822265625,0.929443359375,-38.0,-30.0,-115.0,101926.0,-4.994000434875488,0,0
2620.759018,0.19189453125,-0.12286376953125,-0.06494140625,-0.97149658203125,-1.953125,2.86865234375,-4.08935546875,0.286376953125,0.013916015625,0.929443359375,-38.0,-30.0,-115.0,101926.0,-4.994000434875488,0,0
2620.765996,0.1917724609375,-0.1229248046875,-0.064697265625,-0.971527099609375,-2.86865234375,1.5869140625,-3.5400390625,0.2830810546875,0.0179443359375,0.9381103515625,-38.0,-30.0,-115.0,101926.0,-4.996000289916992,0,0
2620.772995,0.19158935546875,-0.123291015625,-0.06402587890625,-0.971588134765625,-4.5166015625,-1.220703125,-1.52587890625,0.279541015625,0.05126953125,0.95654296875,-38.0,-30.0,-115.0,101926.0,-4.996000289916992,0,0
2620.78002,0.1915283203125,-0.123443603515625,-0.063873291015625,-0.971588134765625,-4.5166015625,-2.01416015625,-0.91552734375,0.277587890625,0.066162109375,0.96728515625,-38.0,-30.0,-115.0,101926.0,-4.996000289916992,0,0
2620.787004,0.19146728515625,-0.123687744140625,-0.06365966796875,-0.9715576171875,-3.2958984375,-2.9296875,0.18310546875,0.265869140625,0.0855712890625,0.97607421875,-38.0,-30.0,-115.0,101926.0,-4.996000289916992,0,0
2620.794018,0.19146728515625,-0.12396240234375,-0.063629150390625,-0.971527099609375,-2.5634765625,-4.39453125,0.9765625,0.261474609375,0.0924072265625,0.977783203125,-38.0,-30.0,-115.0,101926.0,-4.996000289916992,0,0
2620.800998,0.191558837890625,-0.124267578125,-0.063629150390625,-0.97149658203125,-2.50244140625,-4.638671875,1.5869140625,0.2626953125,0.0975341796875,0.9837646484375,-38.0,-30.0,-115.0,101926.0,-4.996000289916992,0,0
2620.807997,0.191619873046875,-0.124359130859375,-0.06365966796875,-0.971466064453125,-2.38037109375,-4.69970703125,2.9296875,0.2550048828125,0.109375,0.9896240234375,-38.0,-30.0,-115.0,101926.0,-4.996000289916992,0,0
2620.815018,0.1917724609375,-0.12457275390625,-0.06378173828125,-0.971405029296875,-2.5634765625,-5.31005859375,3.84521484375,0.2451171875,0.1337890625,0.984130859375,-38.0,-30.0,-115.0,101926.0,-4.996000289916992,0,0
2620.822001,0.187408447265625,-0.125030517578125,-0.063446044921875,-0.972198486328125,-1.89208984375,-5.43212890625,3.96728515625,0.2413330078125,0.1378173828125,0.98583984375,-37.0,-30.0,-115.0,101926.0,-4.996000289916992,0,0
2620.842002,0.188018798828125,-0.125213623046875,-0.064300537109375,-0.972015380859375,2.685546875,-5.126953125,4.45556640625,0.237060546875,0.1112060546875,0.993896484375,-37.0,-30.0,-115.0,101926.0,-4.996000289916992,0,0
2620.849018,0.188140869140625,-0.12530517578125,-0.064483642578125,-0.971954345703125,3.5400390625,-5.4931640625,4.39453125,0.240478515625,0.098388671875,0.9906005859375,-37.0,-30.0,-115.0,101926.0,-4.996000289916992,0,0
2620.855996,0.188629150390625,-0.1256103515625,-0.0648193359375,-0.9718017578125,4.2724609375,-5.67626953125,4.33349609375,0.247802734375,0.06640625,0.9893798828125,-37.0,-30.0,-115.0,101926.0,-4.996000289916992,0,0
2620.862995,0.188812255859375,-0.125762939453125,-0.064849853515625,-0.97174072265625,3.96728515625,-6.40869140625,4.638671875,0.2501220703125,0.0435791015625,0.9840087890625,-37.0,-30.0,-115.0,101926.0,-4.996000289916992,0,0
2620.870016,0.18896484375,-0.1259765625,-0.064849853515625,-0.9716796875,3.662109375,-6.77490234375,4.39453125,0.2576904296875,0.0335693359375,0.981201171875,-37.0,-30.0,-115.0,101926.0,-4.993000030517578,0,0
2620.877004,0.189483642578125,-0.126678466796875,-0.06463623046875,-0.97149658203125,1.46484375,-6.04248046875,4.21142578125,0.274169921875,0.02099609375,0.9857177734375,-37.0,-30.0,-115.0,101926.0,-4.993000030517578,0,0
2620.884018,0.18963623046875,-0.12689208984375,-0.06451416015625,-0.971466064453125,0.54931640625,-5.43212890625,4.2724609375,0.2786865234375,0.02001953125,0.986572265625,-37.0,-30.0,-115.0,101926.0,-4.993000030517578,0,0
2620.890998,0.1900634765625,-0.12750244140625,-0.0640869140625,-0.9713134765625,-0.42724609375,-4.8828125,4.2724609375,0.2784423828125,0.02734375,0.983154296875,-37.0,-30.0,-115.0,101926.0,-4.993000030517578,0,0
2620.897997,0.190185546875,-0.127685546875,-0.063995361328125,-0.971282958984375,-1.52587890625,-3.96728515625,3.96728515625,0.27294921875,0.058349609375,0.9638671875,-37.0,-30.0,-115.0,101926.0,-4.993000030517578,0,0
2620.905018,0.1903076171875,-0.1278076171875,-0.06390380859375,-0.97125244140625,-1.8310546875,-3.173828125,3.41796875,0.2718505859375,0.0667724609375,0.959716796875,-37.0,-30.0,-115.0,101926.0,-4.993000030517578,0,0
2620.912001,0.190582275390625,-0.128143310546875,-0.063873291015625,-0.971160888671875,-1.0986328125,-1.89208984375,3.11279296875,0.2821044921875,0.0927734375,0.9404296875,-37.0,-30.0,-115.0,101926.0,-4.993000030517578,0,0
2620.932029,0.186676025390625,-0.128570556640625,-0.063385009765625,-0.971893310546875,-1.46484375,-0.244140625,1.5869140625,0.283447265625,0.0928955078125,0.9375,-37.0,-29.0,-115.0,101926.0,-4.993000030517578,0,0
2620.939018,0.186859130859375,-0.128448486328125,-0.06353759765625,-0.97186279296875,1.5869140625,3.2958984375,0.1220703125,0.281982421875,0.0728759765625,0.9200439453125,-37.0,-29.0,-115.0,101926.0,-4.993000030517578,0,0
2620.945996,0.1868896484375,-0.12835693359375,-0.0635986328125,-0.97186279296875,2.0751953125,3.5400390625,0.1220703125,0.28369140625,0.063232421875,0.9156494140625,-37.0,-29.0,-115.0,101926.0,-4.993000030517578,0,0
2620.952996,0.1868896484375,-0.128265380859375,-0.063568115234375,-0.97186279296875,1.5869140625,3.72314453125,-0.8544921875,0.285400390625,0.0469970703125,0.923583984375,-37.0,-29.0,-115.0,101926.0,-4.993000030517578,0,0
2620.96002,0.186859130859375,-0.128204345703125,-0.06353759765625,-0.971893310546875,1.0986328125,4.2724609375,-1.28173828125,0.2904052734375,0.0450439453125,0.9310302734375,-37.0,-29.0,-115.0,101926.0,-4.993000030517578,0,0
2620.967004,0.18682861328125,-0.128082275390625,-0.0633544921875,-0.971923828125,0.06103515625,4.33349609375,-1.0986328125,0.2894287109375,0.046142578125,0.9324951171875,-37.0,-29.0,-115.0,101926.0,-4.994000434875488,0,0
2620.974018,0.186737060546875,-0.12799072265625,-0.063140869140625,-0.97198486328125,-3.173828125,3.0517578125,-1.64794921875,0.2779541015625,0.0794677734375,0.939208984375,-37.0,-29.0,-115.0,101926.0,-4.994000434875488,0,0
2620.980998,0.18658447265625,-0.127838134765625,-0.062896728515625,-0.9720458984375,-4.82177734375,2.5634765625,-1.28173828125,0.2684326171875,0.0877685546875,0.942138671875,-37.0,-29.0,-115.0,101926.0,-4.994000434875488,0,0
2620.987998,0.18646240234375,-0.12774658203125,-0.06280517578125,-0.972076416015625,-5.859375,1.8310546875,-1.953125,0.256591796875,0.1129150390625,0.9498291015625,-37.0,-29.0,-115.0,101926.0,-4.994000434875488,0,0
2620.995018,0.18621826171875,-0.127593994140625,-0.06292724609375,-0.972137451171875,-2.86865234375,0.42724609375,-2.685546875,0.256591796875,0.13623046875,0.95849609375,-37.0,-29.0,-115.0,101926.0,-4.994000434875488,0,0
2621.002001,0.18597412109375,-0.127410888671875,-0.06304931640625,-0.972198486328125,-2.197265625,1.3427734375,-2.86865234375,0.263916015625,0.1329345703125,0.986083984375,-37.0,-29.0,-115.0,101926.0,-4.994000434875488,0,0
2621.009018,0.18585205078125,-0.127288818359375,-0.063140869140625,-0.97222900390625,-1.708984375,1.64794921875,-3.23486328125,0.2694091796875,0.126708984375,0.9901123046875,-37.0,-29.0,-115.0,101926.0,-4.994000434875488,0,0
2621.015995,0.185577392578125,-0.127044677734375,-0.063323974609375,-0.9722900390625,0.3662109375,2.62451171875,-3.72314453125,0.2703857421875,0.106201171875,1.0030517578125,-38.0,-30.0,-116.0,101926.0,-4.994000434875488,0,0
