Time stamp(sec),quaternion_0,quaternion_1,quaternion_2,quaternion_3,roll_angular_rate,pitch_angular_rate,yaw_angular_rate,acc_X,acc_Y,acc_Z,mag_X,mag_Y,mag_Z,pressure,altitude
2014.400017,-0.620330810546875,-0.044647216796875,0.031280517578125,-0.78240966796875,0.1220703125,0.244140625,0.0,0.109130859375,0.00537109375,1.0008544921875,27.0,-14.0,-43.0,101948.0,-5.176000118255615,0,0
2014.407001,-0.620330810546875,-0.044647216796875,0.031280517578125,-0.78240966796875,0.0,0.1220703125,-0.06103515625,0.1075439453125,0.0037841796875,0.9996337890625,27.0,-14.0,-43.0,101948.0,-5.176000118255615,0,0
2014.414018,-0.6168212890625,-0.0447998046875,0.03106689453125,-0.785186767578125,0.1220703125,0.30517578125,0.06103515625,0.1112060546875,0.0076904296875,0.9993896484375,28.0,-15.0,-43.0,101948.0,-5.176000118255615,0,0
2014.420999,-0.6168212890625,-0.0447998046875,0.03106689453125,-0.785186767578125,0.06103515625,0.06103515625,0.244140625,0.10888671875,0.0048828125,0.9990234375,28.0,-15.0,-43.0,101948.0,-5.176000118255615,0,0
2014.427999,-0.6168212890625,-0.0447998046875,0.03106689453125,-0.785186767578125,0.0,0.244140625,0.1220703125,0.1104736328125,0.0079345703125,0.998046875,28.0,-15.0,-43.0,101948.0,-5.176000118255615,0,0
2014.43502,-0.6168212890625,-0.0447998046875,0.031097412109375,-0.785186767578125,-0.1220703125,0.30517578125,-0.244140625,0.112060546875,0.0074462890625,0.997802734375,28.0,-15.0,-43.0,101948.0,-5.176000118255615,0,0
2014.441998,-0.6168212890625,-0.0447998046875,0.03106689453125,-0.785186767578125,0.30517578125,0.30517578125,0.0,0.108154296875,0.0057373046875,0.9986572265625,28.0,-15.0,-43.0,101948.0,-5.176000118255615,0,0
2014.449018,-0.6168212890625,-0.0447998046875,0.031097412109375,-0.785186767578125,0.06103515625,0.06103515625,0.06103515625,0.1112060546875,0.0059814453125,0.997802734375,28.0,-15.0,-43.0,101948.0,-5.176000118255615,0,0
2014.455996,-0.6168212890625,-0.0447998046875,0.031097412109375,-0.785186767578125,0.0,0.244140625,0.244140625,0.10986328125,0.0078125,0.998291015625,28.0,-15.0,-43.0,101948.0,-5.177000045776367,0,0
2014.462996,-0.6168212890625,-0.0447998046875,0.03106689453125,-0.785186767578125,-0.244140625,0.1220703125,-0.06103515625,0.1080322265625,0.0052490234375,1.0006103515625,28.0,-15.0,-43.0,101948.0,-5.177000045776367,0,0
2014.469028,-0.6168212890625,-0.0447998046875,0.03106689453125,-0.785186767578125,-0.244140625,0.1220703125,-0.06103515625,0.1080322265625,0.0052490234375,1.0006103515625,28.0,-15.0,-43.0,101948.0,-5.177000045776367,0,0
2014.490016,-0.6168212890625,-0.0447998046875,0.03106689453125,-0.785186767578125,0.06103515625,0.244140625,0.1220703125,0.10693359375,0.007568359375,0.9996337890625,28.0,-15.0,-43.0,101948.0,-5.177000045776367,0,0
2014.497001,-0.6168212890625,-0.0447998046875,0.03106689453125,-0.785186767578125,0.06103515625,0.3662109375,-0.06103515625,0.1083984375,0.005859375,0.99951171875,28.0,-15.0,-43.0,101948.0,-5.177000045776367,0,0
2014.504018,-0.6168212890625,-0.0447998046875,0.03106689453125,-0.785186767578125,0.0,0.42724609375,-0.06103515625,0.10693359375,0.0062255859375,1.00048828125,28.0,-15.0,-43.0,101948.0,-5.177000045776367,0,0
2014.510995,-0.6168212890625,-0.044769287109375,0.03106689453125,-0.785186767578125,0.0,0.18310546875,-0.3662109375,0.1090087890625,0.0062255859375,1.000244140625,28.0,-14.0,-42.0,101948.0,-5.177000045776367,0,0
2014.517994,-0.61328125,-0.044921875,0.030853271484375,-0.7879638671875,-0.06103515625,0.48828125,0.18310546875,0.1087646484375,0.006103515625,0.99853515625,28.0,-14.0,-42.0,101948.0,-5.177000045776367,0,0
2014.525019,-0.61328125,-0.044921875,0.030853271484375,-0.7879638671875,-0.06103515625,0.48828125,-0.18310546875,0.109130859375,0.0081787109375,0.998291015625,28.0,-14.0,-42.0,101948.0,-5.177000045776367,0,0
2014.531998,-0.61328125,-0.044921875,0.030853271484375,-0.7879638671875,-0.30517578125,0.244140625,-0.06103515625,0.108154296875,0.0072021484375,0.998291015625,28.0,-14.0,-42.0,101948.0,-5.177000045776367,0,0
2014.539018,-0.61328125,-0.044921875,0.030853271484375,-0.7879638671875,-0.244140625,0.3662109375,0.06103515625,0.1083984375,0.0081787109375,0.9990234375,28.0,-14.0,-42.0,101948.0,-5.177000045776367,0,0
2014.545996,-0.61328125,-0.044921875,0.030853271484375,-0.7879638671875,0.1220703125,0.54931640625,0.1220703125,0.1116943359375,0.0069580078125,0.9976806640625,28.0,-14.0,-42.0,101948.0,-5.177000045776367,0,0
2014.552996,-0.61328125,-0.044921875,0.030853271484375,-0.7879638671875,0.0,0.18310546875,0.06103515625,0.108642578125,0.0064697265625,1.001220703125,28.0,-14.0,-42.0,101948.0,-5.177000045776367,0,0
2014.560021,-0.61328125,-0.044921875,0.030853271484375,-0.7879638671875,-0.06103515625,0.244140625,0.0,0.1102294921875,0.0072021484375,0.998046875,28.0,-14.0,-42.0,101948.0,-5.177000045776367,0,0
2014.566049,-0.61328125,-0.044921875,0.030853271484375,-0.7879638671875,-0.06103515625,0.244140625,0.0,0.1102294921875,0.0072021484375,0.998046875,28.0,-14.0,-42.0,101948.0,-5.177000045776367,0,0
2014.572996,-0.61328125,-0.044921875,0.030853271484375,-0.7879638671875,-0.30517578125,0.18310546875,-0.06103515625,0.1104736328125,0.0050048828125,1.0006103515625,28.0,-14.0,-42.0,101948.0,-5.177000045776367,0,0
2014.580016,-0.61328125,-0.044921875,0.030853271484375,-0.7879638671875,0.0,0.18310546875,-0.06103515625,0.10693359375,0.0040283203125,0.999267578125,28.0,-14.0,-42.0,101948.0,-5.177000045776367,0,0
2014.587001,-0.61328125,-0.044921875,0.030853271484375,-0.7879638671875,0.06103515625,0.244140625,0.1220703125,0.1102294921875,0.006103515625,0.9979248046875,28.0,-14.0,-42.0,101948.0,-5.177000045776367,0,0
2014.594018,-0.61328125,-0.044921875,0.03082275390625,-0.7879638671875,0.1220703125,0.30517578125,-0.06103515625,0.107666015625,0.0089111328125,1.000244140625,28.0,-14.0,-42.0,101948.0,-5.177000045776367,0,0
2014.600995,-0.61328125,-0.044921875,0.03082275390625,-0.7879638671875,-0.06103515625,0.1220703125,-0.1220703125,0.1083984375,0.0037841796875,0.9990234375,28.0,-14.0,-42.0,101948.0,-5.177000045776367,0,0
2014.607994,-0.61328125,-0.044891357421875,0.03082275390625,-0.7879638671875,0.06103515625,0.0,-0.06103515625,0.1058349609375,0.0062255859375,0.999755859375,28.0,-14.0,-42.0,101948.0,-5.177000045776367,0,0
2014.615019,-0.6097412109375,-0.0450439453125,0.0306396484375,-0.79071044921875,0.06103515625,0.42724609375,-0.18310546875,0.1090087890625,0.0047607421875,0.9996337890625,27.0,-14.0,-41.0,101948.0,-5.177000045776367,0,0
2014.621998,-0.6097412109375,-0.0450439453125,0.030609130859375,-0.79071044921875,-0.06103515625,0.18310546875,0.1220703125,0.10986328125,0.0084228515625,1.0006103515625,27.0,-14.0,-41.0,101948.0,-5.177000045776367,0,0
2014.629018,-0.6097412109375,-0.0450439453125,0.030609130859375,-0.79071044921875,0.1220703125,0.18310546875,0.30517578125,0.10986328125,0.006103515625,0.998291015625,27.0,-14.0,-41.0,101948.0,-5.177000045776367,0,0
2014.635996,-0.6097412109375,-0.0450439453125,0.0306396484375,-0.79071044921875,-0.06103515625,0.3662109375,0.1220703125,0.1107177734375,0.00537109375,0.996337890625,27.0,-14.0,-41.0,101948.0,-5.177000045776367,0,0
2014.642996,-0.6097412109375,-0.0450439453125,0.0306396484375,-0.79071044921875,0.06103515625,0.244140625,0.1220703125,0.1097412109375,0.0062255859375,0.9993896484375,27.0,-14.0,-41.0,101948.0,-5.177000045776367,0,0
2014.662996,-0.6097412109375,-0.0450439453125,0.0306396484375,-0.79071044921875,0.0,0.3662109375,-0.1220703125,0.1087646484375,0.0072021484375,0.9993896484375,27.0,-14.0,-41.0,101948.0,-5.178000450134277,0,0
2014.670017,-0.6097412109375,-0.0450439453125,0.0306396484375,-0.79071044921875,0.0,0.1220703125,0.0,0.1085205078125,0.0047607421875,0.9998779296875,27.0,-14.0,-41.0,101948.0,-5.178000450134277,0,0
2014.677001,-0.6097412109375,-0.045013427734375,0.0306396484375,-0.79071044921875,0.0,0.42724609375,0.06103515625,0.1077880859375,0.004638671875,0.9979248046875,27.0,-14.0,-41.0,101948.0,-5.178000450134277,0,0
2014.684018,-0.6097412109375,-0.045013427734375,0.0306396484375,-0.79071044921875,0.06103515625,0.18310546875,-0.1220703125,0.10986328125,0.0045166015625,0.9957275390625,27.0,-14.0,-41.0,101948.0,-5.178000450134277,0,0
2014.690999,-0.6097412109375,-0.045013427734375,0.0306396484375,-0.79071044921875,-0.1220703125,0.30517578125,-0.18310546875,0.1103515625,0.0045166015625,0.9979248046875,27.0,-14.0,-41.0,101948.0,-5.178000450134277,0,0
2014.697999,-0.6097412109375,-0.045013427734375,0.030670166015625,-0.79071044921875,-0.06103515625,0.30517578125,0.0,0.1116943359375,0.0047607421875,0.998291015625,27.0,-14.0,-41.0,101948.0,-5.178000450134277,0,0
2014.70502,-0.6097412109375,-0.0450439453125,0.030670166015625,-0.79071044921875,-0.06103515625,0.42724609375,0.0,0.11083984375,0.0068359375,0.99853515625,27.0,-14.0,-41.0,101948.0,-5.178000450134277,0,0
2014.711998,-0.6097412109375,-0.0450439453125,0.030670166015625,-0.79071044921875,-0.244140625,0.1220703125,0.1220703125,0.1102294921875,0.00537109375,0.9998779296875,26.0,-13.0,-41.0,101948.0,-5.178000450134277,0,0
2014.719018,-0.605926513671875,-0.045196533203125,0.03045654296875,-0.793609619140625,0.0,0.244140625,-0.06103515625,0.1092529296875,0.0068359375,0.9989013671875,26.0,-13.0,-41.0,101948.0,-5.178000450134277,0,0
2014.725996,-0.60595703125,-0.045196533203125,0.030426025390625,-0.793609619140625,0.0,0.18310546875,0.0,0.107177734375,0.0078125,0.9986572265625,26.0,-13.0,-41.0,101948.0,-5.178000450134277,0,0
2014.732996,-0.60595703125,-0.045196533203125,0.030426025390625,-0.793609619140625,-0.06103515625,0.3662109375,0.0,0.109130859375,0.0064697265625,1.001220703125,26.0,-13.0,-41.0,101948.0,-5.178000450134277,0,0
2014.753033,-0.605926513671875,-0.045196533203125,0.03045654296875,-0.793609619140625,-0.18310546875,0.42724609375,0.0,0.110107421875,0.0054931640625,0.9993896484375,26.0,-13.0,-41.0,101948.0,-5.178000450134277,0,0
2014.760016,-0.605926513671875,-0.045196533203125,0.03045654296875,-0.793609619140625,0.0,0.18310546875,0.1220703125,0.10986328125,0.00537109375,0.9981689453125,26.0,-13.0,-41.0,101948.0,-5.178000450134277,0,0
2014.767001,-0.60595703125,-0.045196533203125,0.030426025390625,-0.793609619140625,0.1220703125,0.244140625,0.1220703125,0.10791015625,0.0076904296875,0.9996337890625,26.0,-13.0,-41.0,101948.0,-5.178000450134277,0,0
2014.774018,-0.60595703125,-0.045196533203125,0.030426025390625,-0.793609619140625,0.06103515625,0.48828125,-0.06103515625,0.10888671875,0.006591796875,0.999755859375,26.0,-13.0,-41.0,101948.0,-5.178000450134277,0,0
2014.780995,-0.60595703125,-0.045196533203125,0.030426025390625,-0.793609619140625,0.06103515625,0.3662109375,0.0,0.1131591796875,0.0048828125,0.99951171875,26.0,-13.0,-41.0,101948.0,-5.178000450134277,0,0
2014.787994,-0.60595703125,-0.045196533203125,0.030426025390625,-0.793609619140625,0.18310546875,0.18310546875,0.0,0.107177734375,0.005615234375,0.999267578125,26.0,-13.0,-41.0,101948.0,-5.178000450134277,0,0
2014.795019,-0.605926513671875,-0.045196533203125,0.03045654296875,-0.793609619140625,-0.1220703125,-0.06103515625,-0.1220703125,0.112060546875,0.007568359375,0.998291015625,26.0,-13.0,-41.0,101948.0,-5.178000450134277,0,0
2014.801998,-0.60595703125,-0.045196533203125,0.03045654296875,-0.793609619140625,-0.3662109375,0.244140625,0.06103515625,0.109619140625,0.0084228515625,0.9989013671875,26.0,-13.0,-41.0,101948.0,-5.178000450134277,0,0
2014.809018,-0.60595703125,-0.045196533203125,0.030426025390625,-0.793609619140625,0.06103515625,0.30517578125,0.244140625,0.1090087890625,0.0059814453125,1.0008544921875,26.0,-14.0,-40.0,101948.0,-5.178000450134277,0,0
2014.815996,-0.602264404296875,-0.04534912109375,0.03021240234375,-0.796417236328125,0.1220703125,0.1220703125,0.1220703125,0.108642578125,0.00830078125,0.998291015625,26.0,-14.0,-40.0,101948.0,-5.178000450134277,0,0
2014.822996,-0.602264404296875,-0.045318603515625,0.03021240234375,-0.796417236328125,-0.1220703125,0.30517578125,0.1220703125,0.10693359375,0.0057373046875,0.9986572265625,26.0,-14.0,-40.0,101948.0,-5.178000450134277,0,0
2014.830021,-0.602264404296875,-0.045318603515625,0.03021240234375,-0.796417236328125,-0.06103515625,0.30517578125,-0.06103515625,0.1112060546875,0.0054931640625,0.9979248046875,26.0,-14.0,-40.0,101948.0,-5.178000450134277,0,0
2014.837001,-0.602264404296875,-0.04534912109375,0.03021240234375,-0.796417236328125,0.06103515625,0.1220703125,0.0,0.1104736328125,0.00634765625,1.0009765625,26.0,-14.0,-40.0,101948.0,-5.178000450134277,0,0
2014.843032,-0.602264404296875,-0.04534912109375,0.03021240234375,-0.796417236328125,0.06103515625,0.1220703125,0.0,0.1104736328125,0.00634765625,1.0009765625,26.0,-14.0,-40.0,101948.0,-5.178000450134277,0,0
2014.850016,-0.602264404296875,-0.045318603515625,0.03021240234375,-0.796417236328125,-0.1220703125,0.18310546875,0.244140625,0.108642578125,0.00634765625,0.9981689453125,26.0,-14.0,-40.0,101948.0,-5.178000450134277,0,0
2014.857001,-0.602264404296875,-0.045318603515625,0.03021240234375,-0.796417236328125,0.0,0.54931640625,0.0,0.107666015625,0.004150390625,0.9979248046875,26.0,-14.0,-40.0,101948.0,-5.175000190734863,0,0
2014.864018,-0.602264404296875,-0.045318603515625,0.03021240234375,-0.796417236328125,0.0,0.3662109375,0.0,0.109130859375,0.0050048828125,0.998779296875,26.0,-14.0,-40.0,101948.0,-5.175000190734863,0,0
2014.870995,-0.602264404296875,-0.045318603515625,0.030242919921875,-0.796417236328125,0.0,0.1220703125,0.18310546875,0.1116943359375,0.0048828125,0.9990234375,26.0,-14.0,-40.0,101948.0,-5.175000190734863,0,0
2014.877994,-0.602264404296875,-0.045318603515625,0.030242919921875,-0.796417236328125,0.06103515625,0.48828125,0.1220703125,0.1114501953125,0.00439453125,0.998046875,26.0,-14.0,-40.0,101948.0,-5.175000190734863,0,0
2014.885019,-0.602264404296875,-0.045318603515625,0.030242919921875,-0.796417236328125,0.06103515625,0.48828125,0.06103515625,0.1124267578125,0.0052490234375,0.996826171875,26.0,-14.0,-40.0,101948.0,-5.175000190734863,0,0
2014.891998,-0.602264404296875,-0.045318603515625,0.030242919921875,-0.796417236328125,0.0,0.244140625,-0.1220703125,0.1104736328125,0.0048828125,0.9979248046875,26.0,-14.0,-40.0,101948.0,-5.175000190734863,0,0
2014.899018,-0.602264404296875,-0.045318603515625,0.030242919921875,-0.796417236328125,-0.06103515625,0.18310546875,0.06103515625,0.1102294921875,0.00732421875,1.000244140625,26.0,-14.0,-40.0,101948.0,-5.175000190734863,0,0
2014.905996,-0.602264404296875,-0.045318603515625,0.030242919921875,-0.796417236328125,0.0,0.18310546875,-0.18310546875,0.1082763671875,0.00537109375,0.999755859375,26.0,-14.0,-40.0,101948.0,-5.175000190734863,0,0
2014.927001,-0.59906005859375,-0.045440673828125,0.030059814453125,-0.798828125,-0.06103515625,0.3662109375,0.1220703125,0.1072998046875,0.0084228515625,0.99951171875,25.0,-14.0,-40.0,101948.0,-5.175000190734863,0,0
2014.934015,-0.59906005859375,-0.045440673828125,0.030059814453125,-0.798828125,0.0,0.30517578125,-0.18310546875,0.1102294921875,0.0072021484375,1.0006103515625,25.0,-14.0,-40.0,101948.0,-5.175000190734863,0,0
2014.940047,-0.59906005859375,-0.045440673828125,0.030059814453125,-0.798828125,0.0,0.30517578125,-0.18310546875,0.1102294921875,0.0072021484375,1.0006103515625,25.0,-14.0,-40.0,101948.0,-5.175000190734863,0,0
2014.947001,-0.59906005859375,-0.045440673828125,0.030059814453125,-0.798828125,-0.06103515625,0.30517578125,-0.1220703125,0.1090087890625,0.005859375,0.9984130859375,25.0,-14.0,-40.0,101948.0,-5.175000190734863,0,0
2014.954018,-0.59906005859375,-0.045440673828125,0.030059814453125,-0.798828125,-0.06103515625,0.244140625,0.0,0.1094970703125,0.00537109375,0.9986572265625,25.0,-14.0,-40.0,101948.0,-5.175000190734863,0,0
2014.960999,-0.59906005859375,-0.045440673828125,0.030059814453125,-0.798828125,-0.18310546875,0.244140625,0.0,0.1094970703125,0.0054931640625,1.0003662109375,25.0,-14.0,-40.0,101948.0,-5.176000118255615,0,0
2014.967999,-0.59906005859375,-0.045440673828125,0.030059814453125,-0.798828125,-0.06103515625,0.244140625,0.0,0.110107421875,0.006591796875,0.9984130859375,25.0,-14.0,-40.0,101948.0,-5.176000118255615,0,0
2014.97502,-0.59906005859375,-0.045440673828125,0.030059814453125,-0.798828125,-0.06103515625,0.1220703125,0.1220703125,0.1080322265625,0.0081787109375,0.997802734375,25.0,-14.0,-40.0,101948.0,-5.176000118255615,0,0
2014.981998,-0.59906005859375,-0.045440673828125,0.030059814453125,-0.798828125,-0.244140625,0.30517578125,-0.06103515625,0.1085205078125,0.007568359375,0.99755859375,25.0,-14.0,-40.0,101948.0,-5.176000118255615,0,0
2014.989018,-0.59906005859375,-0.045440673828125,0.030059814453125,-0.798828125,0.30517578125,0.30517578125,-0.06103515625,0.1104736328125,0.005126953125,1.0015869140625,25.0,-14.0,-40.0,101948.0,-5.176000118255615,0,0
2015.010021,-0.59576416015625,-0.045562744140625,0.029876708984375,-0.80126953125,0.06103515625,0.244140625,0.0,0.109130859375,0.006103515625,0.998291015625,25.0,-13.0,-40.0,101948.0,-5.176000118255615,0,0
2015.017001,-0.59576416015625,-0.045562744140625,0.02984619140625,-0.80126953125,-0.1220703125,0.3662109375,-0.18310546875,0.1085205078125,0.0068359375,1.0001220703125,25.0,-13.0,-40.0,101948.0,-5.176000118255615,0,0
2015.024015,-0.59576416015625,-0.045562744140625,0.029876708984375,-0.80126953125,0.06103515625,0.244140625,0.06103515625,0.109375,0.0059814453125,0.998779296875,25.0,-13.0,-40.0,101948.0,-5.176000118255615,0,0
2015.030048,-0.59576416015625,-0.045562744140625,0.029876708984375,-0.80126953125,0.06103515625,0.244140625,0.06103515625,0.109375,0.0059814453125,0.998779296875,25.0,-13.0,-40.0,101948.0,-5.176000118255615,0,0
2015.037001,-0.59576416015625,-0.045562744140625,0.029876708984375,-0.80126953125,0.1220703125,0.244140625,-0.1220703125,0.1090087890625,0.00537109375,1.000244140625,25.0,-13.0,-40.0,101948.0,-5.176000118255615,0,0
2015.044018,-0.59576416015625,-0.045562744140625,0.02984619140625,-0.80126953125,0.18310546875,0.244140625,-0.1220703125,0.107177734375,0.00732421875,0.998779296875,25.0,-13.0,-40.0,101948.0,-5.176000118255615,0,0
2015.050995,-0.59576416015625,-0.045562744140625,0.02984619140625,-0.80126953125,-0.06103515625,0.18310546875,-0.06103515625,0.1087646484375,0.0064697265625,0.9986572265625,25.0,-13.0,-40.0,101948.0,-5.176000118255615,0,0
2015.057994,-0.59576416015625,-0.045562744140625,0.02984619140625,-0.80126953125,0.1220703125,0.18310546875,0.1220703125,0.1083984375,0.0062255859375,0.9976806640625,25.0,-13.0,-40.0,101948.0,-5.176000118255615,0,0
2015.065019,-0.59576416015625,-0.0455322265625,0.02984619140625,-0.80126953125,-0.18310546875,0.244140625,0.1220703125,0.1083984375,0.005615234375,0.99951171875,25.0,-13.0,-40.0,101948.0,-5.176000118255615,0,0
2015.071998,-0.59576416015625,-0.0455322265625,0.02984619140625,-0.80126953125,0.0,0.06103515625,0.06103515625,0.1097412109375,0.0048828125,0.9993896484375,25.0,-13.0,-40.0,101948.0,-5.176000118255615,0,0
2015.079018,-0.59576416015625,-0.0455322265625,0.02984619140625,-0.80126953125,-0.1220703125,0.06103515625,-0.1220703125,0.1099853515625,0.0064697265625,0.9998779296875,25.0,-13.0,-40.0,101948.0,-5.176000118255615,0,0
2015.085996,-0.59576416015625,-0.0455322265625,0.02984619140625,-0.80126953125,-0.06103515625,0.06103515625,-0.18310546875,0.1083984375,0.0042724609375,1.0,25.0,-13.0,-40.0,101948.0,-5.176000118255615,0,0
2015.092996,-0.59576416015625,-0.0455322265625,0.02984619140625,-0.80126953125,-0.06103515625,0.1220703125,-0.244140625,0.109375,0.0072021484375,0.9991455078125,25.0,-13.0,-40.0,101948.0,-5.176000118255615,0,0
2015.100021,-0.59576416015625,-0.0455322265625,0.02984619140625,-0.80126953125,0.0,0.3662109375,-0.06103515625,0.1083984375,0.0064697265625,0.9998779296875,25.0,-13.0,-40.0,101948.0,-5.176000118255615,0,0
2015.107001,-0.59576416015625,-0.0455322265625,0.029876708984375,-0.80126953125,0.0,0.3662109375,0.0,0.111083984375,0.004638671875,1.0003662109375,25.0,-13.0,-40.0,101948.0,-5.177000045776367,0,0
2015.114015,-0.591796875,-0.045684814453125,0.029632568359375,-0.80419921875,-0.244140625,0.3662109375,-0.06103515625,0.10888671875,0.0062255859375,1.000732421875,24.0,-15.0,-42.0,101948.0,-5.177000045776367,0,0
2015.120994,-0.591796875,-0.045684814453125,0.029632568359375,-0.80419921875,0.06103515625,0.18310546875,0.0,0.1092529296875,0.00537109375,0.9991455078125,24.0,-15.0,-42.0,101948.0,-5.177000045776367,0,0
2015.127026,-0.591796875,-0.045684814453125,0.029632568359375,-0.80419921875,0.06103515625,0.18310546875,0.0,0.1092529296875,0.00537109375,0.9991455078125,24.0,-15.0,-42.0,101948.0,-5.177000045776367,0,0
2015.134018,-0.591796875,-0.045684814453125,0.029632568359375,-0.80419921875,-0.06103515625,0.06103515625,0.06103515625,0.1080322265625,0.0062255859375,0.9979248046875,24.0,-15.0,-42.0,101948.0,-5.177000045776367,0,0
2015.140995,-0.591796875,-0.045684814453125,0.029632568359375,-0.80419921875,-0.06103515625,0.3662109375,-0.1220703125,0.1099853515625,0.00634765625,0.998291015625,24.0,-15.0,-42.0,101948.0,-5.177000045776367,0,0
2015.147994,-0.591796875,-0.045684814453125,0.029632568359375,-0.80419921875,0.0,0.244140625,0.18310546875,0.1094970703125,0.0057373046875,0.9984130859375,24.0,-15.0,-42.0,101948.0,-5.177000045776367,0,0
2015.155019,-0.591796875,-0.045684814453125,0.029632568359375,-0.80419921875,-0.1220703125,0.0,0.1220703125,0.106689453125,0.0059814453125,0.998291015625,24.0,-15.0,-42.0,101948.0,-5.177000045776367,0,0
2015.161998,-0.591796875,-0.045684814453125,0.029632568359375,-0.80419921875,0.1220703125,0.1220703125,-0.06103515625,0.1090087890625,0.0064697265625,0.9996337890625,24.0,-15.0,-42.0,101948.0,-5.177000045776367,0,0
2015.182996,-0.591796875,-0.045684814453125,0.029632568359375,-0.80419921875,-0.1220703125,0.30517578125,-0.1220703125,0.1083984375,0.0079345703125,0.997802734375,24.0,-15.0,-42.0,101948.0,-5.177000045776367,0,0
2015.190021,-0.591796875,-0.045684814453125,0.029632568359375,-0.80419921875,0.1220703125,0.244140625,0.0,0.110107421875,0.0064697265625,0.9981689453125,24.0,-15.0,-42.0,101948.0,-5.177000045776367,0,0
2015.197001,-0.591796875,-0.045684814453125,0.029632568359375,-0.80419921875,0.1220703125,0.30517578125,-0.06103515625,0.111328125,0.0064697265625,0.998779296875,24.0,-15.0,-42.0,101948.0,-5.177000045776367,0,0
2015.204015,-0.591796875,-0.045684814453125,0.029632568359375,-0.80419921875,-0.18310546875,0.244140625,-0.06103515625,0.1068115234375,0.00537109375,0.9979248046875,24.0,-15.0,-42.0,101948.0,-5.177000045776367,0,0
2015.210994,-0.58905029296875,-0.0457763671875,0.02947998046875,-0.806243896484375,-0.244140625,0.18310546875,-0.06103515625,0.111083984375,0.00537109375,0.999755859375,24.0,-14.0,-43.0,101948.0,-5.177000045776367,0,0
2015.217026,-0.58905029296875,-0.0457763671875,0.02947998046875,-0.806243896484375,-0.244140625,0.18310546875,-0.06103515625,0.111083984375,0.00537109375,0.999755859375,24.0,-14.0,-43.0,101948.0,-5.177000045776367,0,0
2015.224019,-0.58905029296875,-0.0457763671875,0.02947998046875,-0.806243896484375,0.0,0.244140625,-0.18310546875,0.1087646484375,0.0057373046875,0.9986572265625,24.0,-14.0,-43.0,101948.0,-5.177000045776367,0,0
2015.230995,-0.58905029296875,-0.0457763671875,0.02947998046875,-0.806243896484375,-0.18310546875,0.06103515625,0.06103515625,0.1063232421875,0.0067138671875,0.99853515625,24.0,-14.0,-43.0,101948.0,-5.177000045776367,0,0
2015.237994,-0.58905029296875,-0.0457763671875,0.02947998046875,-0.806243896484375,-0.1220703125,0.1220703125,-0.06103515625,0.1080322265625,0.00634765625,0.99853515625,24.0,-14.0,-43.0,101948.0,-5.177000045776367,0,0
2015.245019,-0.58905029296875,-0.0457763671875,0.02947998046875,-0.806243896484375,0.0,0.244140625,0.1220703125,0.1114501953125,0.0054931640625,1.0006103515625,24.0,-14.0,-43.0,101948.0,-5.177000045776367,0,0
2015.251998,-0.58905029296875,-0.0457763671875,0.02947998046875,-0.806243896484375,0.06103515625,0.244140625,0.06103515625,0.1097412109375,0.003662109375,0.9991455078125,24.0,-14.0,-43.0,101948.0,-5.177000045776367,0,0
2015.272996,-0.58905029296875,-0.0457763671875,0.029510498046875,-0.806243896484375,0.1220703125,0.244140625,0.18310546875,0.109375,0.0052490234375,0.998291015625,24.0,-14.0,-43.0,101948.0,-5.177000045776367,0,0
2015.280021,-0.58905029296875,-0.0457763671875,0.029510498046875,-0.806243896484375,0.0,0.18310546875,-0.06103515625,0.1099853515625,0.0040283203125,0.997802734375,24.0,-14.0,-43.0,101948.0,-5.177000045776367,0,0
2015.287001,-0.58905029296875,-0.0457763671875,0.029510498046875,-0.806243896484375,0.1220703125,0.18310546875,-0.1220703125,0.1094970703125,0.0067138671875,0.996826171875,24.0,-14.0,-43.0,101948.0,-5.177000045776367,0,0
2015.294015,-0.58905029296875,-0.0457763671875,0.029510498046875,-0.806243896484375,-0.244140625,0.30517578125,0.0,0.110107421875,0.006103515625,0.999755859375,24.0,-14.0,-43.0,101948.0,-5.177000045776367,0,0
2015.300999,-0.58905029296875,-0.0457763671875,0.029510498046875,-0.806243896484375,0.06103515625,0.3662109375,0.18310546875,0.105712890625,0.00537109375,0.998779296875,24.0,-14.0,-43.0,101948.0,-5.177000045776367,0,0
2015.307998,-0.58905029296875,-0.0457763671875,0.029510498046875,-0.806243896484375,-0.1220703125,0.30517578125,-0.1220703125,0.1104736328125,0.00439453125,0.99951171875,24.0,-14.0,-43.0,101948.0,-5.178000450134277,0,0
2015.314031,-0.58905029296875,-0.0457763671875,0.029510498046875,-0.806243896484375,-0.1220703125,0.30517578125,-0.1220703125,0.1104736328125,0.00439453125,0.99951171875,24.0,-14.0,-43.0,101948.0,-5.178000450134277,0,0
2015.320999,-0.586273193359375,-0.045867919921875,0.02935791015625,-0.808258056640625,0.06103515625,0.1220703125,-0.06103515625,0.1090087890625,0.0054931640625,0.998291015625,24.0,-14.0,-42.0,101948.0,-5.178000450134277,0,0
2015.327999,-0.586273193359375,-0.045867919921875,0.02935791015625,-0.808258056640625,0.1220703125,0.244140625,0.0,0.1083984375,0.0068359375,1.000244140625,24.0,-14.0,-42.0,101948.0,-5.178000450134277,0,0
2015.33502,-0.586273193359375,-0.045867919921875,0.02935791015625,-0.808258056640625,0.06103515625,0.1220703125,0.1220703125,0.1075439453125,0.006591796875,0.998046875,24.0,-14.0,-42.0,101948.0,-5.178000450134277,0,0
2015.341998,-0.586273193359375,-0.045867919921875,0.02935791015625,-0.808258056640625,-0.06103515625,0.3662109375,0.0,0.1107177734375,0.0068359375,0.9986572265625,24.0,-14.0,-42.0,101948.0,-5.178000450134277,0,0
2015.349018,-0.586273193359375,-0.045867919921875,0.02935791015625,-0.808258056640625,0.06103515625,0.18310546875,0.1220703125,0.107177734375,0.005859375,0.998046875,24.0,-14.0,-42.0,101948.0,-5.178000450134277,0,0
2015.355996,-0.586273193359375,-0.045867919921875,0.02935791015625,-0.808258056640625,0.1220703125,0.244140625,-0.06103515625,0.1092529296875,0.0072021484375,0.99951171875,24.0,-14.0,-42.0,101948.0,-5.178000450134277,0,0
2015.362996,-0.586273193359375,-0.045867919921875,0.02935791015625,-0.808258056640625,-0.18310546875,0.244140625,0.0,0.111328125,0.0069580078125,0.9986572265625,24.0,-14.0,-42.0,101948.0,-5.178000450134277,0,0
2015.370021,-0.586273193359375,-0.0458984375,0.02935791015625,-0.808258056640625,0.0,0.18310546875,0.0,0.1099853515625,0.00634765625,0.998046875,24.0,-14.0,-42.0,101948.0,-5.178000450134277,0,0
2015.377001,-0.586273193359375,-0.0458984375,0.02935791015625,-0.808258056640625,-0.06103515625,0.244140625,-0.06103515625,0.110595703125,0.0076904296875,0.9969482421875,24.0,-14.0,-42.0,101948.0,-5.178000450134277,0,0
2015.384015,-0.586273193359375,-0.0458984375,0.02935791015625,-0.808258056640625,-0.1220703125,0.3662109375,-0.06103515625,0.111083984375,0.0064697265625,0.9986572265625,24.0,-14.0,-42.0,101948.0,-5.178000450134277,0,0
2015.390994,-0.586273193359375,-0.0458984375,0.02935791015625,-0.808258056640625,0.18310546875,0.244140625,0.1220703125,0.110107421875,0.0054931640625,0.9993896484375,24.0,-14.0,-42.0,101948.0,-5.178000450134277,0,0
2015.397998,-0.586273193359375,-0.0458984375,0.02935791015625,-0.808258056640625,-0.06103515625,0.1220703125,0.06103515625,0.1094970703125,0.0069580078125,0.9991455078125,24.0,-14.0,-42.0,101948.0,-5.178000450134277,0,0
2015.404026,-0.586273193359375,-0.0458984375,0.02935791015625,-0.808258056640625,-0.06103515625,0.1220703125,0.06103515625,0.1094970703125,0.0069580078125,0.9991455078125,24.0,-14.0,-42.0,101948.0,-5.178000450134277,0,0
2015.410995,-0.584197998046875,-0.045989990234375,0.02923583984375,-0.80975341796875,0.1220703125,0.42724609375,0.1220703125,0.1092529296875,0.004638671875,0.999755859375,24.0,-12.0,-42.0,101948.0,-5.178000450134277,0,0
2015.417994,-0.584197998046875,-0.04595947265625,0.02923583984375,-0.80975341796875,0.18310546875,0.30517578125,0.0,0.1080322265625,0.0072021484375,0.998291015625,24.0,-12.0,-42.0,101948.0,-5.178000450134277,0,0
2015.425019,-0.584197998046875,-0.04595947265625,0.02923583984375,-0.80975341796875,0.18310546875,0.30517578125,0.0,0.1080322265625,0.0072021484375,0.998291015625,24.0,-12.0,-42.0,101948.0,-5.178000450134277,0,0
2015.445996,-0.584197998046875,-0.045989990234375,0.02923583984375,-0.80975341796875,0.06103515625,0.0,-0.06103515625,0.1085205078125,0.007080078125,0.997314453125,24.0,-12.0,-42.0,101948.0,-5.178000450134277,0,0
2015.452996,-0.584197998046875,-0.045989990234375,0.02923583984375,-0.80975341796875,0.0,0.1220703125,0.06103515625,0.109375,0.005859375,0.99853515625,24.0,-12.0,-42.0,101948.0,-5.178000450134277,0,0
2015.460021,-0.584197998046875,-0.045989990234375,0.02923583984375,-0.80975341796875,-0.06103515625,0.18310546875,0.1220703125,0.110595703125,0.0064697265625,0.9996337890625,24.0,-12.0,-42.0,101948.0,-5.178000450134277,0,0
2015.467001,-0.584197998046875,-0.045989990234375,0.02923583984375,-0.80975341796875,0.06103515625,0.30517578125,-0.1220703125,0.1083984375,0.0079345703125,0.99755859375,24.0,-12.0,-42.0,101948.0,-5.178000450134277,0,0
2015.474015,-0.584197998046875,-0.045989990234375,0.02923583984375,-0.80975341796875,0.1220703125,0.244140625,0.1220703125,0.10888671875,0.008056640625,1.0,24.0,-12.0,-42.0,101948.0,-5.178000450134277,0,0
2015.480994,-0.584197998046875,-0.045989990234375,0.02923583984375,-0.80975341796875,0.0,-0.06103515625,0.06103515625,0.10791015625,0.005859375,1.001220703125,24.0,-12.0,-42.0,101948.0,-5.178000450134277,0,0
2015.487998,-0.584197998046875,-0.045989990234375,0.02923583984375,-0.80975341796875,0.1220703125,0.3662109375,0.0,0.106689453125,0.0054931640625,0.9981689453125,24.0,-12.0,-42.0,101948.0,-5.178000450134277,0,0
2015.495018,-0.584197998046875,-0.045989990234375,0.02923583984375,-0.80975341796875,0.18310546875,0.30517578125,0.0,0.1094970703125,0.00732421875,0.9990234375,24.0,-12.0,-42.0,101948.0,-5.178000450134277,0,0
2015.501046,-0.584197998046875,-0.045989990234375,0.02923583984375,-0.80975341796875,0.18310546875,0.30517578125,0.0,0.1094970703125,0.00732421875,0.9990234375,24.0,-12.0,-42.0,101948.0,-5.178000450134277,0,0
2015.507994,-0.584197998046875,-0.045989990234375,0.02923583984375,-0.80975341796875,0.0,0.48828125,-0.06103515625,0.1099853515625,0.0059814453125,0.9993896484375,25.0,-13.0,-42.0,101948.0,-5.175000190734863,0,0
2015.515019,-0.581512451171875,-0.04608154296875,0.029083251953125,-0.811676025390625,0.06103515625,0.30517578125,0.244140625,0.1090087890625,0.0072021484375,0.9981689453125,25.0,-13.0,-42.0,101948.0,-5.175000190734863,0,0
2015.535996,-0.581512451171875,-0.04608154296875,0.029083251953125,-0.811676025390625,-0.1220703125,0.30517578125,0.06103515625,0.108642578125,0.006591796875,0.9981689453125,25.0,-13.0,-42.0,101948.0,-5.175000190734863,0,0
2015.542996,-0.581512451171875,-0.04608154296875,0.029083251953125,-0.811676025390625,0.0,0.244140625,0.30517578125,0.108154296875,0.0057373046875,1.0006103515625,25.0,-13.0,-42.0,101948.0,-5.175000190734863,0,0
2015.550021,-0.581512451171875,-0.046051025390625,0.029083251953125,-0.811676025390625,-0.06103515625,0.244140625,0.1220703125,0.1087646484375,0.00537109375,0.9969482421875,25.0,-13.0,-42.0,101948.0,-5.175000190734863,0,0
2015.557001,-0.581512451171875,-0.046051025390625,0.029052734375,-0.811676025390625,0.30517578125,0.18310546875,0.18310546875,0.10791015625,0.0067138671875,0.9996337890625,25.0,-13.0,-42.0,101948.0,-5.175000190734863,0,0
2015.564015,-0.581512451171875,-0.04608154296875,0.029083251953125,-0.811676025390625,-0.1220703125,0.244140625,0.1220703125,0.1112060546875,0.004638671875,0.99951171875,25.0,-13.0,-42.0,101948.0,-5.175000190734863,0,0
2015.570999,-0.581512451171875,-0.046051025390625,0.029083251953125,-0.811676025390625,0.0,0.3662109375,0.244140625,0.109130859375,0.0072021484375,0.999267578125,25.0,-13.0,-42.0,101948.0,-5.175000190734863,0,0
2015.577998,-0.581512451171875,-0.046051025390625,0.029083251953125,-0.811676025390625,-0.06103515625,0.18310546875,-0.06103515625,0.1099853515625,0.00634765625,0.9984130859375,25.0,-13.0,-42.0,101948.0,-5.175000190734863,0,0
2015.585023,-0.581512451171875,-0.04608154296875,0.029083251953125,-0.811676025390625,-0.06103515625,0.06103515625,0.1220703125,0.1097412109375,0.008544921875,1.0003662109375,25.0,-13.0,-42.0,101948.0,-5.175000190734863,0,0
2015.591056,-0.581512451171875,-0.04608154296875,0.029083251953125,-0.811676025390625,-0.06103515625,0.06103515625,0.1220703125,0.1097412109375,0.008544921875,1.0003662109375,25.0,-13.0,-42.0,101948.0,-5.175000190734863,0,0
2015.597999,-0.581512451171875,-0.046051025390625,0.029083251953125,-0.811676025390625,-0.1220703125,0.244140625,0.06103515625,0.109619140625,0.00439453125,0.9990234375,25.0,-13.0,-42.0,101948.0,-5.175000190734863,0,0
2015.60502,-0.581512451171875,-0.046051025390625,0.029083251953125,-0.811676025390625,0.18310546875,0.18310546875,-0.18310546875,0.10888671875,0.0062255859375,0.9996337890625,25.0,-13.0,-42.0,101948.0,-5.175000190734863,0,0
2015.611998,-0.5794677734375,-0.046142578125,0.028961181640625,-0.813140869140625,-0.18310546875,0.244140625,-0.06103515625,0.1070556640625,0.006591796875,0.9996337890625,25.0,-13.0,-43.0,101948.0,-5.175000190734863,0,0
2015.619018,-0.5794677734375,-0.046142578125,0.028961181640625,-0.813140869140625,0.1220703125,0.244140625,0.18310546875,0.11181640625,0.0068359375,0.998779296875,25.0,-13.0,-43.0,101948.0,-5.175000190734863,0,0
2015.625996,-0.5794677734375,-0.046142578125,0.028961181640625,-0.813140869140625,-0.1220703125,0.1220703125,0.0,0.1085205078125,0.0064697265625,0.999755859375,25.0,-13.0,-43.0,101948.0,-5.175000190734863,0,0
2015.632996,-0.579498291015625,-0.046142578125,0.0289306640625,-0.813140869140625,-0.18310546875,0.244140625,0.1220703125,0.10693359375,0.008056640625,0.999755859375,25.0,-13.0,-43.0,101948.0,-5.175000190734863,0,0
2015.640021,-0.579498291015625,-0.046142578125,0.0289306640625,-0.813140869140625,-0.06103515625,0.18310546875,0.06103515625,0.108154296875,0.0081787109375,0.9996337890625,25.0,-13.0,-43.0,101948.0,-5.175000190734863,0,0
2015.647001,-0.579498291015625,-0.046142578125,0.0289306640625,-0.813140869140625,0.06103515625,0.244140625,-0.3662109375,0.1103515625,0.005126953125,0.9986572265625,25.0,-13.0,-43.0,101948.0,-5.175000190734863,0,0
2015.654015,-0.579498291015625,-0.046142578125,0.0289306640625,-0.813140869140625,0.0,0.30517578125,0.0,0.1082763671875,0.004150390625,0.9984130859375,25.0,-13.0,-43.0,101948.0,-5.175000190734863,0,0
2015.660994,-0.579498291015625,-0.046112060546875,0.0289306640625,-0.813140869140625,0.18310546875,0.42724609375,0.1220703125,0.1083984375,0.0062255859375,0.997802734375,25.0,-13.0,-43.0,101948.0,-5.175000190734863,0,0
2015.667998,-0.579498291015625,-0.046112060546875,0.0289306640625,-0.813140869140625,-0.1220703125,0.30517578125,0.0,0.1083984375,0.00830078125,0.9991455078125,25.0,-13.0,-43.0,101948.0,-5.175000190734863,0,0
2015.675018,-0.579498291015625,-0.046142578125,0.0289306640625,-0.813140869140625,0.06103515625,0.18310546875,0.1220703125,0.1109619140625,0.0069580078125,0.997802734375,25.0,-13.0,-43.0,101948.0,-5.175000190734863,0,0
2015.682002,-0.579498291015625,-0.046142578125,0.0289306640625,-0.813140869140625,0.0,0.06103515625,-0.1220703125,0.1103515625,0.006103515625,0.9998779296875,25.0,-13.0,-43.0,101948.0,-5.175000190734863,0,0
2015.68803,-0.579498291015625,-0.046142578125,0.0289306640625,-0.813140869140625,0.0,0.06103515625,-0.1220703125,0.1103515625,0.006103515625,0.9998779296875,25.0,-13.0,-43.0,101948.0,-5.175000190734863,0,0
2015.709018,-0.578857421875,-0.046173095703125,0.02886962890625,-0.8135986328125,0.0,0.1220703125,0.06103515625,0.109375,0.0078125,0.9996337890625,27.0,-13.0,-43.0,101948.0,-5.177000045776367,0,0
2015.715996,-0.578857421875,-0.046173095703125,0.02886962890625,-0.8135986328125,0.0,0.244140625,-0.06103515625,0.1094970703125,0.007568359375,0.999267578125,27.0,-13.0,-43.0,101948.0,-5.177000045776367,0,0
2015.722996,-0.578857421875,-0.046173095703125,0.028900146484375,-0.8135986328125,-0.06103515625,0.30517578125,0.0,0.1092529296875,0.0054931640625,0.9993896484375,27.0,-13.0,-43.0,101948.0,-5.177000045776367,0,0
2015.730021,-0.578857421875,-0.046173095703125,0.028900146484375,-0.8135986328125,-0.06103515625,0.30517578125,0.0,0.110107421875,0.0068359375,0.99755859375,27.0,-13.0,-43.0,101948.0,-5.177000045776367,0,0
2015.737001,-0.578857421875,-0.046173095703125,0.028900146484375,-0.8135986328125,0.06103515625,0.1220703125,0.0,0.1085205078125,0.0069580078125,0.998046875,27.0,-13.0,-43.0,101948.0,-5.177000045776367,0,0
2015.744015,-0.578857421875,-0.046173095703125,0.02886962890625,-0.8135986328125,-0.1220703125,0.1220703125,-0.18310546875,0.108154296875,0.007080078125,0.998779296875,27.0,-13.0,-43.0,101948.0,-5.177000045776367,0,0
2015.750994,-0.578857421875,-0.046173095703125,0.028900146484375,-0.8135986328125,-0.06103515625,0.1220703125,-0.18310546875,0.109130859375,0.0048828125,1.0008544921875,27.0,-13.0,-43.0,101948.0,-5.177000045776367,0,0
2015.757998,-0.578857421875,-0.046142578125,0.028900146484375,-0.8135986328125,0.18310546875,0.18310546875,-0.1220703125,0.1072998046875,0.0050048828125,0.9971923828125,27.0,-13.0,-43.0,101948.0,-5.177000045776367,0,0
2015.765018,-0.578857421875,-0.046173095703125,0.028900146484375,-0.8135986328125,-0.18310546875,0.18310546875,0.06103515625,0.1116943359375,0.0059814453125,0.9974365234375,27.0,-13.0,-43.0,101948.0,-5.177000045776367,0,0
2015.772002,-0.578857421875,-0.046173095703125,0.028900146484375,-0.8135986328125,-0.18310546875,0.0,0.06103515625,0.1099853515625,0.0068359375,0.9989013671875,27.0,-13.0,-43.0,101948.0,-5.177000045776367,0,0
2015.77803,-0.578857421875,-0.046173095703125,0.028900146484375,-0.8135986328125,-0.18310546875,0.0,0.06103515625,0.1099853515625,0.0068359375,0.9989013671875,27.0,-13.0,-43.0,101948.0,-5.177000045776367,0,0
2015.827001,-0.57818603515625,-0.046173095703125,0.028839111328125,-0.814056396484375,-0.06103515625,0.30517578125,0.18310546875,0.1094970703125,0.00732421875,0.9990234375,27.0,-12.0,-44.0,101948.0,-5.178000450134277,0,0
2015.834015,-0.57818603515625,-0.04620361328125,0.028839111328125,-0.814056396484375,0.0,0.244140625,0.06103515625,0.1099853515625,0.0084228515625,0.998291015625,27.0,-12.0,-44.0,101948.0,-5.178000450134277,0,0
2015.840994,-0.57818603515625,-0.04620361328125,0.028839111328125,-0.814056396484375,-0.244140625,0.30517578125,-0.06103515625,0.1099853515625,0.0062255859375,1.0003662109375,27.0,-12.0,-44.0,101948.0,-5.178000450134277,0,0
2015.847998,-0.57818603515625,-0.04620361328125,0.028839111328125,-0.814056396484375,-0.06103515625,0.18310546875,0.0,0.109130859375,0.00830078125,0.997802734375,27.0,-12.0,-44.0,101948.0,-5.178000450134277,0,0
2015.855023,-0.57818603515625,-0.04620361328125,0.028839111328125,-0.814056396484375,0.06103515625,0.18310546875,-0.18310546875,0.1092529296875,0.006591796875,0.9989013671875,27.0,-12.0,-44.0,101948.0,-5.178000450134277,0,0
2015.862002,-0.57818603515625,-0.04620361328125,0.028839111328125,-0.814056396484375,-0.06103515625,0.30517578125,0.18310546875,0.1109619140625,0.0068359375,0.9959716796875,27.0,-12.0,-44.0,101948.0,-5.178000450134277,0,0
2015.881998,-0.57818603515625,-0.04620361328125,0.028839111328125,-0.814056396484375,-0.06103515625,0.18310546875,0.06103515625,0.1085205078125,0.007568359375,0.999267578125,27.0,-12.0,-44.0,101948.0,-5.178000450134277,0,0
2015.889018,-0.57818603515625,-0.04620361328125,0.028839111328125,-0.814056396484375,-0.244140625,0.30517578125,0.06103515625,0.1092529296875,0.0059814453125,0.99951171875,27.0,-12.0,-44.0,101948.0,-5.178000450134277,0,0
2015.895996,-0.57818603515625,-0.04620361328125,0.028839111328125,-0.814056396484375,0.06103515625,0.06103515625,0.0,0.1092529296875,0.0037841796875,0.9993896484375,27.0,-12.0,-44.0,101948.0,-5.178000450134277,0,0
2015.902996,-0.57818603515625,-0.046173095703125,0.028839111328125,-0.814056396484375,-0.06103515625,0.244140625,0.0,0.109130859375,0.00732421875,0.9976806640625,27.0,-12.0,-44.0,101948.0,-5.178000450134277,0,0
2015.910021,-0.57879638671875,-0.046173095703125,0.02886962890625,-0.813629150390625,-0.18310546875,0.1220703125,0.1220703125,0.1090087890625,0.0078125,0.9991455078125,28.0,-11.0,-43.0,101948.0,-5.178000450134277,0,0
2015.917001,-0.57879638671875,-0.046173095703125,0.02886962890625,-0.813629150390625,-0.06103515625,0.1220703125,0.1220703125,0.1082763671875,0.0045166015625,0.9989013671875,28.0,-11.0,-43.0,101948.0,-5.178000450134277,0,0
2015.924015,-0.57879638671875,-0.046142578125,0.02886962890625,-0.813629150390625,0.0,0.244140625,0.1220703125,0.108642578125,0.005859375,0.998046875,28.0,-11.0,-43.0,101948.0,-5.178000450134277,0,0
2015.930999,-0.57879638671875,-0.046142578125,0.02886962890625,-0.813629150390625,0.0,0.1220703125,0.18310546875,0.1080322265625,0.004638671875,0.999755859375,28.0,-11.0,-43.0,101948.0,-5.178000450134277,0,0
2015.937998,-0.57879638671875,-0.046142578125,0.028900146484375,-0.813629150390625,0.0,0.18310546875,0.1220703125,0.1114501953125,0.0059814453125,0.998779296875,28.0,-11.0,-43.0,101948.0,-5.178000450134277,0,0
2015.945023,-0.57879638671875,-0.046142578125,0.02886962890625,-0.813629150390625,0.06103515625,0.30517578125,-0.1220703125,0.1092529296875,0.009521484375,0.9991455078125,28.0,-11.0,-43.0,101948.0,-5.178000450134277,0,0
2015.952002,-0.57879638671875,-0.046142578125,0.02886962890625,-0.813629150390625,0.06103515625,0.1220703125,0.30517578125,0.1090087890625,0.0074462890625,0.99853515625,28.0,-11.0,-43.0,101948.0,-5.178000450134277,0,0
2015.971998,-0.57879638671875,-0.046112060546875,0.02886962890625,-0.813629150390625,-0.244140625,0.18310546875,0.1220703125,0.1068115234375,0.006103515625,1.0,28.0,-11.0,-43.0,101948.0,-5.178000450134277,0,0
2015.979018,-0.57879638671875,-0.046112060546875,0.02886962890625,-0.813629150390625,-0.244140625,0.30517578125,-0.06103515625,0.107666015625,0.0067138671875,0.9996337890625,28.0,-11.0,-43.0,101948.0,-5.178000450134277,0,0
2015.985996,-0.57879638671875,-0.046112060546875,0.02886962890625,-0.813629150390625,-0.42724609375,0.30517578125,0.06103515625,0.107421875,0.005859375,0.9991455078125,28.0,-11.0,-43.0,101948.0,-5.178000450134277,0,0
2015.992996,-0.57879638671875,-0.046112060546875,0.02886962890625,-0.813629150390625,0.1220703125,0.1220703125,-0.18310546875,0.1090087890625,0.0062255859375,0.9976806640625,28.0,-11.0,-43.0,101948.0,-5.178000450134277,0,0
2016.000021,-0.57879638671875,-0.046112060546875,0.02886962890625,-0.813629150390625,0.18310546875,0.3662109375,0.18310546875,0.1104736328125,0.0052490234375,0.9974365234375,28.0,-11.0,-43.0,101948.0,-5.178000450134277,0,0
2016.007001,-0.57879638671875,-0.046112060546875,0.02886962890625,-0.813629150390625,-0.06103515625,0.244140625,0.18310546875,0.1102294921875,0.0054931640625,0.99755859375,28.0,-10.0,-43.0,101948.0,-5.177000045776367,0,0
2016.014015,-0.579437255859375,-0.04608154296875,0.0289306640625,-0.81317138671875,0.0,0.30517578125,-0.1220703125,0.108154296875,0.0072021484375,0.9984130859375,28.0,-10.0,-43.0,101948.0,-5.177000045776367,0,0
2016.020994,-0.579437255859375,-0.04608154296875,0.0289306640625,-0.81317138671875,-0.18310546875,0.18310546875,0.1220703125,0.1092529296875,0.0069580078125,0.9976806640625,28.0,-10.0,-43.0,101948.0,-5.177000045776367,0,0
2016.027998,-0.579437255859375,-0.046112060546875,0.0289306640625,-0.81317138671875,-0.06103515625,0.18310546875,0.30517578125,0.1104736328125,0.0069580078125,1.000244140625,28.0,-10.0,-43.0,101948.0,-5.177000045776367,0,0
2016.035018,-0.579437255859375,-0.04608154296875,0.0289306640625,-0.81317138671875,0.1220703125,0.244140625,0.18310546875,0.110107421875,0.00341796875,1.0,28.0,-10.0,-43.0,101948.0,-5.177000045776367,0,0
2016.042002,-0.579437255859375,-0.046112060546875,0.0289306640625,-0.81317138671875,-0.244140625,0.30517578125,0.1220703125,0.108642578125,0.0069580078125,0.9990234375,28.0,-10.0,-43.0,101948.0,-5.177000045776367,0,0
2016.061998,-0.579437255859375,-0.046112060546875,0.028900146484375,-0.81317138671875,-0.244140625,0.42724609375,0.0,0.108642578125,0.00732421875,0.9989013671875,28.0,-10.0,-43.0,101948.0,-5.177000045776367,0,0
2016.069018,-0.579437255859375,-0.046112060546875,0.028900146484375,-0.81317138671875,0.0,0.1220703125,0.06103515625,0.1121826171875,0.0057373046875,1.0,28.0,-10.0,-43.0,101948.0,-5.177000045776367,0,0
2016.075996,-0.579437255859375,-0.046112060546875,0.028900146484375,-0.81317138671875,0.0,0.3662109375,-0.06103515625,0.10888671875,0.007080078125,0.9981689453125,28.0,-10.0,-43.0,101948.0,-5.177000045776367,0,0
2016.082996,-0.579437255859375,-0.046112060546875,0.0289306640625,-0.81317138671875,0.06103515625,0.18310546875,0.1220703125,0.1077880859375,0.00537109375,0.996826171875,28.0,-10.0,-43.0,101948.0,-5.177000045776367,0,0
2016.090021,-0.579437255859375,-0.046112060546875,0.0289306640625,-0.81317138671875,0.06103515625,0.244140625,-0.06103515625,0.109130859375,0.0067138671875,1.0,28.0,-10.0,-43.0,101948.0,-5.177000045776367,0,0
2016.097001,-0.579437255859375,-0.046112060546875,0.028900146484375,-0.81317138671875,-0.1220703125,0.06103515625,0.06103515625,0.1075439453125,0.006103515625,0.999267578125,28.0,-10.0,-43.0,101948.0,-5.177000045776367,0,0
2016.104015,-0.579437255859375,-0.046112060546875,0.028900146484375,-0.81317138671875,-0.1220703125,0.244140625,0.06103515625,0.1075439453125,0.0079345703125,0.998046875,28.0,-10.0,-43.0,101948.0,-5.176000118255615,0,0
2016.110994,-0.580078125,-0.04608154296875,0.0289306640625,-0.812713623046875,-0.67138671875,0.3662109375,-0.06103515625,0.1064453125,0.0064697265625,0.9969482421875,27.0,-10.0,-41.0,101948.0,-5.176000118255615,0,0
2016.117998,-0.580078125,-0.04608154296875,0.0289306640625,-0.812713623046875,-0.1220703125,0.3662109375,0.06103515625,0.1077880859375,0.0084228515625,1.002197265625,27.0,-10.0,-41.0,101948.0,-5.176000118255615,0,0
2016.125018,-0.580078125,-0.04608154296875,0.0289306640625,-0.812713623046875,0.18310546875,0.3662109375,0.0,0.10986328125,0.004638671875,1.0013427734375,27.0,-10.0,-41.0,101948.0,-5.176000118255615,0,0
2016.132002,-0.580078125,-0.046051025390625,0.0289306640625,-0.812713623046875,0.244140625,0.18310546875,0.0,0.107666015625,0.0059814453125,0.9984130859375,27.0,-10.0,-41.0,101948.0,-5.176000118255615,0,0
2016.139018,-0.580078125,-0.04608154296875,0.028961181640625,-0.812713623046875,-0.1220703125,0.0,0.30517578125,0.1109619140625,0.0047607421875,0.998291015625,27.0,-10.0,-41.0,101948.0,-5.176000118255615,0,0
2016.145996,-0.580078125,-0.04608154296875,0.028961181640625,-0.812713623046875,0.0,0.244140625,0.1220703125,0.1099853515625,0.0072021484375,1.0,27.0,-10.0,-41.0,101948.0,-5.176000118255615,0,0
2016.152029,-0.580078125,-0.04608154296875,0.028961181640625,-0.812713623046875,0.0,0.244140625,0.1220703125,0.1099853515625,0.0072021484375,1.0,27.0,-10.0,-41.0,101948.0,-5.176000118255615,0,0
2016.159018,-0.580078125,-0.04608154296875,0.028961181640625,-0.812713623046875,-0.06103515625,0.30517578125,-0.1220703125,0.1104736328125,0.006591796875,0.9986572265625,27.0,-10.0,-41.0,101948.0,-5.176000118255615,0,0
2016.165996,-0.580078125,-0.04608154296875,0.028961181640625,-0.812713623046875,0.0,0.1220703125,-0.06103515625,0.109130859375,0.0059814453125,0.9990234375,27.0,-10.0,-41.0,101948.0,-5.176000118255615,0,0
2016.172996,-0.580078125,-0.04608154296875,0.028961181640625,-0.812713623046875,0.06103515625,0.18310546875,-0.18310546875,0.107177734375,0.0048828125,0.99853515625,27.0,-10.0,-41.0,101948.0,-5.176000118255615,0,0
2016.180021,-0.580078125,-0.04608154296875,0.028961181640625,-0.812713623046875,0.18310546875,0.42724609375,0.06103515625,0.110595703125,0.00634765625,0.999755859375,27.0,-10.0,-41.0,101948.0,-5.176000118255615,0,0
2016.187001,-0.580078125,-0.04608154296875,0.028961181640625,-0.812713623046875,-0.06103515625,0.244140625,0.1220703125,0.1092529296875,0.007080078125,0.9974365234375,27.0,-10.0,-41.0,101948.0,-5.176000118255615,0,0
2016.194015,-0.580078125,-0.04608154296875,0.028961181640625,-0.812713623046875,-0.244140625,0.3662109375,-0.1220703125,0.1077880859375,0.0047607421875,0.999267578125,27.0,-10.0,-41.0,101948.0,-5.176000118255615,0,0
2016.200999,-0.580078125,-0.04608154296875,0.028961181640625,-0.812713623046875,0.1220703125,0.30517578125,0.30517578125,0.1082763671875,0.0057373046875,0.999267578125,27.0,-10.0,-41.0,101948.0,-5.176000118255615,0,0
2016.207998,-0.580078125,-0.04608154296875,0.028961181640625,-0.812713623046875,0.06103515625,0.30517578125,0.30517578125,0.1114501953125,0.00732421875,1.00048828125,27.0,-12.0,-41.0,101948.0,-5.176000118255615,0,0
2016.215023,-0.579437255859375,-0.046112060546875,0.0289306640625,-0.81317138671875,-0.1220703125,0.06103515625,0.1220703125,0.110595703125,0.0067138671875,1.0001220703125,27.0,-12.0,-41.0,101948.0,-5.176000118255615,0,0
2016.235996,-0.579437255859375,-0.046112060546875,0.0289306640625,-0.81317138671875,-0.06103515625,0.244140625,0.1220703125,0.110107421875,0.0059814453125,1.0001220703125,27.0,-12.0,-41.0,101948.0,-5.176000118255615,0,0
2016.242029,-0.579437255859375,-0.046112060546875,0.0289306640625,-0.81317138671875,-0.06103515625,0.244140625,0.1220703125,0.110107421875,0.0059814453125,1.0001220703125,27.0,-12.0,-41.0,101948.0,-5.176000118255615,0,0
2016.249018,-0.579437255859375,-0.046112060546875,0.0289306640625,-0.81317138671875,-0.18310546875,0.30517578125,0.0,0.109130859375,0.00634765625,1.0006103515625,27.0,-12.0,-41.0,101948.0,-5.176000118255615,0,0
2016.255996,-0.579437255859375,-0.046112060546875,0.0289306640625,-0.81317138671875,-0.06103515625,0.244140625,-0.06103515625,0.1070556640625,0.0062255859375,0.9991455078125,27.0,-12.0,-41.0,101948.0,-5.176000118255615,0,0
2016.262996,-0.579437255859375,-0.046112060546875,0.0289306640625,-0.81317138671875,0.0,0.18310546875,-0.06103515625,0.110595703125,0.0069580078125,0.9986572265625,27.0,-12.0,-41.0,101948.0,-5.176000118255615,0,0
2016.270021,-0.579437255859375,-0.046112060546875,0.0289306640625,-0.81317138671875,0.244140625,0.18310546875,-0.06103515625,0.1085205078125,0.0072021484375,0.998291015625,27.0,-12.0,-41.0,101948.0,-5.176000118255615,0,0
2016.277001,-0.579437255859375,-0.046112060546875,0.0289306640625,-0.81317138671875,-0.1220703125,0.48828125,0.0,0.1090087890625,0.0081787109375,0.9986572265625,27.0,-12.0,-41.0,101948.0,-5.176000118255615,0,0
2016.284015,-0.579437255859375,-0.046112060546875,0.0289306640625,-0.81317138671875,-0.18310546875,0.244140625,0.1220703125,0.1092529296875,0.0068359375,0.999755859375,27.0,-12.0,-41.0,101948.0,-5.176000118255615,0,0
2016.290994,-0.579437255859375,-0.046112060546875,0.0289306640625,-0.81317138671875,-0.06103515625,0.244140625,-0.244140625,0.1102294921875,0.0062255859375,0.9998779296875,27.0,-12.0,-41.0,101948.0,-5.176000118255615,0,0
2016.297998,-0.579437255859375,-0.046112060546875,0.0289306640625,-0.81317138671875,0.0,0.06103515625,0.0,0.109375,0.0076904296875,1.0009765625,27.0,-12.0,-41.0,101948.0,-5.176000118255615,0,0
2016.319018,-0.578826904296875,-0.046142578125,0.028900146484375,-0.8135986328125,-0.18310546875,0.06103515625,0.1220703125,0.107177734375,0.0081787109375,0.9984130859375,28.0,-13.0,-41.0,101948.0,-5.175000190734863,0,0
2016.325996,-0.578826904296875,-0.046142578125,0.02886962890625,-0.8135986328125,0.06103515625,0.18310546875,-0.1220703125,0.107666015625,0.0059814453125,0.9984130859375,28.0,-13.0,-41.0,101948.0,-5.175000190734863,0,0
2016.332995,-0.578826904296875,-0.046142578125,0.028900146484375,-0.8135986328125,-0.06103515625,0.30517578125,0.18310546875,0.1104736328125,0.0045166015625,0.999755859375,28.0,-13.0,-41.0,101948.0,-5.175000190734863,0,0
2016.339028,-0.578826904296875,-0.046142578125,0.028900146484375,-0.8135986328125,-0.06103515625,0.30517578125,0.18310546875,0.1104736328125,0.0045166015625,0.999755859375,28.0,-13.0,-41.0,101948.0,-5.175000190734863,0,0
2016.345996,-0.578826904296875,-0.046173095703125,0.028900146484375,-0.8135986328125,0.1220703125,0.18310546875,0.0,0.107421875,0.006591796875,1.0001220703125,28.0,-13.0,-41.0,101948.0,-5.175000190734863,0,0
2016.352996,-0.578826904296875,-0.046173095703125,0.028900146484375,-0.8135986328125,0.06103515625,0.3662109375,-0.06103515625,0.1097412109375,0.00634765625,0.99853515625,28.0,-13.0,-41.0,101948.0,-5.175000190734863,0,0
2016.360021,-0.578826904296875,-0.046173095703125,0.02886962890625,-0.8135986328125,0.0,0.18310546875,-0.1220703125,0.1072998046875,0.00927734375,0.998779296875,28.0,-13.0,-41.0,101948.0,-5.175000190734863,0,0
2016.367001,-0.578826904296875,-0.046173095703125,0.02886962890625,-0.8135986328125,-0.18310546875,0.18310546875,0.06103515625,0.1107177734375,0.0076904296875,0.9981689453125,28.0,-13.0,-41.0,101948.0,-5.175000190734863,0,0
2016.374015,-0.578826904296875,-0.046173095703125,0.028900146484375,-0.8135986328125,0.06103515625,0.18310546875,-0.1220703125,0.1099853515625,0.00537109375,0.99853515625,28.0,-13.0,-41.0,101948.0,-5.175000190734863,0,0
2016.380994,-0.578826904296875,-0.046173095703125,0.028900146484375,-0.8135986328125,0.06103515625,0.244140625,-0.06103515625,0.10888671875,0.003662109375,0.9996337890625,28.0,-13.0,-41.0,101948.0,-5.175000190734863,0,0
2016.387998,-0.578826904296875,-0.046173095703125,0.028900146484375,-0.8135986328125,0.0,0.06103515625,0.18310546875,0.110107421875,0.0057373046875,0.99853515625,28.0,-13.0,-41.0,101948.0,-5.175000190734863,0,0
2016.395018,-0.578826904296875,-0.046173095703125,0.028900146484375,-0.8135986328125,-0.06103515625,0.30517578125,0.0,0.109130859375,0.00439453125,0.999755859375,28.0,-13.0,-41.0,101948.0,-5.175000190734863,0,0
2016.402002,-0.578826904296875,-0.046142578125,0.028900146484375,-0.8135986328125,0.06103515625,0.18310546875,0.1220703125,0.1064453125,0.0062255859375,0.9996337890625,28.0,-13.0,-41.0,101948.0,-5.175000190734863,0,0
2016.409018,-0.578826904296875,-0.046142578125,0.028900146484375,-0.8135986328125,0.244140625,0.3662109375,-0.06103515625,0.1085205078125,0.006103515625,0.999267578125,28.0,-14.0,-41.0,101948.0,-5.175000190734863,0,0
2016.415996,-0.577606201171875,-0.046173095703125,0.02880859375,-0.814483642578125,-0.06103515625,0.3662109375,-0.06103515625,0.108154296875,0.00634765625,0.9986572265625,28.0,-14.0,-41.0,101948.0,-5.175000190734863,0,0
2016.422995,-0.577606201171875,-0.046173095703125,0.02880859375,-0.814483642578125,-0.06103515625,0.06103515625,0.1220703125,0.109375,0.0078125,0.999755859375,28.0,-14.0,-41.0,101948.0,-5.175000190734863,0,0
2016.429028,-0.577606201171875,-0.046173095703125,0.02880859375,-0.814483642578125,-0.06103515625,0.06103515625,0.1220703125,0.109375,0.0078125,0.999755859375,28.0,-14.0,-41.0,101948.0,-5.175000190734863,0,0
2016.435996,-0.577606201171875,-0.046173095703125,0.02880859375,-0.814483642578125,0.1220703125,0.1220703125,0.18310546875,0.10693359375,0.00537109375,0.99853515625,28.0,-14.0,-41.0,101948.0,-5.175000190734863,0,0
2016.442996,-0.577606201171875,-0.046173095703125,0.02880859375,-0.814483642578125,-0.244140625,0.244140625,-0.06103515625,0.10693359375,0.00537109375,0.9998779296875,28.0,-14.0,-41.0,101948.0,-5.175000190734863,0,0
2016.450021,-0.577606201171875,-0.046173095703125,0.028778076171875,-0.814483642578125,0.1220703125,0.18310546875,-0.1220703125,0.1080322265625,0.0079345703125,0.9993896484375,28.0,-14.0,-41.0,101948.0,-5.175000190734863,0,0
2016.457001,-0.577606201171875,-0.046173095703125,0.028778076171875,-0.814483642578125,0.06103515625,0.244140625,0.06103515625,0.110107421875,0.0074462890625,0.9979248046875,28.0,-14.0,-41.0,101948.0,-5.175000190734863,0,0
2016.464015,-0.577606201171875,-0.046173095703125,0.028778076171875,-0.814483642578125,-0.48828125,0.3662109375,0.0,0.1094970703125,0.005126953125,1.0003662109375,28.0,-14.0,-41.0,101948.0,-5.175000190734863,0,0
2016.470999,-0.577606201171875,-0.046173095703125,0.028778076171875,-0.814483642578125,-0.1220703125,0.30517578125,0.0,0.1077880859375,0.0072021484375,0.998291015625,28.0,-14.0,-41.0,101948.0,-5.175000190734863,0,0
2016.477998,-0.577606201171875,-0.046173095703125,0.02880859375,-0.814483642578125,0.244140625,0.1220703125,0.06103515625,0.1126708984375,0.0062255859375,0.998291015625,28.0,-14.0,-41.0,101948.0,-5.175000190734863,0,0
2016.492002,-0.577606201171875,-0.04620361328125,0.02880859375,-0.814483642578125,0.1220703125,0.18310546875,0.1220703125,0.1097412109375,0.005615234375,0.9984130859375,28.0,-14.0,-41.0,101948.0,-5.175000190734863,0,0
2016.499018,-0.577606201171875,-0.046173095703125,0.02880859375,-0.814483642578125,0.1220703125,0.30517578125,-0.06103515625,0.10791015625,0.00439453125,0.999755859375,28.0,-14.0,-41.0,101948.0,-5.175000190734863,0,0
2016.505996,-0.577606201171875,-0.046173095703125,0.02880859375,-0.814483642578125,0.1220703125,0.30517578125,-0.06103515625,0.109130859375,0.00537109375,0.998779296875,27.0,-14.0,-41.0,101948.0,-5.175000190734863,0,0
2016.512996,-0.57568359375,-0.046234130859375,0.028717041015625,-0.815826416015625,0.06103515625,0.42724609375,-0.1220703125,0.1099853515625,0.0059814453125,0.9986572265625,27.0,-14.0,-41.0,101948.0,-5.175000190734863,0,0
2016.52002,-0.57568359375,-0.046234130859375,0.028717041015625,-0.815826416015625,0.1220703125,0.30517578125,0.1220703125,0.1103515625,0.00537109375,0.998779296875,27.0,-14.0,-41.0,101948.0,-5.175000190734863,0,0
2016.526053,-0.57568359375,-0.046234130859375,0.028717041015625,-0.815826416015625,0.1220703125,0.30517578125,0.1220703125,0.1103515625,0.00537109375,0.998779296875,27.0,-14.0,-41.0,101948.0,-5.175000190734863,0,0
2016.532996,-0.57568359375,-0.046234130859375,0.028717041015625,-0.815826416015625,0.06103515625,0.3662109375,-0.30517578125,0.109375,0.0068359375,0.9990234375,27.0,-14.0,-41.0,101948.0,-5.175000190734863,0,0
2016.540021,-0.57568359375,-0.046234130859375,0.028717041015625,-0.815826416015625,0.18310546875,0.48828125,0.06103515625,0.110595703125,0.005859375,0.998779296875,27.0,-14.0,-41.0,101948.0,-5.175000190734863,0,0
2016.547001,-0.57568359375,-0.0462646484375,0.028717041015625,-0.815826416015625,0.06103515625,0.30517578125,0.1220703125,0.1112060546875,0.0064697265625,1.000244140625,27.0,-14.0,-41.0,101948.0,-5.175000190734863,0,0
2016.554015,-0.57568359375,-0.0462646484375,0.028717041015625,-0.815826416015625,0.0,0.3662109375,0.1220703125,0.1103515625,0.006103515625,0.9984130859375,27.0,-14.0,-41.0,101948.0,-5.176000118255615,0,0
2016.560994,-0.57568359375,-0.0462646484375,0.028717041015625,-0.815826416015625,0.1220703125,0.1220703125,-0.18310546875,0.1099853515625,0.005126953125,0.9986572265625,27.0,-14.0,-41.0,101948.0,-5.176000118255615,0,0
2016.582002,-0.57568359375,-0.0462646484375,0.028717041015625,-0.815826416015625,0.18310546875,0.244140625,0.0,0.11083984375,0.006591796875,1.000732421875,27.0,-14.0,-41.0,101948.0,-5.176000118255615,0,0
2016.589018,-0.57568359375,-0.0462646484375,0.028717041015625,-0.815826416015625,-0.244140625,0.3662109375,-0.18310546875,0.1075439453125,0.005615234375,1.0001220703125,27.0,-14.0,-41.0,101948.0,-5.176000118255615,0,0
2016.595996,-0.57568359375,-0.0462646484375,0.028717041015625,-0.815826416015625,0.18310546875,0.06103515625,0.0,0.1104736328125,0.0079345703125,0.9990234375,27.0,-14.0,-41.0,101948.0,-5.176000118255615,0,0
2016.602995,-0.57568359375,-0.0462646484375,0.028717041015625,-0.815826416015625,0.18310546875,0.18310546875,-0.18310546875,0.1097412109375,0.005615234375,0.9979248046875,27.0,-14.0,-41.0,101948.0,-5.176000118255615,0,0
2016.61002,-0.57568359375,-0.0462646484375,0.028717041015625,-0.815826416015625,-0.06103515625,0.30517578125,-0.06103515625,0.108154296875,0.00927734375,1.000732421875,27.0,-14.0,-41.0,101948.0,-5.176000118255615,0,0
2016.616053,-0.57568359375,-0.0462646484375,0.028717041015625,-0.815826416015625,-0.06103515625,0.30517578125,-0.06103515625,0.108154296875,0.00927734375,1.000732421875,27.0,-14.0,-41.0,101948.0,-5.176000118255615,0,0
2016.622996,-0.57379150390625,-0.046356201171875,0.028594970703125,-0.817169189453125,-0.18310546875,0.18310546875,0.244140625,0.108154296875,0.0067138671875,0.9991455078125,27.0,-14.0,-41.0,101948.0,-5.176000118255615,0,0
2016.630021,-0.57379150390625,-0.046356201171875,0.02862548828125,-0.817169189453125,-0.244140625,0.18310546875,0.06103515625,0.1082763671875,0.0035400390625,0.9984130859375,27.0,-14.0,-41.0,101948.0,-5.176000118255615,0,0
2016.637001,-0.57379150390625,-0.04632568359375,0.02862548828125,-0.817169189453125,0.0,0.244140625,0.0,0.107421875,0.0057373046875,0.9990234375,27.0,-14.0,-41.0,101948.0,-5.176000118255615,0,0
2016.644015,-0.57379150390625,-0.04632568359375,0.02862548828125,-0.817169189453125,-0.06103515625,0.06103515625,0.06103515625,0.106689453125,0.0067138671875,0.9976806640625,27.0,-14.0,-41.0,101948.0,-5.176000118255615,0,0
2016.650994,-0.57379150390625,-0.04632568359375,0.02862548828125,-0.817169189453125,0.244140625,0.30517578125,0.18310546875,0.1097412109375,0.0068359375,0.999267578125,27.0,-14.0,-41.0,101948.0,-5.176000118255615,0,0
2016.657998,-0.57379150390625,-0.04632568359375,0.028594970703125,-0.817169189453125,0.0,0.3662109375,-0.06103515625,0.1075439453125,0.00634765625,1.000244140625,27.0,-14.0,-41.0,101948.0,-5.176000118255615,0,0
2016.665018,-0.57379150390625,-0.046356201171875,0.028594970703125,-0.817169189453125,0.1220703125,0.30517578125,0.06103515625,0.1102294921875,0.00830078125,0.9989013671875,27.0,-14.0,-41.0,101948.0,-5.176000118255615,0,0
2016.672002,-0.57379150390625,-0.046356201171875,0.028594970703125,-0.817169189453125,-0.06103515625,0.1220703125,0.0,0.109130859375,0.008056640625,1.000244140625,27.0,-14.0,-41.0,101948.0,-5.176000118255615,0,0
2016.679018,-0.57379150390625,-0.046356201171875,0.028594970703125,-0.817169189453125,-0.18310546875,0.30517578125,0.244140625,0.10888671875,0.0076904296875,0.9986572265625,27.0,-14.0,-41.0,101948.0,-5.176000118255615,0,0
2016.685996,-0.57379150390625,-0.046356201171875,0.028594970703125,-0.817169189453125,-0.06103515625,0.1220703125,0.0,0.107421875,0.00634765625,0.9993896484375,27.0,-14.0,-41.0,101948.0,-5.176000118255615,0,0
2016.692995,-0.57379150390625,-0.046356201171875,0.028594970703125,-0.817169189453125,-0.06103515625,0.1220703125,0.0,0.108642578125,0.0068359375,0.99951171875,27.0,-14.0,-41.0,101948.0,-5.176000118255615,0,0
2016.700016,-0.57379150390625,-0.046356201171875,0.028594970703125,-0.817169189453125,0.1220703125,0.18310546875,-0.1220703125,0.1087646484375,0.007568359375,0.998291015625,27.0,-14.0,-41.0,101948.0,-5.176000118255615,0,0
2016.707004,-0.57379150390625,-0.04632568359375,0.028594970703125,-0.817169189453125,0.1220703125,0.18310546875,-0.1220703125,0.1087646484375,0.007568359375,0.998291015625,27.0,-14.0,-42.0,101948.0,-5.176000118255615,0,0
2016.713037,-0.57379150390625,-0.04632568359375,0.028594970703125,-0.817169189453125,0.1220703125,0.18310546875,-0.1220703125,0.1087646484375,0.007568359375,0.998291015625,27.0,-14.0,-42.0,101948.0,-5.176000118255615,0,0
2016.720021,-0.571868896484375,-0.046417236328125,0.028472900390625,-0.818511962890625,-0.06103515625,0.1220703125,-0.06103515625,0.1083984375,0.00634765625,1.00146484375,27.0,-14.0,-42.0,101948.0,-5.176000118255615,0,0
2016.727001,-0.571868896484375,-0.046417236328125,0.028472900390625,-0.818511962890625,-0.1220703125,0.3662109375,-0.1220703125,0.108154296875,0.00732421875,0.99755859375,27.0,-14.0,-42.0,101948.0,-5.176000118255615,0,0
2016.734015,-0.571868896484375,-0.046417236328125,0.028472900390625,-0.818511962890625,0.06103515625,0.30517578125,0.244140625,0.110107421875,0.00634765625,0.998046875,27.0,-14.0,-42.0,101948.0,-5.176000118255615,0,0
2016.755023,-0.571868896484375,-0.046417236328125,0.028472900390625,-0.818511962890625,-0.1220703125,0.30517578125,-0.06103515625,0.109619140625,0.0062255859375,0.9990234375,27.0,-14.0,-42.0,101948.0,-5.175000190734863,0,0
2016.762002,-0.571868896484375,-0.046417236328125,0.028472900390625,-0.818511962890625,0.06103515625,0.30517578125,-0.06103515625,0.108642578125,0.007568359375,0.99853515625,27.0,-14.0,-42.0,101948.0,-5.175000190734863,0,0
2016.769018,-0.571868896484375,-0.046417236328125,0.028472900390625,-0.818511962890625,0.06103515625,0.30517578125,-0.1220703125,0.108642578125,0.0072021484375,1.0001220703125,27.0,-14.0,-42.0,101948.0,-5.175000190734863,0,0
2016.775996,-0.571868896484375,-0.046417236328125,0.028472900390625,-0.818511962890625,-0.18310546875,0.18310546875,-0.06103515625,0.10693359375,0.007080078125,0.9984130859375,27.0,-14.0,-42.0,101948.0,-5.175000190734863,0,0
2016.782996,-0.571868896484375,-0.046417236328125,0.028472900390625,-0.818511962890625,-0.1220703125,0.244140625,0.06103515625,0.107421875,0.0050048828125,0.999267578125,27.0,-14.0,-42.0,101948.0,-5.175000190734863,0,0
2016.79002,-0.571868896484375,-0.046417236328125,0.028472900390625,-0.818511962890625,0.0,0.18310546875,-0.18310546875,0.1123046875,0.0069580078125,0.996826171875,27.0,-14.0,-42.0,101948.0,-5.175000190734863,0,0
2016.797004,-0.571868896484375,-0.046417236328125,0.028472900390625,-0.818511962890625,-0.06103515625,0.18310546875,0.1220703125,0.108642578125,0.0072021484375,0.99951171875,27.0,-14.0,-42.0,101948.0,-5.175000190734863,0,0
2016.803037,-0.571868896484375,-0.046417236328125,0.028472900390625,-0.818511962890625,-0.06103515625,0.18310546875,0.1220703125,0.108642578125,0.0072021484375,0.99951171875,27.0,-14.0,-42.0,101948.0,-5.175000190734863,0,0
2016.810021,-0.5699462890625,-0.046478271484375,0.028350830078125,-0.81982421875,-0.244140625,0.244140625,0.0,0.1099853515625,0.00634765625,1.000244140625,27.0,-14.0,-41.0,101948.0,-5.175000190734863,0,0
2016.817001,-0.5699462890625,-0.046478271484375,0.028350830078125,-0.81982421875,-0.06103515625,0.30517578125,0.06103515625,0.110107421875,0.0086669921875,0.998779296875,27.0,-14.0,-41.0,101948.0,-5.175000190734863,0,0
2016.824015,-0.5699462890625,-0.046478271484375,0.02838134765625,-0.81982421875,-0.06103515625,0.1220703125,0.18310546875,0.10791015625,0.005615234375,0.9993896484375,27.0,-14.0,-41.0,101948.0,-5.175000190734863,0,0
2016.845019,-0.5699462890625,-0.046478271484375,0.02838134765625,-0.81982421875,0.06103515625,0.30517578125,0.06103515625,0.10888671875,0.005615234375,0.9996337890625,27.0,-14.0,-41.0,101948.0,-5.175000190734863,0,0
2016.852002,-0.5699462890625,-0.046478271484375,0.02838134765625,-0.81982421875,0.0,0.3662109375,0.1220703125,0.1072998046875,0.006591796875,0.9984130859375,27.0,-14.0,-41.0,101948.0,-5.175000190734863,0,0
2016.859018,-0.5699462890625,-0.046478271484375,0.02838134765625,-0.81982421875,-0.1220703125,0.54931640625,0.06103515625,0.1080322265625,0.0076904296875,1.000244140625,27.0,-14.0,-41.0,101948.0,-5.176000118255615,0,0
2016.865996,-0.5699462890625,-0.046478271484375,0.028350830078125,-0.81982421875,0.0,0.30517578125,0.18310546875,0.109130859375,0.0067138671875,0.9991455078125,27.0,-14.0,-41.0,101948.0,-5.176000118255615,0,0
2016.872995,-0.5699462890625,-0.046478271484375,0.028350830078125,-0.819854736328125,-0.1220703125,0.18310546875,0.0,0.1053466796875,0.0045166015625,0.99951171875,27.0,-14.0,-41.0,101948.0,-5.176000118255615,0,0
2016.880016,-0.5699462890625,-0.046478271484375,0.02838134765625,-0.819854736328125,-0.06103515625,0.3662109375,-0.06103515625,0.1092529296875,0.0040283203125,0.999755859375,27.0,-14.0,-41.0,101948.0,-5.176000118255615,0,0
2016.887004,-0.5699462890625,-0.046478271484375,0.02838134765625,-0.819854736328125,0.42724609375,0.18310546875,-0.18310546875,0.1103515625,0.0059814453125,0.99951171875,27.0,-14.0,-41.0,101948.0,-5.176000118255615,0,0
2016.894018,-0.5699462890625,-0.046478271484375,0.02838134765625,-0.819854736328125,0.1220703125,0.30517578125,0.48828125,0.1097412109375,0.0069580078125,0.999755859375,27.0,-14.0,-41.0,101948.0,-5.176000118255615,0,0
2016.900052,-0.5699462890625,-0.046478271484375,0.02838134765625,-0.819854736328125,0.1220703125,0.30517578125,0.48828125,0.1097412109375,0.0069580078125,0.999755859375,27.0,-14.0,-41.0,101948.0,-5.176000118255615,0,0
2016.907001,-0.5699462890625,-0.046478271484375,0.02838134765625,-0.81982421875,-0.244140625,0.244140625,-0.06103515625,0.1102294921875,0.0054931640625,0.9991455078125,27.0,-14.0,-40.0,101948.0,-5.176000118255615,0,0
2016.914015,-0.568695068359375,-0.0465087890625,0.028289794921875,-0.82073974609375,-0.06103515625,0.244140625,0.1220703125,0.1070556640625,0.0076904296875,0.9986572265625,27.0,-14.0,-40.0,101948.0,-5.176000118255615,0,0
2016.920994,-0.568695068359375,-0.0465087890625,0.028289794921875,-0.82073974609375,-0.06103515625,0.244140625,-0.06103515625,0.1075439453125,0.0050048828125,0.99853515625,27.0,-14.0,-40.0,101948.0,-5.176000118255615,0,0
2016.927998,-0.56866455078125,-0.0465087890625,0.028289794921875,-0.82073974609375,0.06103515625,0.244140625,0.1220703125,0.109619140625,0.0067138671875,1.00146484375,27.0,-14.0,-40.0,101948.0,-5.176000118255615,0,0
2016.935018,-0.568695068359375,-0.0465087890625,0.028289794921875,-0.82073974609375,-0.1220703125,0.06103515625,-0.1220703125,0.1072998046875,0.0098876953125,1.0001220703125,27.0,-14.0,-40.0,101948.0,-5.176000118255615,0,0
2016.942002,-0.568695068359375,-0.0465087890625,0.028289794921875,-0.82073974609375,0.06103515625,0.42724609375,-0.06103515625,0.10986328125,0.0062255859375,0.998291015625,27.0,-14.0,-40.0,101948.0,-5.176000118255615,0,0
2016.949018,-0.568695068359375,-0.0465087890625,0.028289794921875,-0.82073974609375,0.0,0.244140625,0.0,0.1090087890625,0.00830078125,0.9996337890625,27.0,-14.0,-40.0,101948.0,-5.176000118255615,0,0
2016.955996,-0.568695068359375,-0.0465087890625,0.02825927734375,-0.82073974609375,0.1220703125,0.30517578125,0.06103515625,0.1097412109375,0.0078125,0.9976806640625,27.0,-14.0,-40.0,101948.0,-5.177000045776367,0,0
2016.962995,-0.568695068359375,-0.0465087890625,0.02825927734375,-0.82073974609375,0.18310546875,0.48828125,-0.1220703125,0.109130859375,0.00634765625,0.9998779296875,27.0,-14.0,-40.0,101948.0,-5.177000045776367,0,0
2016.97002,-0.568695068359375,-0.0465087890625,0.02825927734375,-0.82073974609375,-0.18310546875,0.1220703125,-0.1220703125,0.109619140625,0.005859375,0.9984130859375,27.0,-14.0,-40.0,101948.0,-5.177000045776367,0,0
2016.977004,-0.568695068359375,-0.046539306640625,0.02825927734375,-0.82073974609375,-0.18310546875,0.3662109375,-0.06103515625,0.110595703125,0.0091552734375,0.9979248046875,27.0,-14.0,-40.0,101948.0,-5.177000045776367,0,0
2016.984018,-0.568695068359375,-0.046539306640625,0.02825927734375,-0.82073974609375,0.0,0.30517578125,-0.1220703125,0.1085205078125,0.00634765625,0.9986572265625,27.0,-14.0,-40.0,101948.0,-5.177000045776367,0,0
2016.990052,-0.568695068359375,-0.046539306640625,0.02825927734375,-0.82073974609375,0.0,0.30517578125,-0.1220703125,0.1085205078125,0.00634765625,0.9986572265625,27.0,-14.0,-40.0,101948.0,-5.177000045776367,0,0
2016.997001,-0.568695068359375,-0.046539306640625,0.02825927734375,-0.82073974609375,-0.18310546875,0.18310546875,-0.06103515625,0.108642578125,0.006591796875,0.999755859375,27.0,-14.0,-40.0,101948.0,-5.177000045776367,0,0
2017.017998,-0.566131591796875,-0.046600341796875,0.028106689453125,-0.822479248046875,-0.3662109375,0.42724609375,0.1220703125,0.1068115234375,0.0064697265625,1.0003662109375,26.0,-15.0,-39.0,101948.0,-5.177000045776367,0,0
2017.025018,-0.566131591796875,-0.046600341796875,0.028106689453125,-0.822479248046875,0.0,0.42724609375,0.06103515625,0.107421875,0.0069580078125,1.001220703125,26.0,-15.0,-39.0,101948.0,-5.177000045776367,0,0
2017.032002,-0.566131591796875,-0.046600341796875,0.028106689453125,-0.822479248046875,0.18310546875,0.30517578125,-0.18310546875,0.1092529296875,0.0074462890625,1.000732421875,26.0,-15.0,-39.0,101948.0,-5.177000045776367,0,0
2017.039018,-0.566131591796875,-0.046600341796875,0.028106689453125,-0.822479248046875,-0.18310546875,0.1220703125,0.1220703125,0.1080322265625,0.008056640625,0.9996337890625,26.0,-15.0,-39.0,101948.0,-5.177000045776367,0,0
2017.045996,-0.566131591796875,-0.046600341796875,0.028106689453125,-0.822479248046875,-0.1220703125,0.30517578125,0.1220703125,0.1077880859375,0.007568359375,0.9998779296875,26.0,-15.0,-39.0,101948.0,-5.177000045776367,0,0
2017.052996,-0.566131591796875,-0.04656982421875,0.028106689453125,-0.822479248046875,0.1220703125,0.0,-0.06103515625,0.1063232421875,0.0057373046875,0.9990234375,26.0,-15.0,-39.0,101948.0,-5.178000450134277,0,0
2017.06002,-0.566131591796875,-0.046600341796875,0.028106689453125,-0.822479248046875,-0.30517578125,0.244140625,-0.06103515625,0.1109619140625,0.0069580078125,0.9986572265625,26.0,-15.0,-39.0,101948.0,-5.178000450134277,0,0
2017.067004,-0.566131591796875,-0.046600341796875,0.028106689453125,-0.822479248046875,-0.1220703125,0.244140625,0.18310546875,0.1104736328125,0.0069580078125,0.999267578125,26.0,-15.0,-39.0,101948.0,-5.178000450134277,0,0
2017.074018,-0.566131591796875,-0.046600341796875,0.028106689453125,-0.822479248046875,-0.06103515625,0.30517578125,-0.1220703125,0.10791015625,0.0072021484375,0.999267578125,26.0,-15.0,-39.0,101948.0,-5.178000450134277,0,0
2017.080998,-0.566131591796875,-0.04656982421875,0.028106689453125,-0.822479248046875,-0.06103515625,0.244140625,0.06103515625,0.10791015625,0.0076904296875,0.9989013671875,26.0,-15.0,-39.0,101948.0,-5.178000450134277,0,0
2017.087031,-0.566131591796875,-0.04656982421875,0.028106689453125,-0.822479248046875,-0.06103515625,0.244140625,0.06103515625,0.10791015625,0.0076904296875,0.9989013671875,26.0,-15.0,-39.0,101948.0,-5.178000450134277,0,0
2017.107998,-0.564208984375,-0.046630859375,0.027984619140625,-0.823822021484375,0.18310546875,0.30517578125,0.0,0.1097412109375,0.006591796875,0.9974365234375,26.0,-15.0,-40.0,101948.0,-5.178000450134277,0,0
2017.115023,-0.564208984375,-0.046630859375,0.027984619140625,-0.823822021484375,0.06103515625,0.18310546875,0.06103515625,0.1077880859375,0.004638671875,1.000244140625,26.0,-15.0,-40.0,101948.0,-5.178000450134277,0,0
2017.122002,-0.564208984375,-0.046630859375,0.02801513671875,-0.823822021484375,0.0,0.18310546875,-0.06103515625,0.1080322265625,0.00439453125,0.9998779296875,26.0,-15.0,-40.0,101948.0,-5.178000450134277,0,0
2017.129018,-0.564208984375,-0.046600341796875,0.02801513671875,-0.823822021484375,0.18310546875,0.1220703125,-0.1220703125,0.1055908203125,0.0067138671875,0.9990234375,26.0,-15.0,-40.0,101948.0,-5.178000450134277,0,0
2017.135996,-0.564208984375,-0.046600341796875,0.027984619140625,-0.823822021484375,-0.18310546875,0.18310546875,-0.06103515625,0.109375,0.007568359375,0.999755859375,26.0,-15.0,-40.0,101948.0,-5.178000450134277,0,0
2017.142996,-0.564208984375,-0.046630859375,0.027984619140625,-0.823822021484375,-0.244140625,0.3662109375,0.0,0.1099853515625,0.0067138671875,0.998779296875,26.0,-15.0,-40.0,101948.0,-5.178000450134277,0,0
2017.150016,-0.564208984375,-0.046630859375,0.027984619140625,-0.823822021484375,0.0,0.30517578125,0.0,0.1087646484375,0.0076904296875,0.99755859375,26.0,-15.0,-40.0,101948.0,-5.178000450134277,0,0
2017.157004,-0.564208984375,-0.046630859375,0.027984619140625,-0.823822021484375,-0.06103515625,0.30517578125,0.0,0.108642578125,0.00732421875,0.9990234375,26.0,-15.0,-40.0,101948.0,-5.178000450134277,0,0
2017.164019,-0.564208984375,-0.046630859375,0.027984619140625,-0.823822021484375,-0.1220703125,0.1220703125,0.0,0.109130859375,0.0057373046875,0.9996337890625,26.0,-15.0,-40.0,101948.0,-5.178000450134277,0,0
2017.170998,-0.564208984375,-0.046630859375,0.027984619140625,-0.823822021484375,0.1220703125,0.42724609375,0.1220703125,0.1092529296875,0.0079345703125,0.9991455078125,26.0,-15.0,-40.0,101948.0,-5.178000450134277,0,0
2017.177026,-0.564208984375,-0.046630859375,0.027984619140625,-0.823822021484375,0.1220703125,0.42724609375,0.1220703125,0.1092529296875,0.0079345703125,0.9991455078125,26.0,-15.0,-40.0,101948.0,-5.178000450134277,0,0
2017.184015,-0.564208984375,-0.046630859375,0.027984619140625,-0.823822021484375,-0.06103515625,0.244140625,-0.1220703125,0.1104736328125,0.0068359375,0.9996337890625,26.0,-15.0,-40.0,101948.0,-5.178000450134277,0,0
2017.190994,-0.564208984375,-0.046630859375,0.027984619140625,-0.823822021484375,-0.06103515625,0.18310546875,-0.1220703125,0.1097412109375,0.0067138671875,0.9998779296875,26.0,-15.0,-40.0,101948.0,-5.178000450134277,0,0
2017.197998,-0.564208984375,-0.046630859375,0.027984619140625,-0.823822021484375,0.1220703125,0.48828125,-0.244140625,0.1085205078125,0.0067138671875,1.0001220703125,26.0,-15.0,-40.0,101948.0,-5.178000450134277,0,0
2017.205018,-0.564208984375,-0.046630859375,0.027984619140625,-0.823822021484375,0.06103515625,0.18310546875,0.0,0.1097412109375,0.007568359375,1.0,26.0,-15.0,-40.0,101948.0,-5.178000450134277,0,0
2017.212002,-0.563507080078125,-0.046661376953125,0.0279541015625,-0.82427978515625,-0.18310546875,0.18310546875,-0.06103515625,0.1094970703125,0.005859375,0.9986572265625,25.0,-13.0,-40.0,101948.0,-5.178000450134277,0,0
2017.219018,-0.563507080078125,-0.046661376953125,0.0279541015625,-0.82427978515625,0.0,0.3662109375,-0.1220703125,0.1085205078125,0.0052490234375,1.00048828125,25.0,-13.0,-40.0,101948.0,-5.178000450134277,0,0
2017.225996,-0.563507080078125,-0.046661376953125,0.027984619140625,-0.82427978515625,0.18310546875,0.18310546875,0.06103515625,0.10986328125,0.0062255859375,1.0001220703125,25.0,-13.0,-40.0,101948.0,-5.178000450134277,0,0
2017.232995,-0.563507080078125,-0.046661376953125,0.027984619140625,-0.82427978515625,-0.1220703125,0.30517578125,-0.06103515625,0.109375,0.0068359375,0.997314453125,25.0,-13.0,-40.0,101948.0,-5.178000450134277,0,0
2017.240016,-0.563507080078125,-0.046661376953125,0.027984619140625,-0.82427978515625,0.06103515625,0.30517578125,0.18310546875,0.107666015625,0.0050048828125,0.998779296875,25.0,-13.0,-40.0,101948.0,-5.178000450134277,0,0
2017.247004,-0.563507080078125,-0.046661376953125,0.0279541015625,-0.82427978515625,-0.18310546875,0.18310546875,0.1220703125,0.1080322265625,0.0062255859375,0.997802734375,25.0,-13.0,-40.0,101948.0,-5.178000450134277,0,0
2017.254018,-0.563507080078125,-0.046661376953125,0.0279541015625,-0.82427978515625,0.06103515625,0.244140625,0.0,0.1094970703125,0.0076904296875,0.998779296875,25.0,-13.0,-40.0,101948.0,-5.178000450134277,0,0
2017.260998,-0.563507080078125,-0.046661376953125,0.0279541015625,-0.82427978515625,0.06103515625,0.3662109375,0.1220703125,0.1068115234375,0.008056640625,0.99755859375,25.0,-13.0,-40.0,101948.0,-5.178000450134277,0,0
2017.280994,-0.563507080078125,-0.04669189453125,0.0279541015625,-0.82427978515625,-0.30517578125,0.18310546875,0.0,0.1083984375,0.005859375,0.999267578125,25.0,-13.0,-40.0,101948.0,-5.178000450134277,0,0
2017.287998,-0.563507080078125,-0.04669189453125,0.0279541015625,-0.82427978515625,-0.06103515625,0.18310546875,0.0,0.107421875,0.006591796875,0.9991455078125,25.0,-13.0,-40.0,101948.0,-5.178000450134277,0,0
2017.295018,-0.563507080078125,-0.04669189453125,0.0279541015625,-0.82427978515625,-0.1220703125,0.18310546875,-0.18310546875,0.109130859375,0.008056640625,0.9998779296875,25.0,-13.0,-40.0,101948.0,-5.178000450134277,0,0
2017.302002,-0.563507080078125,-0.04669189453125,0.027923583984375,-0.82427978515625,0.06103515625,0.18310546875,0.06103515625,0.107666015625,0.0064697265625,0.998291015625,26.0,-12.0,-39.0,101948.0,-5.178000450134277,0,0
2017.309018,-0.5628662109375,-0.046722412109375,0.02789306640625,-0.824737548828125,-0.18310546875,0.42724609375,-0.18310546875,0.1104736328125,0.008056640625,0.9981689453125,26.0,-12.0,-39.0,101948.0,-5.178000450134277,0,0
2017.315996,-0.5628662109375,-0.046722412109375,0.027923583984375,-0.824737548828125,0.30517578125,0.18310546875,0.06103515625,0.1102294921875,0.0045166015625,1.0001220703125,26.0,-12.0,-39.0,101948.0,-5.178000450134277,0,0
2017.322995,-0.5628662109375,-0.046722412109375,0.027923583984375,-0.824737548828125,-0.06103515625,0.30517578125,-0.06103515625,0.1103515625,0.0069580078125,1.0006103515625,26.0,-12.0,-39.0,101948.0,-5.178000450134277,0,0
2017.33002,-0.5628662109375,-0.04669189453125,0.027923583984375,-0.824737548828125,0.06103515625,0.244140625,-0.06103515625,0.1060791015625,0.00390625,0.997802734375,26.0,-12.0,-39.0,101948.0,-5.178000450134277,0,0
2017.337004,-0.5628662109375,-0.04669189453125,0.027923583984375,-0.824737548828125,0.06103515625,0.54931640625,-0.06103515625,0.1087646484375,0.0048828125,0.999267578125,26.0,-12.0,-39.0,101948.0,-5.178000450134277,0,0
2017.344018,-0.5628662109375,-0.046722412109375,0.02789306640625,-0.824737548828125,0.0,0.3662109375,-0.244140625,0.1090087890625,0.0089111328125,0.9990234375,26.0,-12.0,-39.0,101948.0,-5.178000450134277,0,0
2017.350998,-0.5628662109375,-0.04669189453125,0.02789306640625,-0.824737548828125,0.18310546875,0.1220703125,-0.1220703125,0.1080322265625,0.007080078125,0.998779296875,26.0,-12.0,-39.0,101948.0,-5.177000045776367,0,0
2017.370999,-0.5628662109375,-0.04669189453125,0.02789306640625,-0.824737548828125,-0.18310546875,0.48828125,0.18310546875,0.109130859375,0.0069580078125,0.999267578125,26.0,-12.0,-39.0,101948.0,-5.177000045776367,0,0
2017.377998,-0.5628662109375,-0.04669189453125,0.02789306640625,-0.824737548828125,-0.18310546875,0.3662109375,-0.06103515625,0.10791015625,0.00537109375,0.9996337890625,26.0,-12.0,-39.0,101948.0,-5.177000045776367,0,0
2017.385023,-0.5628662109375,-0.04669189453125,0.02789306640625,-0.824737548828125,0.06103515625,0.06103515625,-0.244140625,0.107666015625,0.004150390625,0.9981689453125,26.0,-12.0,-39.0,101948.0,-5.177000045776367,0,0
2017.392002,-0.5628662109375,-0.04669189453125,0.02789306640625,-0.824737548828125,-0.244140625,0.3662109375,0.1220703125,0.1092529296875,0.0068359375,0.9979248046875,26.0,-12.0,-39.0,101948.0,-5.177000045776367,0,0
2017.399018,-0.5628662109375,-0.04669189453125,0.02789306640625,-0.824737548828125,-0.30517578125,0.48828125,-0.1220703125,0.1080322265625,0.0078125,0.99853515625,26.0,-12.0,-39.0,101948.0,-5.177000045776367,0,0
2017.405996,-0.56219482421875,-0.046722412109375,0.027862548828125,-0.8251953125,-0.06103515625,0.30517578125,-0.18310546875,0.1077880859375,0.0068359375,0.9984130859375,26.0,-12.0,-39.0,101948.0,-5.177000045776367,0,0
2017.412996,-0.56219482421875,-0.046722412109375,0.027862548828125,-0.8251953125,-0.18310546875,0.18310546875,-0.06103515625,0.108642578125,0.0064697265625,0.998779296875,26.0,-12.0,-39.0,101948.0,-5.177000045776367,0,0
2017.42002,-0.56219482421875,-0.046722412109375,0.027862548828125,-0.8251953125,-0.06103515625,0.244140625,-0.18310546875,0.109375,0.0069580078125,1.0001220703125,26.0,-12.0,-39.0,101948.0,-5.177000045776367,0,0
2017.427004,-0.56219482421875,-0.046722412109375,0.027862548828125,-0.8251953125,-0.1220703125,0.244140625,-0.1220703125,0.108154296875,0.0064697265625,0.9998779296875,26.0,-12.0,-39.0,101948.0,-5.177000045776367,0,0
2017.434018,-0.56219482421875,-0.046722412109375,0.027862548828125,-0.8251953125,0.06103515625,0.1220703125,-0.06103515625,0.1112060546875,0.009033203125,1.0020751953125,26.0,-12.0,-39.0,101948.0,-5.177000045776367,0,0
2017.440998,-0.56219482421875,-0.046722412109375,0.027862548828125,-0.8251953125,-0.244140625,0.0,-0.06103515625,0.1083984375,0.0062255859375,0.9981689453125,26.0,-12.0,-39.0,101948.0,-5.177000045776367,0,0
2017.447998,-0.56219482421875,-0.046722412109375,0.027862548828125,-0.8251953125,0.06103515625,0.18310546875,-0.1220703125,0.1107177734375,0.0081787109375,0.999755859375,26.0,-12.0,-39.0,101948.0,-5.177000045776367,0,0
2017.455018,-0.56219482421875,-0.046722412109375,0.027862548828125,-0.8251953125,0.0,0.3662109375,-0.06103515625,0.1083984375,0.0052490234375,0.9976806640625,26.0,-12.0,-39.0,101948.0,-5.178000450134277,0,0
2017.46105,-0.56219482421875,-0.046722412109375,0.027862548828125,-0.8251953125,0.0,0.3662109375,-0.06103515625,0.1083984375,0.0052490234375,0.9976806640625,26.0,-12.0,-39.0,101948.0,-5.178000450134277,0,0
2017.467998,-0.56219482421875,-0.046722412109375,0.027862548828125,-0.8251953125,-0.1220703125,0.18310546875,0.1220703125,0.109130859375,0.005126953125,0.9981689453125,26.0,-12.0,-39.0,101948.0,-5.178000450134277,0,0
2017.475018,-0.56219482421875,-0.046722412109375,0.027862548828125,-0.8251953125,0.0,0.244140625,-0.18310546875,0.1080322265625,0.0067138671875,1.0001220703125,26.0,-12.0,-39.0,101948.0,-5.178000450134277,0,0
2017.482002,-0.56219482421875,-0.046722412109375,0.027862548828125,-0.8251953125,0.18310546875,0.18310546875,0.0,0.10888671875,0.008056640625,1.0008544921875,26.0,-12.0,-39.0,101948.0,-5.178000450134277,0,0
2017.489018,-0.56219482421875,-0.046722412109375,0.027862548828125,-0.8251953125,-0.06103515625,0.1220703125,0.0,0.1099853515625,0.0072021484375,0.999267578125,26.0,-12.0,-39.0,101948.0,-5.178000450134277,0,0
2017.495996,-0.56219482421875,-0.046722412109375,0.027862548828125,-0.8251953125,-0.1220703125,0.06103515625,0.0,0.1082763671875,0.006103515625,0.9993896484375,26.0,-12.0,-39.0,101948.0,-5.178000450134277,0,0
2017.502995,-0.56219482421875,-0.046722412109375,0.027862548828125,-0.8251953125,-0.244140625,0.1220703125,0.18310546875,0.1083984375,0.0057373046875,1.0,25.0,-12.0,-37.0,101948.0,-5.178000450134277,0,0
2017.510016,-0.561492919921875,-0.0467529296875,0.02783203125,-0.825653076171875,0.1220703125,0.30517578125,0.18310546875,0.112060546875,0.0064697265625,0.998046875,25.0,-12.0,-37.0,101948.0,-5.178000450134277,0,0
2017.517004,-0.561492919921875,-0.0467529296875,0.02783203125,-0.825653076171875,-0.1220703125,0.244140625,0.244140625,0.108154296875,0.00634765625,0.99951171875,25.0,-12.0,-37.0,101948.0,-5.178000450134277,0,0
2017.524018,-0.561492919921875,-0.0467529296875,0.02783203125,-0.825653076171875,-0.1220703125,0.244140625,-0.06103515625,0.1087646484375,0.0078125,0.997802734375,25.0,-12.0,-37.0,101948.0,-5.178000450134277,0,0
2017.545018,-0.561492919921875,-0.0467529296875,0.02783203125,-0.825653076171875,0.06103515625,0.3662109375,0.0,0.1103515625,0.0047607421875,0.9993896484375,25.0,-12.0,-37.0,101948.0,-5.178000450134277,0,0
2017.55105,-0.561492919921875,-0.0467529296875,0.02783203125,-0.825653076171875,0.06103515625,0.3662109375,0.0,0.1103515625,0.0047607421875,0.9993896484375,25.0,-12.0,-37.0,101948.0,-5.178000450134277,0,0
2017.557998,-0.561492919921875,-0.0467529296875,0.02783203125,-0.825653076171875,-0.18310546875,0.42724609375,0.0,0.109130859375,0.0089111328125,1.0010986328125,25.0,-12.0,-37.0,101948.0,-5.178000450134277,0,0
2017.565018,-0.561492919921875,-0.0467529296875,0.02783203125,-0.825653076171875,-0.244140625,0.244140625,0.18310546875,0.1099853515625,0.0054931640625,1.0003662109375,25.0,-12.0,-37.0,101948.0,-5.178000450134277,0,0
2017.572002,-0.561492919921875,-0.0467529296875,0.02783203125,-0.825653076171875,-0.1220703125,0.42724609375,0.0,0.1090087890625,0.0050048828125,0.998046875,25.0,-12.0,-37.0,101948.0,-5.178000450134277,0,0
2017.579018,-0.561492919921875,-0.0467529296875,0.02783203125,-0.825653076171875,0.0,0.1220703125,0.0,0.110595703125,0.00634765625,0.99853515625,25.0,-12.0,-37.0,101948.0,-5.178000450134277,0,0
2017.585996,-0.561492919921875,-0.0467529296875,0.02783203125,-0.825653076171875,-0.1220703125,0.30517578125,0.18310546875,0.1085205078125,0.0072021484375,0.997802734375,25.0,-12.0,-37.0,101948.0,-5.178000450134277,0,0
2017.592995,-0.561492919921875,-0.0467529296875,0.02783203125,-0.825653076171875,0.06103515625,0.30517578125,-0.1220703125,0.1097412109375,0.005859375,0.998779296875,25.0,-12.0,-37.0,101948.0,-5.178000450134277,0,0
2017.600016,-0.561492919921875,-0.046783447265625,0.02783203125,-0.825653076171875,0.06103515625,0.18310546875,-0.3662109375,0.10693359375,0.008544921875,0.998046875,25.0,-12.0,-37.0,101948.0,-5.178000450134277,0,0
2017.607004,-0.560791015625,-0.046783447265625,0.027801513671875,-0.826141357421875,0.30517578125,0.1220703125,-0.1220703125,0.10986328125,0.00537109375,0.999267578125,24.0,-12.0,-39.0,101948.0,-5.178000450134277,0,0
2017.627998,-0.560791015625,-0.046783447265625,0.027801513671875,-0.826141357421875,0.06103515625,0.3662109375,0.244140625,0.1090087890625,0.0054931640625,0.9989013671875,24.0,-12.0,-39.0,101948.0,-5.178000450134277,0,0
2017.635018,-0.560791015625,-0.046783447265625,0.027801513671875,-0.826141357421875,0.0,0.18310546875,0.1220703125,0.107421875,0.0067138671875,0.99853515625,24.0,-12.0,-39.0,101948.0,-5.178000450134277,0,0
2017.64105,-0.560791015625,-0.046783447265625,0.027801513671875,-0.826141357421875,0.0,0.18310546875,0.1220703125,0.107421875,0.0067138671875,0.99853515625,24.0,-12.0,-39.0,101948.0,-5.178000450134277,0,0
2017.647998,-0.560791015625,-0.046783447265625,0.027801513671875,-0.826141357421875,0.0,0.244140625,-0.1220703125,0.109375,0.0062255859375,0.9986572265625,24.0,-12.0,-39.0,101948.0,-5.179000377655029,0,0
2017.655023,-0.560791015625,-0.046783447265625,0.027801513671875,-0.826141357421875,0.1220703125,0.244140625,0.0,0.1107177734375,0.005859375,0.997314453125,24.0,-12.0,-39.0,101948.0,-5.179000377655029,0,0
2017.662002,-0.560791015625,-0.046783447265625,0.027801513671875,-0.826141357421875,-0.30517578125,0.18310546875,0.1220703125,0.1092529296875,0.0059814453125,0.9998779296875,24.0,-12.0,-39.0,101948.0,-5.179000377655029,0,0
2017.669018,-0.560791015625,-0.046783447265625,0.02783203125,-0.826141357421875,-0.06103515625,0.18310546875,-0.06103515625,0.1094970703125,0.0054931640625,1.000732421875,24.0,-12.0,-39.0,101948.0,-5.179000377655029,0,0
2017.675996,-0.560791015625,-0.046783447265625,0.02783203125,-0.826141357421875,-0.18310546875,0.42724609375,0.1220703125,0.109619140625,0.0032958984375,0.99853515625,24.0,-12.0,-39.0,101948.0,-5.179000377655029,0,0
2017.682996,-0.560791015625,-0.0467529296875,0.027801513671875,-0.826141357421875,-0.06103515625,0.3662109375,0.0,0.1090087890625,0.00732421875,0.998779296875,24.0,-12.0,-39.0,101948.0,-5.179000377655029,0,0
2017.69002,-0.560791015625,-0.046783447265625,0.027801513671875,-0.826141357421875,-0.18310546875,0.30517578125,-0.1220703125,0.108642578125,0.0084228515625,0.9991455078125,24.0,-12.0,-39.0,101948.0,-5.179000377655029,0,0
2017.697004,-0.560791015625,-0.046783447265625,0.027801513671875,-0.826141357421875,0.18310546875,0.48828125,0.06103515625,0.1090087890625,0.007568359375,0.9998779296875,24.0,-12.0,-39.0,101948.0,-5.179000377655029,0,0
2017.704018,-0.560791015625,-0.046783447265625,0.027801513671875,-0.826141357421875,-0.1220703125,0.30517578125,-0.1220703125,0.1097412109375,0.0062255859375,0.99951171875,25.0,-12.0,-40.0,101948.0,-5.179000377655029,0,0
2017.710998,-0.560089111328125,-0.04681396484375,0.02777099609375,-0.82659912109375,0.06103515625,0.244140625,-0.18310546875,0.10791015625,0.007080078125,0.998291015625,25.0,-12.0,-40.0,101948.0,-5.179000377655029,0,0
2017.717998,-0.560089111328125,-0.04681396484375,0.02777099609375,-0.82659912109375,0.18310546875,0.1220703125,-0.18310546875,0.1103515625,0.0086669921875,0.9996337890625,25.0,-12.0,-40.0,101948.0,-5.179000377655029,0,0
2017.725018,-0.560089111328125,-0.04681396484375,0.02777099609375,-0.82659912109375,0.1220703125,0.30517578125,0.06103515625,0.108154296875,0.0078125,0.99853515625,25.0,-12.0,-40.0,101948.0,-5.179000377655029,0,0
2017.732001,-0.560089111328125,-0.04681396484375,0.02777099609375,-0.82659912109375,0.06103515625,-0.06103515625,-0.18310546875,0.1103515625,0.004638671875,0.9974365234375,25.0,-12.0,-40.0,101948.0,-5.179000377655029,0,0
2017.738034,-0.560089111328125,-0.04681396484375,0.02777099609375,-0.82659912109375,0.06103515625,-0.06103515625,-0.18310546875,0.1103515625,0.004638671875,0.9974365234375,25.0,-12.0,-40.0,101948.0,-5.179000377655029,0,0
2017.745019,-0.560089111328125,-0.04681396484375,0.027740478515625,-0.82659912109375,-0.18310546875,0.244140625,0.0,0.1072998046875,0.0079345703125,0.9989013671875,25.0,-12.0,-40.0,101948.0,-5.179000377655029,0,0
2017.752002,-0.560089111328125,-0.04681396484375,0.027740478515625,-0.82659912109375,-0.06103515625,0.30517578125,-0.06103515625,0.1090087890625,0.008544921875,0.999755859375,25.0,-12.0,-40.0,101948.0,-5.179000377655029,0,0
2017.759018,-0.560089111328125,-0.04681396484375,0.027740478515625,-0.82659912109375,-0.1220703125,0.1220703125,0.0,0.1082763671875,0.005615234375,1.00048828125,25.0,-12.0,-40.0,101948.0,-5.179000377655029,0,0
2017.765996,-0.560089111328125,-0.04681396484375,0.027740478515625,-0.82659912109375,-0.06103515625,0.30517578125,0.0,0.109619140625,0.00537109375,0.9990234375,25.0,-12.0,-40.0,101948.0,-5.179000377655029,0,0
2017.772995,-0.560089111328125,-0.04681396484375,0.027740478515625,-0.82659912109375,-0.06103515625,0.30517578125,-0.1220703125,0.1099853515625,0.0062255859375,0.998779296875,25.0,-12.0,-40.0,101948.0,-5.179000377655029,0,0
2017.78002,-0.560089111328125,-0.04681396484375,0.027740478515625,-0.82659912109375,-0.1220703125,0.244140625,0.18310546875,0.110107421875,0.0052490234375,0.998779296875,25.0,-12.0,-40.0,101948.0,-5.179000377655029,0,0
2017.787004,-0.560089111328125,-0.04681396484375,0.027740478515625,-0.82659912109375,0.1220703125,0.3662109375,0.244140625,0.10888671875,0.007080078125,0.9984130859375,25.0,-12.0,-40.0,101948.0,-5.179000377655029,0,0
2017.807998,-0.559417724609375,-0.04681396484375,0.027679443359375,-0.82708740234375,-0.06103515625,0.244140625,0.0,0.1085205078125,0.007568359375,0.99951171875,25.0,-13.0,-39.0,101948.0,-5.177000045776367,0,0
2017.815018,-0.559417724609375,-0.04681396484375,0.0277099609375,-0.82708740234375,-0.1220703125,0.06103515625,-0.1220703125,0.1097412109375,0.0047607421875,0.9993896484375,25.0,-13.0,-39.0,101948.0,-5.177000045776367,0,0
2017.822001,-0.559417724609375,-0.046844482421875,0.027679443359375,-0.82708740234375,-0.18310546875,0.30517578125,0.0,0.1103515625,0.0067138671875,0.9996337890625,25.0,-13.0,-39.0,101948.0,-5.177000045776367,0,0
2017.828034,-0.559417724609375,-0.046844482421875,0.027679443359375,-0.82708740234375,-0.18310546875,0.30517578125,0.0,0.1103515625,0.0067138671875,0.9996337890625,25.0,-13.0,-39.0,101948.0,-5.177000045776367,0,0
2017.835018,-0.559417724609375,-0.046844482421875,0.027679443359375,-0.82708740234375,0.1220703125,0.06103515625,0.0,0.1068115234375,0.0079345703125,0.9971923828125,25.0,-13.0,-39.0,101948.0,-5.177000045776367,0,0
2017.842002,-0.559417724609375,-0.04681396484375,0.027679443359375,-0.82708740234375,0.06103515625,0.3662109375,0.06103515625,0.106201171875,0.007080078125,0.999755859375,25.0,-13.0,-39.0,101948.0,-5.177000045776367,0,0
2017.849018,-0.559417724609375,-0.04681396484375,0.027679443359375,-0.82708740234375,0.06103515625,0.1220703125,0.06103515625,0.108642578125,0.005126953125,0.9993896484375,25.0,-13.0,-39.0,101948.0,-5.177000045776367,0,0
2017.855996,-0.559417724609375,-0.04681396484375,0.027679443359375,-0.82708740234375,-0.3662109375,0.42724609375,0.0,0.107666015625,0.005859375,0.99951171875,25.0,-13.0,-39.0,101948.0,-5.177000045776367,0,0
2017.862995,-0.559417724609375,-0.04681396484375,0.0277099609375,-0.82708740234375,-0.06103515625,0.30517578125,-0.1220703125,0.110107421875,0.0050048828125,0.9986572265625,25.0,-13.0,-39.0,101948.0,-5.177000045776367,0,0
2017.87002,-0.559417724609375,-0.04681396484375,0.027679443359375,-0.82708740234375,0.06103515625,0.3662109375,-0.18310546875,0.108642578125,0.0078125,0.9986572265625,25.0,-13.0,-39.0,101948.0,-5.177000045776367,0,0
2017.890998,-0.559417724609375,-0.046844482421875,0.027679443359375,-0.82708740234375,0.06103515625,0.244140625,0.06103515625,0.1085205078125,0.0087890625,1.0001220703125,25.0,-13.0,-39.0,101948.0,-5.177000045776367,0,0
2017.897997,-0.559417724609375,-0.046844482421875,0.027679443359375,-0.82708740234375,0.0,0.18310546875,-0.18310546875,0.109375,0.007080078125,0.9989013671875,25.0,-13.0,-39.0,101948.0,-5.177000045776367,0,0
2017.905018,-0.559417724609375,-0.046844482421875,0.027679443359375,-0.82708740234375,-0.06103515625,0.06103515625,-0.06103515625,0.108642578125,0.0054931640625,1.0,25.0,-13.0,-39.0,101948.0,-5.177000045776367,0,0
2017.912001,-0.5587158203125,-0.046844482421875,0.027618408203125,-0.827545166015625,0.1220703125,0.244140625,-0.06103515625,0.108154296875,0.0079345703125,0.997802734375,25.0,-13.0,-39.0,101948.0,-5.177000045776367,0,0
2017.919018,-0.5587158203125,-0.046844482421875,0.027618408203125,-0.827545166015625,-0.244140625,0.244140625,0.244140625,0.1085205078125,0.0059814453125,0.9991455078125,25.0,-13.0,-39.0,101948.0,-5.177000045776367,0,0
2017.92505,-0.5587158203125,-0.046844482421875,0.027618408203125,-0.827545166015625,-0.244140625,0.244140625,0.244140625,0.1085205078125,0.0059814453125,0.9991455078125,25.0,-13.0,-39.0,101948.0,-5.177000045776367,0,0
2017.932002,-0.5587158203125,-0.046844482421875,0.02764892578125,-0.827545166015625,0.1220703125,0.30517578125,0.0,0.1099853515625,0.0068359375,0.998291015625,25.0,-13.0,-39.0,101948.0,-5.177000045776367,0,0
2017.939018,-0.5587158203125,-0.046844482421875,0.02764892578125,-0.827545166015625,-0.1220703125,0.30517578125,0.06103515625,0.109375,0.005859375,0.9991455078125,25.0,-13.0,-39.0,101948.0,-5.177000045776367,0,0
2017.945996,-0.5587158203125,-0.046844482421875,0.02764892578125,-0.827545166015625,-0.244140625,0.06103515625,0.18310546875,0.1097412109375,0.0078125,1.000732421875,25.0,-13.0,-39.0,101948.0,-5.177000045776367,0,0
2017.952996,-0.5587158203125,-0.046844482421875,0.02764892578125,-0.827545166015625,0.0,0.244140625,-0.06103515625,0.1092529296875,0.0048828125,0.9996337890625,25.0,-13.0,-39.0,101948.0,-5.177000045776367,0,0
2017.96002,-0.5587158203125,-0.046844482421875,0.02764892578125,-0.827545166015625,0.1220703125,0.244140625,0.1220703125,0.1080322265625,0.007080078125,0.9981689453125,25.0,-13.0,-39.0,101948.0,-5.177000045776367,0,0
2017.967004,-0.5587158203125,-0.046844482421875,0.02764892578125,-0.827545166015625,-0.1220703125,0.244140625,0.1220703125,0.10791015625,0.0059814453125,0.999755859375,25.0,-13.0,-39.0,101948.0,-5.177000045776367,0,0
2017.974018,-0.5587158203125,-0.046844482421875,0.02764892578125,-0.827545166015625,0.0,0.244140625,0.1220703125,0.1109619140625,0.0074462890625,1.001220703125,25.0,-13.0,-39.0,101948.0,-5.177000045776367,0,0
2017.980998,-0.5587158203125,-0.046844482421875,0.02764892578125,-0.827545166015625,-0.18310546875,0.3662109375,0.06103515625,0.1102294921875,0.0059814453125,0.9993896484375,25.0,-13.0,-39.0,101948.0,-5.177000045776367,0,0
2017.987998,-0.5587158203125,-0.046844482421875,0.02764892578125,-0.827545166015625,-0.18310546875,0.18310546875,-0.1220703125,0.1102294921875,0.0086669921875,0.998046875,25.0,-13.0,-39.0,101948.0,-5.177000045776367,0,0
2017.995018,-0.5587158203125,-0.046844482421875,0.02764892578125,-0.827545166015625,0.0,0.1220703125,0.18310546875,0.1097412109375,0.0068359375,0.99853515625,25.0,-13.0,-39.0,101948.0,-5.177000045776367,0,0
2018.002001,-0.5587158203125,-0.046844482421875,0.02764892578125,-0.827545166015625,-0.244140625,0.3662109375,-0.06103515625,0.10986328125,0.0048828125,1.0003662109375,26.0,-13.0,-39.0,101948.0,-5.178000450134277,0,0
2018.009018,-0.55804443359375,-0.046875,0.027618408203125,-0.8280029296875,-0.244140625,0.0,-0.06103515625,0.10986328125,0.005615234375,0.9971923828125,26.0,-13.0,-39.0,101948.0,-5.178000450134277,0,0
2018.015054,-0.55804443359375,-0.046875,0.027618408203125,-0.8280029296875,-0.244140625,0.0,-0.06103515625,0.10986328125,0.005615234375,0.9971923828125,26.0,-13.0,-39.0,101948.0,-5.178000450134277,0,0
2018.022002,-0.55804443359375,-0.046875,0.027618408203125,-0.8280029296875,0.1220703125,0.244140625,0.06103515625,0.109130859375,0.007080078125,1.000732421875,26.0,-13.0,-39.0,101948.0,-5.178000450134277,0,0
2018.029018,-0.55804443359375,-0.046875,0.027618408203125,-0.8280029296875,-0.06103515625,0.244140625,0.18310546875,0.109130859375,0.006103515625,0.999755859375,26.0,-13.0,-39.0,101948.0,-5.178000450134277,0,0
2018.035996,-0.55804443359375,-0.046875,0.027618408203125,-0.8280029296875,-0.06103515625,0.30517578125,0.244140625,0.109130859375,0.0067138671875,0.9989013671875,26.0,-13.0,-39.0,101948.0,-5.178000450134277,0,0
2018.042995,-0.55804443359375,-0.046875,0.027618408203125,-0.8280029296875,-0.18310546875,0.18310546875,-0.18310546875,0.1112060546875,0.0059814453125,0.9979248046875,26.0,-13.0,-39.0,101948.0,-5.178000450134277,0,0
2018.064018,-0.55804443359375,-0.046875,0.027618408203125,-0.8280029296875,-0.244140625,0.30517578125,-0.18310546875,0.10888671875,0.0068359375,0.99951171875,26.0,-13.0,-39.0,101948.0,-5.178000450134277,0,0
2018.070998,-0.55804443359375,-0.046875,0.027587890625,-0.8280029296875,0.30517578125,0.1220703125,-0.1220703125,0.107421875,0.0079345703125,0.99853515625,26.0,-13.0,-39.0,101948.0,-5.178000450134277,0,0
2018.077997,-0.55804443359375,-0.046875,0.027618408203125,-0.8280029296875,-0.244140625,0.30517578125,-0.18310546875,0.1102294921875,0.0072021484375,0.9991455078125,26.0,-13.0,-39.0,101948.0,-5.178000450134277,0,0
2018.085018,-0.55804443359375,-0.046875,0.027618408203125,-0.8280029296875,0.244140625,0.3662109375,0.1220703125,0.1103515625,0.0069580078125,0.99853515625,26.0,-13.0,-39.0,101948.0,-5.178000450134277,0,0
2018.092001,-0.55804443359375,-0.046875,0.027618408203125,-0.8280029296875,-0.18310546875,0.30517578125,0.06103515625,0.108642578125,0.0069580078125,0.9993896484375,26.0,-13.0,-39.0,101948.0,-5.178000450134277,0,0
2018.099018,-0.55804443359375,-0.046875,0.027618408203125,-0.8280029296875,0.0,0.18310546875,-0.1220703125,0.108642578125,0.0062255859375,1.0001220703125,26.0,-13.0,-39.0,101948.0,-5.179000377655029,0,0
2018.105995,-0.557403564453125,-0.046875,0.027587890625,-0.82843017578125,-0.1220703125,0.244140625,0.18310546875,0.109375,0.0064697265625,0.99853515625,26.0,-12.0,-40.0,101948.0,-5.179000377655029,0,0
2018.112028,-0.557403564453125,-0.046875,0.027587890625,-0.82843017578125,-0.1220703125,0.244140625,0.18310546875,0.109375,0.0064697265625,0.99853515625,26.0,-12.0,-40.0,101948.0,-5.179000377655029,0,0
2018.119018,-0.557403564453125,-0.046905517578125,0.027587890625,-0.82843017578125,0.18310546875,0.30517578125,-0.06103515625,0.1094970703125,0.0047607421875,0.99951171875,26.0,-12.0,-40.0,101948.0,-5.179000377655029,0,0
2018.125996,-0.557403564453125,-0.046905517578125,0.027587890625,-0.82843017578125,0.1220703125,0.18310546875,0.06103515625,0.110595703125,0.0069580078125,0.999267578125,26.0,-12.0,-40.0,101948.0,-5.179000377655029,0,0
2018.132995,-0.557403564453125,-0.046905517578125,0.027587890625,-0.82843017578125,-0.1220703125,0.06103515625,-0.06103515625,0.109130859375,0.008056640625,0.9991455078125,26.0,-12.0,-40.0,101948.0,-5.179000377655029,0,0
2018.154018,-0.557373046875,-0.046905517578125,0.027587890625,-0.82843017578125,0.06103515625,0.42724609375,0.06103515625,0.1090087890625,0.0030517578125,1.000244140625,26.0,-12.0,-40.0,101948.0,-5.179000377655029,0,0
2018.160998,-0.557403564453125,-0.046905517578125,0.027587890625,-0.82843017578125,-0.06103515625,0.244140625,0.0,0.109130859375,0.007080078125,0.9993896484375,26.0,-12.0,-40.0,101948.0,-5.179000377655029,0,0
2018.167998,-0.557373046875,-0.046905517578125,0.027587890625,-0.82843017578125,0.0,0.30517578125,0.06103515625,0.111572265625,0.006103515625,0.9989013671875,26.0,-12.0,-40.0,101948.0,-5.179000377655029,0,0
2018.175018,-0.557373046875,-0.046905517578125,0.027587890625,-0.82843017578125,0.0,0.30517578125,-0.06103515625,0.1099853515625,0.00634765625,0.9996337890625,26.0,-12.0,-40.0,101948.0,-5.179000377655029,0,0
2018.182001,-0.557403564453125,-0.04693603515625,0.027587890625,-0.82843017578125,0.06103515625,0.30517578125,0.0,0.1097412109375,0.0076904296875,1.000244140625,26.0,-12.0,-40.0,101948.0,-5.179000377655029,0,0
2018.189019,-0.557403564453125,-0.046905517578125,0.027587890625,-0.82843017578125,0.1220703125,0.244140625,0.0,0.107421875,0.006103515625,1.0001220703125,26.0,-12.0,-40.0,101948.0,-5.179000377655029,0,0
2018.195995,-0.557403564453125,-0.046905517578125,0.027587890625,-0.82843017578125,-0.06103515625,0.3662109375,-0.06103515625,0.109619140625,0.00732421875,0.998779296875,26.0,-12.0,-40.0,101948.0,-5.179000377655029,0,0
2018.202028,-0.557403564453125,-0.046905517578125,0.027587890625,-0.82843017578125,-0.06103515625,0.3662109375,-0.06103515625,0.109619140625,0.00732421875,0.998779296875,26.0,-12.0,-40.0,101948.0,-5.179000377655029,0,0
2018.209018,-0.557403564453125,-0.046905517578125,0.027587890625,-0.82843017578125,-0.30517578125,0.42724609375,-0.06103515625,0.111328125,0.0062255859375,0.9984130859375,28.0,-13.0,-37.0,101948.0,-5.176000118255615,0,0
2018.215996,-0.557403564453125,-0.046905517578125,0.027587890625,-0.82843017578125,0.0,0.30517578125,-0.1220703125,0.10888671875,0.0074462890625,1.000732421875,28.0,-13.0,-37.0,101948.0,-5.176000118255615,0,0
2018.222995,-0.557373046875,-0.046905517578125,0.027587890625,-0.82843017578125,0.06103515625,0.54931640625,-0.1220703125,0.1104736328125,0.005859375,0.9991455078125,28.0,-13.0,-37.0,101948.0,-5.176000118255615,0,0
2018.23002,-0.557373046875,-0.046905517578125,0.027618408203125,-0.82843017578125,0.0,0.3662109375,0.0,0.1107177734375,0.0054931640625,1.001220703125,28.0,-13.0,-37.0,101948.0,-5.176000118255615,0,0
2018.237004,-0.557373046875,-0.046905517578125,0.027618408203125,-0.82843017578125,0.18310546875,0.3662109375,-0.18310546875,0.1080322265625,0.0048828125,0.9998779296875,28.0,-13.0,-37.0,101948.0,-5.176000118255615,0,0
2018.244018,-0.557373046875,-0.046905517578125,0.027618408203125,-0.82843017578125,-0.06103515625,0.0,-0.244140625,0.111083984375,0.0057373046875,0.9986572265625,28.0,-13.0,-37.0,101948.0,-5.176000118255615,0,0
2018.250998,-0.557373046875,-0.046905517578125,0.027618408203125,-0.82843017578125,-0.1220703125,0.18310546875,-0.06103515625,0.109130859375,0.0064697265625,0.9996337890625,28.0,-13.0,-37.0,101948.0,-5.176000118255615,0,0
2018.257998,-0.557373046875,-0.046905517578125,0.027618408203125,-0.82843017578125,0.1220703125,0.30517578125,0.0,0.1099853515625,0.0045166015625,0.9989013671875,28.0,-13.0,-37.0,101948.0,-5.176000118255615,0,0
2018.265018,-0.557373046875,-0.046905517578125,0.027618408203125,-0.82843017578125,-0.30517578125,0.48828125,-0.06103515625,0.1082763671875,0.0068359375,0.9979248046875,28.0,-13.0,-37.0,101948.0,-5.176000118255615,0,0
2018.272001,-0.557373046875,-0.046905517578125,0.027587890625,-0.82843017578125,0.0,0.42724609375,0.0,0.1080322265625,0.009033203125,0.998046875,28.0,-13.0,-37.0,101948.0,-5.176000118255615,0,0
2018.279018,-0.557373046875,-0.046905517578125,0.027587890625,-0.82843017578125,0.244140625,0.30517578125,0.06103515625,0.108154296875,0.0064697265625,1.001953125,28.0,-13.0,-37.0,101948.0,-5.176000118255615,0,0
2018.285996,-0.557373046875,-0.046905517578125,0.027587890625,-0.82843017578125,-0.06103515625,0.42724609375,-0.1220703125,0.109619140625,0.007568359375,0.9976806640625,28.0,-13.0,-37.0,101948.0,-5.176000118255615,0,0
2018.293,-0.557403564453125,-0.046905517578125,0.027587890625,-0.82843017578125,-0.06103515625,0.18310546875,0.0,0.107666015625,0.0081787109375,1.0025634765625,28.0,-13.0,-37.0,101948.0,-5.176000118255615,0,0
2018.299033,-0.557403564453125,-0.046905517578125,0.027587890625,-0.82843017578125,-0.06103515625,0.18310546875,0.0,0.107666015625,0.0081787109375,1.0025634765625,28.0,-13.0,-37.0,101948.0,-5.176000118255615,0,0
2018.305996,-0.556060791015625,-0.046966552734375,0.027496337890625,-0.829345703125,0.06103515625,0.18310546875,-0.1220703125,0.1083984375,0.0074462890625,0.9989013671875,27.0,-14.0,-36.0,101948.0,-5.177000045776367,0,0
2018.327004,-0.556060791015625,-0.046966552734375,0.027496337890625,-0.829345703125,-0.1220703125,0.18310546875,-0.18310546875,0.1094970703125,0.00732421875,0.999267578125,27.0,-14.0,-36.0,101948.0,-5.177000045776367,0,0
2018.334018,-0.556060791015625,-0.046966552734375,0.027496337890625,-0.829345703125,0.1220703125,0.30517578125,0.0,0.1123046875,0.007080078125,0.9993896484375,27.0,-14.0,-36.0,101948.0,-5.177000045776367,0,0
2018.340998,-0.556060791015625,-0.046966552734375,0.027496337890625,-0.829345703125,0.1220703125,0.06103515625,0.06103515625,0.1092529296875,0.00634765625,0.9986572265625,27.0,-14.0,-36.0,101948.0,-5.177000045776367,0,0
2018.347997,-0.556060791015625,-0.046966552734375,0.027496337890625,-0.829345703125,-0.06103515625,0.1220703125,0.0,0.110107421875,0.0054931640625,1.0009765625,27.0,-14.0,-36.0,101948.0,-5.177000045776367,0,0
2018.355018,-0.556060791015625,-0.046966552734375,0.027496337890625,-0.829345703125,-0.1220703125,0.244140625,0.18310546875,0.108642578125,0.006591796875,1.0010986328125,27.0,-14.0,-36.0,101948.0,-5.177000045776367,0,0
2018.362001,-0.556060791015625,-0.046966552734375,0.027496337890625,-0.829345703125,0.0,0.42724609375,-0.06103515625,0.1087646484375,0.0054931640625,0.9989013671875,27.0,-14.0,-36.0,101948.0,-5.177000045776367,0,0
2018.369018,-0.556060791015625,-0.046966552734375,0.02752685546875,-0.829345703125,-0.1220703125,0.1220703125,0.1220703125,0.107666015625,0.0048828125,0.9998779296875,27.0,-14.0,-36.0,101948.0,-5.177000045776367,0,0
2018.375995,-0.556060791015625,-0.046966552734375,0.02752685546875,-0.829345703125,-0.06103515625,0.3662109375,-0.30517578125,0.1104736328125,0.0074462890625,0.9996337890625,27.0,-14.0,-36.0,101948.0,-5.177000045776367,0,0
2018.382996,-0.556060791015625,-0.046966552734375,0.027496337890625,-0.829345703125,-0.06103515625,0.30517578125,0.1220703125,0.108642578125,0.0068359375,0.9990234375,27.0,-14.0,-36.0,101948.0,-5.177000045776367,0,0
2018.389027,-0.556060791015625,-0.046966552734375,0.027496337890625,-0.829345703125,-0.06103515625,0.30517578125,0.1220703125,0.108642578125,0.0068359375,0.9990234375,27.0,-14.0,-36.0,101948.0,-5.177000045776367,0,0
2018.395996,-0.556060791015625,-0.046966552734375,0.027496337890625,-0.829345703125,-0.1220703125,0.18310546875,0.30517578125,0.107177734375,0.0059814453125,0.9974365234375,27.0,-14.0,-36.0,101948.0,-5.178000450134277,0,0
2018.417004,-0.555389404296875,-0.046966552734375,0.0274658203125,-0.82977294921875,0.1220703125,0.18310546875,-0.1220703125,0.1077880859375,0.005126953125,1.000244140625,27.0,-13.0,-35.0,101948.0,-5.178000450134277,0,0
2018.424019,-0.555389404296875,-0.04693603515625,0.0274658203125,-0.82977294921875,0.0,0.30517578125,0.244140625,0.1077880859375,0.0081787109375,0.9998779296875,27.0,-13.0,-35.0,101948.0,-5.178000450134277,0,0
2018.430998,-0.555389404296875,-0.04693603515625,0.0274658203125,-0.82977294921875,-0.244140625,0.30517578125,-0.1220703125,0.1080322265625,0.0064697265625,0.99853515625,27.0,-13.0,-35.0,101948.0,-5.178000450134277,0,0
2018.437997,-0.555389404296875,-0.04693603515625,0.027435302734375,-0.82977294921875,-0.06103515625,0.42724609375,-0.3662109375,0.108154296875,0.0086669921875,1.0009765625,27.0,-13.0,-35.0,101948.0,-5.178000450134277,0,0
2018.445018,-0.555389404296875,-0.04693603515625,0.027435302734375,-0.82977294921875,0.0,0.1220703125,-0.18310546875,0.110107421875,0.00537109375,1.0013427734375,27.0,-13.0,-35.0,101948.0,-5.178000450134277,0,0
2018.452001,-0.555389404296875,-0.04693603515625,0.027435302734375,-0.82977294921875,-0.06103515625,0.3662109375,0.0,0.1094970703125,0.006591796875,0.999267578125,27.0,-13.0,-35.0,101948.0,-5.178000450134277,0,0
2018.459018,-0.555389404296875,-0.04693603515625,0.027435302734375,-0.82977294921875,-0.18310546875,0.30517578125,0.1220703125,0.10693359375,0.005859375,1.0008544921875,27.0,-13.0,-35.0,101948.0,-5.178000450134277,0,0
2018.465995,-0.555389404296875,-0.04693603515625,0.027435302734375,-0.82977294921875,0.18310546875,0.244140625,0.1220703125,0.108642578125,0.0047607421875,1.00048828125,27.0,-13.0,-35.0,101948.0,-5.178000450134277,0,0
2018.472995,-0.555389404296875,-0.046905517578125,0.027435302734375,-0.82977294921875,0.0,0.18310546875,0.0,0.1065673828125,0.00634765625,1.0001220703125,27.0,-13.0,-35.0,101948.0,-5.178000450134277,0,0
2018.48002,-0.555389404296875,-0.046905517578125,0.027435302734375,-0.82977294921875,0.1220703125,0.0,0.1220703125,0.109130859375,0.0064697265625,0.9981689453125,27.0,-13.0,-35.0,101948.0,-5.178000450134277,0,0
2018.486052,-0.555389404296875,-0.046905517578125,0.027435302734375,-0.82977294921875,0.1220703125,0.0,0.1220703125,0.109130859375,0.0064697265625,0.9981689453125,27.0,-13.0,-35.0,101948.0,-5.178000450134277,0,0
2018.492995,-0.555389404296875,-0.046905517578125,0.027435302734375,-0.82977294921875,0.18310546875,0.30517578125,0.0,0.1102294921875,0.0059814453125,0.999755859375,27.0,-13.0,-35.0,101948.0,-5.178000450134277,0,0
2018.500016,-0.555389404296875,-0.046905517578125,0.027435302734375,-0.82977294921875,-0.1220703125,0.18310546875,0.0,0.109619140625,0.006591796875,1.0009765625,27.0,-13.0,-35.0,101948.0,-5.179000377655029,0,0
2018.507004,-0.5540771484375,-0.046966552734375,0.027374267578125,-0.830657958984375,-0.1220703125,0.48828125,-0.1220703125,0.1083984375,0.0069580078125,0.9998779296875,27.0,-14.0,-37.0,101948.0,-5.179000377655029,0,0
2018.514018,-0.5540771484375,-0.046966552734375,0.027374267578125,-0.830657958984375,-0.1220703125,0.30517578125,-0.06103515625,0.1077880859375,0.005615234375,0.9991455078125,27.0,-14.0,-37.0,101948.0,-5.179000377655029,0,0
2018.520998,-0.5540771484375,-0.04693603515625,0.027374267578125,-0.830657958984375,0.1220703125,0.18310546875,0.244140625,0.1085205078125,0.0062255859375,1.0009765625,27.0,-14.0,-37.0,101948.0,-5.179000377655029,0,0
2018.527998,-0.5540771484375,-0.046966552734375,0.027374267578125,-0.830657958984375,0.06103515625,0.244140625,0.0,0.1114501953125,0.0067138671875,1.0003662109375,27.0,-14.0,-37.0,101948.0,-5.179000377655029,0,0
2018.535018,-0.5540771484375,-0.046966552734375,0.027374267578125,-0.830657958984375,-0.06103515625,0.30517578125,0.06103515625,0.1104736328125,0.0081787109375,0.9991455078125,27.0,-14.0,-37.0,101948.0,-5.179000377655029,0,0
2018.542001,-0.5540771484375,-0.046966552734375,0.027374267578125,-0.830657958984375,0.0,0.30517578125,-0.1220703125,0.1090087890625,0.007568359375,1.0001220703125,27.0,-14.0,-37.0,101948.0,-5.179000377655029,0,0
2018.549019,-0.5540771484375,-0.046966552734375,0.027374267578125,-0.830657958984375,0.0,0.244140625,-0.06103515625,0.108642578125,0.0059814453125,0.999755859375,27.0,-14.0,-37.0,101948.0,-5.179000377655029,0,0
2018.555996,-0.5540771484375,-0.046966552734375,0.027374267578125,-0.830657958984375,-0.30517578125,-0.06103515625,0.06103515625,0.1070556640625,0.0089111328125,1.00048828125,27.0,-14.0,-37.0,101948.0,-5.179000377655029,0,0
2018.563,-0.5540771484375,-0.046966552734375,0.02734375,-0.830657958984375,0.06103515625,0.1220703125,0.06103515625,0.1082763671875,0.0067138671875,1.00048828125,27.0,-14.0,-37.0,101948.0,-5.179000377655029,0,0
2018.57002,-0.5540771484375,-0.046966552734375,0.02734375,-0.830657958984375,-0.18310546875,0.18310546875,0.06103515625,0.11083984375,0.0078125,0.9986572265625,27.0,-14.0,-37.0,101948.0,-5.179000377655029,0,0
2018.59002,-0.5540771484375,-0.046966552734375,0.027374267578125,-0.830657958984375,-0.06103515625,0.30517578125,0.06103515625,0.1102294921875,0.007568359375,0.99853515625,27.0,-14.0,-37.0,101948.0,-5.179000377655029,0,0
2018.597004,-0.5540771484375,-0.046966552734375,0.027374267578125,-0.830657958984375,0.1220703125,0.18310546875,0.244140625,0.1102294921875,0.0074462890625,1.0010986328125,27.0,-14.0,-37.0,101948.0,-5.178000450134277,0,0
2018.604018,-0.5540771484375,-0.0469970703125,0.027374267578125,-0.830657958984375,0.18310546875,0.06103515625,0.0,0.1107177734375,0.0068359375,0.9984130859375,28.0,-13.0,-36.0,101948.0,-5.178000450134277,0,0
2018.610998,-0.5540771484375,-0.0469970703125,0.027374267578125,-0.830657958984375,0.0,0.3662109375,0.1220703125,0.1090087890625,0.0064697265625,0.998779296875,28.0,-13.0,-36.0,101948.0,-5.178000450134277,0,0
2018.617998,-0.5540771484375,-0.0469970703125,0.027374267578125,-0.830657958984375,0.06103515625,0.42724609375,0.0,0.1097412109375,0.00537109375,1.0018310546875,28.0,-13.0,-36.0,101948.0,-5.178000450134277,0,0
2018.625018,-0.5540771484375,-0.0469970703125,0.02734375,-0.830657958984375,-0.18310546875,0.18310546875,0.06103515625,0.108642578125,0.008544921875,1.0009765625,28.0,-13.0,-36.0,101948.0,-5.178000450134277,0,0
2018.632001,-0.5540771484375,-0.0469970703125,0.02734375,-0.830657958984375,0.0,0.06103515625,0.0,0.1104736328125,0.00732421875,0.9996337890625,28.0,-13.0,-36.0,101948.0,-5.178000450134277,0,0
2018.639018,-0.5540771484375,-0.0469970703125,0.027374267578125,-0.830657958984375,0.1220703125,0.06103515625,-0.06103515625,0.109375,0.0062255859375,0.9996337890625,28.0,-13.0,-36.0,101948.0,-5.178000450134277,0,0
2018.645995,-0.5540771484375,-0.0469970703125,0.027374267578125,-0.830657958984375,0.06103515625,0.3662109375,0.06103515625,0.110107421875,0.0069580078125,0.998291015625,28.0,-13.0,-36.0,101948.0,-5.178000450134277,0,0
2018.652996,-0.5540771484375,-0.047027587890625,0.02734375,-0.830657958984375,0.18310546875,0.18310546875,-0.06103515625,0.1094970703125,0.0079345703125,0.997314453125,28.0,-13.0,-36.0,101948.0,-5.178000450134277,0,0
2018.66002,-0.5540771484375,-0.0469970703125,0.02734375,-0.830657958984375,0.06103515625,0.18310546875,-0.06103515625,0.1075439453125,0.0057373046875,1.0001220703125,28.0,-13.0,-36.0,101948.0,-5.178000450134277,0,0
2018.680016,-0.5540771484375,-0.0469970703125,0.02734375,-0.830657958984375,-0.06103515625,0.42724609375,-0.1220703125,0.10791015625,0.006591796875,0.9984130859375,28.0,-13.0,-36.0,101948.0,-5.178000450134277,0,0
2018.687004,-0.5540771484375,-0.0469970703125,0.027374267578125,-0.830657958984375,-0.06103515625,0.3662109375,-0.06103515625,0.111083984375,0.0054931640625,0.99951171875,28.0,-13.0,-36.0,101948.0,-5.178000450134277,0,0
2018.694018,-0.5540771484375,-0.0469970703125,0.027374267578125,-0.830657958984375,-0.06103515625,0.1220703125,-0.06103515625,0.10888671875,0.0069580078125,0.9996337890625,28.0,-13.0,-36.0,101948.0,-5.178000450134277,0,0
2018.700998,-0.5540771484375,-0.0469970703125,0.027374267578125,-0.830657958984375,0.06103515625,0.244140625,-0.06103515625,0.1083984375,0.0069580078125,1.0010986328125,28.0,-13.0,-36.0,101948.0,-5.179000377655029,0,0
2018.707997,-0.5540771484375,-0.0469970703125,0.02734375,-0.830657958984375,0.1220703125,0.42724609375,0.244140625,0.10888671875,0.008056640625,0.9996337890625,28.0,-13.0,-36.0,101948.0,-5.179000377655029,0,0
2018.715018,-0.5540771484375,-0.0469970703125,0.027374267578125,-0.830657958984375,-0.1220703125,0.42724609375,0.06103515625,0.109619140625,0.005859375,0.999267578125,28.0,-13.0,-36.0,101948.0,-5.179000377655029,0,0
2018.722001,-0.5540771484375,-0.0469970703125,0.027374267578125,-0.830657958984375,0.3662109375,0.244140625,-0.1220703125,0.1109619140625,0.0059814453125,1.0001220703125,28.0,-13.0,-36.0,101948.0,-5.179000377655029,0,0
2018.729018,-0.5540771484375,-0.0469970703125,0.027374267578125,-0.830657958984375,0.0,0.3662109375,0.18310546875,0.10791015625,0.005859375,1.0009765625,28.0,-13.0,-36.0,101948.0,-5.179000377655029,0,0
2018.735995,-0.5540771484375,-0.0469970703125,0.027374267578125,-0.830657958984375,0.0,0.244140625,-0.06103515625,0.1109619140625,0.0050048828125,0.9993896484375,28.0,-13.0,-36.0,101948.0,-5.179000377655029,0,0
2018.742995,-0.5540771484375,-0.0469970703125,0.027374267578125,-0.830657958984375,-0.18310546875,0.30517578125,0.06103515625,0.1102294921875,0.004150390625,0.9990234375,28.0,-13.0,-36.0,101948.0,-5.179000377655029,0,0
2018.75002,-0.5540771484375,-0.046966552734375,0.027374267578125,-0.830657958984375,0.06103515625,0.1220703125,0.0,0.1087646484375,0.008056640625,1.0003662109375,28.0,-13.0,-36.0,101948.0,-5.179000377655029,0,0
2018.756999,-0.5540771484375,-0.0469970703125,0.027374267578125,-0.830657958984375,-0.18310546875,0.244140625,0.0,0.1103515625,0.00732421875,0.999267578125,28.0,-13.0,-36.0,101948.0,-5.179000377655029,0,0
