Time stamp(sec),adc1,adc2,roll_angular_rate,pitch_angular_rate,yaw_angular_rate,acc_X,acc_Y,acc_Z,mag_X,mag_Y,mag_Z,pressure,altitude
0.03374709999479819,0.372222900390625,-0.451934814453125,0.310516357421875,-0.748809814453125,0.1220703125,-0.30517578125,-0.48828125,0.4454345703125,-0.79833984375,0.399169921875,-297.0,152.0,-149.0,101700.0,-3.119000196456909,0,0
0.03381339999032207,0.372222900390625,-0.45196533203125,0.31048583984375,-0.748809814453125,0.06103515625,-0.244140625,0.06103515625,0.4493408203125,-0.7994384765625,0.3984375,-297.0,152.0,-149.0,101700.0,-3.119000196456909,0,0
0.03387539999675937,0.372406005859375,-0.4520263671875,0.31036376953125,-0.74871826171875,0.06103515625,0.06103515625,0.18310546875,0.4473876953125,-0.8028564453125,0.399169921875,-297.0,152.0,-149.0,101700.0,-3.119000196456909,0,0
0.034031799994409084,0.372406005859375,-0.4520263671875,0.31036376953125,-0.74871826171875,-0.06103515625,0.1220703125,0.30517578125,0.4466552734375,-0.8009033203125,0.4007568359375,-297.0,152.0,-149.0,101700.0,-3.119000196456909,0,0
0.03417240000271704,0.372406005859375,-0.4520263671875,0.31036376953125,-0.748748779296875,0.0,0.3662109375,0.06103515625,0.4449462890625,-0.8009033203125,0.400634765625,-297.0,152.0,-149.0,101700.0,-3.119000196456909,0,0
0.03422869999485556,0.372406005859375,-0.4520263671875,0.31036376953125,-0.748748779296875,0.18310546875,-0.1220703125,0.244140625,0.4447021484375,-0.8018798828125,0.401611328125,-297.0,152.0,-149.0,101700.0,-3.119000196456909,0,0
0.03428219999477733,0.3724365234375,-0.451995849609375,0.31036376953125,-0.748748779296875,-0.1220703125,-0.1220703125,-0.06103515625,0.444091796875,-0.8018798828125,0.4014892578125,-297.0,152.0,-149.0,101700.0,-3.119000196456909,0,0
0.03433559999393765,0.3724365234375,-0.451995849609375,0.31036376953125,-0.748748779296875,-0.18310546875,0.244140625,-0.06103515625,0.4447021484375,-0.8021240234375,0.4013671875,-297.0,152.0,-149.0,101700.0,-3.119000196456909,0,0
0.03439339999749791,0.3724365234375,-0.451995849609375,0.31036376953125,-0.748748779296875,0.06103515625,-0.18310546875,-0.30517578125,0.44384765625,-0.8004150390625,0.3990478515625,-297.0,152.0,-149.0,101700.0,-3.119000196456909,0,0
0.034447099998942576,0.3724365234375,-0.451995849609375,0.31036376953125,-0.748748779296875,0.06103515625,-0.18310546875,-0.30517578125,0.44384765625,-0.8004150390625,0.3990478515625,-297.0,152.0,-149.0,101700.0,-3.119000196456909,0,0
0.03449999999429565,0.3724365234375,-0.451995849609375,0.31036376953125,-0.748748779296875,0.244140625,0.0,-0.3662109375,0.4466552734375,-0.802001953125,0.3978271484375,-297.0,152.0,-149.0,101700.0,-3.119000196456909,0,0
0.10173029999714345,0.3724365234375,-0.451995849609375,0.31036376953125,-0.748748779296875,0.244140625,0.0,-0.3662109375,0.4466552734375,-0.802001953125,0.3978271484375,-297.0,152.0,-149.0,101700.0,-3.122000217437744,0,0
0.10179259999131318,0.3724365234375,-0.451995849609375,0.310333251953125,-0.748748779296875,0.1220703125,-0.1220703125,-0.30517578125,0.4490966796875,-0.8016357421875,0.398193359375,-297.0,152.0,-149.0,101700.0,-3.122000217437744,0,0
0.10184979999030475,0.372406005859375,-0.451995849609375,0.310333251953125,-0.748748779296875,0.0,0.0,-0.18310546875,0.4473876953125,-0.800048828125,0.3995361328125,-297.0,152.0,-149.0,101700.0,-3.122000217437744,0,0
0.1019044999993639,0.372406005859375,-0.451995849609375,0.310333251953125,-0.748748779296875,-0.1220703125,-0.06103515625,-0.1220703125,0.445556640625,-0.7989501953125,0.4007568359375,-297.0,152.0,-149.0,101700.0,-3.122000217437744,0,0
0.10195879999082536,0.372406005859375,-0.451995849609375,0.310333251953125,-0.748748779296875,0.06103515625,-0.06103515625,0.0,0.4462890625,-0.7996826171875,0.3975830078125,-297.0,152.0,-149.0,101700.0,-3.122000217437744,0,0
0.10201279999455437,0.372406005859375,-0.451995849609375,0.310333251953125,-0.748748779296875,0.30517578125,0.1220703125,0.244140625,0.447509765625,-0.801513671875,0.3985595703125,-297.0,152.0,-149.0,101700.0,-3.122000217437744,0,0
0.10295669999322854,0.372406005859375,-0.451995849609375,0.310333251953125,-0.748748779296875,-0.1220703125,0.06103515625,0.18310546875,0.447021484375,-0.80078125,0.3995361328125,-297.0,152.0,-149.0,101700.0,-3.122000217437744,0,0
0.1030109999992419,0.372406005859375,-0.451995849609375,0.310302734375,-0.748779296875,0.18310546875,-0.06103515625,0.1220703125,0.4478759765625,-0.8009033203125,0.401123046875,-297.0,152.0,-149.0,101700.0,-3.122000217437744,0,0
0.1030653999914648,0.372406005859375,-0.451995849609375,0.310302734375,-0.748779296875,0.18310546875,-0.06103515625,0.1220703125,0.4478759765625,-0.8009033203125,0.401123046875,-297.0,152.0,-149.0,101700.0,-3.122000217437744,0,0
0.10311949999595527,0.372406005859375,-0.451995849609375,0.310302734375,-0.748779296875,0.06103515625,0.06103515625,0.244140625,0.4481201171875,-0.80322265625,0.4007568359375,-297.0,152.0,-149.0,101700.0,-3.122000217437744,0,0
0.10317259999283124,0.372406005859375,-0.451995849609375,0.310302734375,-0.748779296875,0.0,0.1220703125,-0.244140625,0.4468994140625,-0.80224609375,0.400146484375,-296.0,151.0,-151.0,101700.0,-3.122000217437744,0,0
0.10323129998869263,0.372406005859375,-0.451995849609375,0.310302734375,-0.748779296875,0.54931640625,-0.244140625,-0.244140625,0.446044921875,-0.802978515625,0.3995361328125,-296.0,151.0,-151.0,101700.0,-3.122000217437744,0,0
0.10328389999631327,0.372314453125,-0.45196533203125,0.31036376953125,-0.748809814453125,0.1220703125,-0.06103515625,-0.30517578125,0.4464111328125,-0.801025390625,0.3995361328125,-296.0,151.0,-151.0,101700.0,-3.122000217437744,0,0
0.16587609999987762,0.372314453125,-0.451934814453125,0.31036376953125,-0.74884033203125,0.244140625,-0.244140625,-0.30517578125,0.445556640625,-0.801513671875,0.4007568359375,-296.0,151.0,-151.0,101700.0,-3.122000217437744,0,0
0.1659382999932859,0.372314453125,-0.451934814453125,0.31036376953125,-0.74884033203125,-0.06103515625,-0.06103515625,-0.244140625,0.4476318359375,-0.8001708984375,0.3992919921875,-296.0,151.0,-151.0,101700.0,-3.122000217437744,0,0
0.16599480000149924,0.372314453125,-0.451934814453125,0.31036376953125,-0.74884033203125,0.18310546875,-0.1220703125,-0.06103515625,0.4453125,-0.8026123046875,0.39990234375,-296.0,151.0,-151.0,101700.0,-3.122000217437744,0,0
0.16604959999676794,0.372314453125,-0.451934814453125,0.31036376953125,-0.74884033203125,0.18310546875,-0.1220703125,-0.06103515625,0.4453125,-0.8026123046875,0.39990234375,-296.0,151.0,-151.0,101700.0,-3.122000217437744,0,0
0.16610399998899084,0.372314453125,-0.451934814453125,0.31036376953125,-0.74884033203125,-0.244140625,-0.244140625,0.06103515625,0.44580078125,-0.8009033203125,0.3995361328125,-296.0,151.0,-151.0,101700.0,-3.122000217437744,0,0
0.16617339999356773,0.372314453125,-0.451934814453125,0.31036376953125,-0.74884033203125,0.18310546875,0.18310546875,0.1220703125,0.443359375,-0.8017578125,0.398193359375,-296.0,151.0,-151.0,101700.0,-3.122000217437744,0,0
0.166227900001104,0.372314453125,-0.451934814453125,0.31036376953125,-0.74884033203125,0.0,0.1220703125,0.06103515625,0.4451904296875,-0.80078125,0.40234375,-296.0,151.0,-151.0,101700.0,-3.121000051498413,0,0
0.16627950000111014,0.372314453125,-0.451904296875,0.31036376953125,-0.74884033203125,0.244140625,0.1220703125,0.0,0.445068359375,-0.80126953125,0.400634765625,-296.0,151.0,-151.0,101700.0,-3.121000051498413,0,0
0.1663325999979861,0.372344970703125,-0.451904296875,0.310333251953125,-0.74884033203125,-0.48828125,-0.1220703125,-0.06103515625,0.445556640625,-0.8018798828125,0.40283203125,-296.0,151.0,-151.0,101700.0,-3.121000051498413,0,0
0.16638480000256095,0.372344970703125,-0.451904296875,0.310333251953125,-0.74884033203125,0.06103515625,-0.1220703125,-0.30517578125,0.4453125,-0.8011474609375,0.398681640625,-296.0,151.0,-151.0,101700.0,-3.121000051498413,0,0
0.16643669999029953,0.372344970703125,-0.451904296875,0.310333251953125,-0.74884033203125,0.244140625,-0.06103515625,-0.3662109375,0.446044921875,-0.8011474609375,0.3995361328125,-296.0,151.0,-151.0,101700.0,-3.121000051498413,0,0
0.16649079999479,0.372344970703125,-0.451904296875,0.310333251953125,-0.748870849609375,-0.244140625,-0.1220703125,-0.06103515625,0.4425048828125,-0.80078125,0.39990234375,-296.0,151.0,-151.0,101700.0,-3.121000051498413,0,0
0.2239765999984229,0.372344970703125,-0.451904296875,0.310333251953125,-0.748870849609375,-0.244140625,-0.18310546875,-0.1220703125,0.4471435546875,-0.801513671875,0.399658203125,-296.0,151.0,-151.0,101700.0,-3.121000051498413,0,0
0.22404970000206959,0.372344970703125,-0.451873779296875,0.310333251953125,-0.748870849609375,0.244140625,-0.1220703125,-0.1220703125,0.44677734375,-0.7999267578125,0.4017333984375,-296.0,151.0,-151.0,101700.0,-3.121000051498413,0,0
0.22410859999945387,0.372344970703125,-0.451873779296875,0.310302734375,-0.748870849609375,0.0,-0.3662109375,-0.06103515625,0.4434814453125,-0.7994384765625,0.39892578125,-296.0,151.0,-151.0,101700.0,-3.121000051498413,0,0
0.22416709999379236,0.372344970703125,-0.451873779296875,0.310302734375,-0.748870849609375,0.30517578125,0.18310546875,0.06103515625,0.446533203125,-0.798583984375,0.3983154296875,-296.0,152.0,-151.0,101700.0,-3.121000051498413,0,0
0.22422399999049958,0.372222900390625,-0.45184326171875,0.31036376953125,-0.748931884765625,0.30517578125,0.18310546875,0.06103515625,0.446533203125,-0.798583984375,0.3983154296875,-296.0,152.0,-151.0,101700.0,-3.121000051498413,0,0
0.22435389999009203,0.372222900390625,-0.45184326171875,0.31036376953125,-0.748931884765625,0.18310546875,0.0,0.06103515625,0.446533203125,-0.8004150390625,0.400634765625,-296.0,152.0,-151.0,101700.0,-3.121000051498413,0,0
0.22441699999035336,0.372222900390625,-0.45184326171875,0.31036376953125,-0.748931884765625,0.0,0.0,0.30517578125,0.448486328125,-0.802001953125,0.4007568359375,-296.0,152.0,-151.0,101700.0,-3.121000051498413,0,0
0.22447419998934492,0.372222900390625,-0.45184326171875,0.31036376953125,-0.748931884765625,0.48828125,0.244140625,0.3662109375,0.443603515625,-0.802001953125,0.3985595703125,-296.0,152.0,-151.0,101700.0,-3.121000051498413,0,0
0.22453179999138229,0.372222900390625,-0.45184326171875,0.31036376953125,-0.748931884765625,0.48828125,0.244140625,0.3662109375,0.443603515625,-0.802001953125,0.3985595703125,-296.0,152.0,-151.0,101700.0,-3.121000051498413,0,0
0.2245888999896124,0.372222900390625,-0.45184326171875,0.31036376953125,-0.748931884765625,0.06103515625,0.06103515625,0.06103515625,0.4488525390625,-0.8045654296875,0.4012451171875,-296.0,152.0,-151.0,101700.0,-3.121000051498413,0,0
0.22464729999774136,0.372222900390625,-0.45184326171875,0.31036376953125,-0.748931884765625,-0.06103515625,0.06103515625,-0.1220703125,0.446044921875,-0.8038330078125,0.39990234375,-296.0,152.0,-151.0,101700.0,-3.121000051498413,0,0
0.2940321999922162,0.372222900390625,-0.451812744140625,0.31036376953125,-0.748931884765625,0.18310546875,-0.06103515625,0.0,0.445556640625,-0.8017578125,0.400634765625,-296.0,152.0,-151.0,101700.0,-3.121000051498413,0,0
0.2940987999900244,0.372222900390625,-0.451812744140625,0.31036376953125,-0.748931884765625,0.244140625,-0.18310546875,-0.18310546875,0.4459228515625,-0.80078125,0.3990478515625,-296.0,152.0,-151.0,101700.0,-3.121000051498413,0,0
0.2941614000010304,0.372222900390625,-0.451812744140625,0.31036376953125,-0.748931884765625,-0.244140625,0.0,-0.3662109375,0.445556640625,-0.80029296875,0.398681640625,-296.0,152.0,-151.0,101700.0,-3.124000072479248,0,0
0.294218600000022,0.372222900390625,-0.451812744140625,0.31036376953125,-0.748931884765625,0.1220703125,-0.18310546875,-0.3662109375,0.4473876953125,-0.80029296875,0.398681640625,-296.0,152.0,-151.0,101700.0,-3.124000072479248,0,0
0.29427499999292195,0.372222900390625,-0.451812744140625,0.310333251953125,-0.74896240234375,0.244140625,-0.30517578125,-0.3662109375,0.4471435546875,-0.8004150390625,0.4005126953125,-296.0,152.0,-151.0,101700.0,-3.124000072479248,0,0
0.29433309999876656,0.372222900390625,-0.451812744140625,0.310333251953125,-0.74896240234375,0.0,0.244140625,0.1220703125,0.4483642578125,-0.8040771484375,0.40185546875,-296.0,152.0,-151.0,101700.0,-3.124000072479248,0,0
0.29492000000027474,0.372222900390625,-0.451812744140625,0.310333251953125,-0.74896240234375,0.1220703125,0.0,0.244140625,0.44970703125,-0.80712890625,0.401611328125,-296.0,152.0,-151.0,101700.0,-3.124000072479248,0,0
0.2950132999976631,0.372222900390625,-0.451812744140625,0.310333251953125,-0.74896240234375,0.1220703125,0.0,0.244140625,0.44970703125,-0.80712890625,0.401611328125,-296.0,152.0,-151.0,101700.0,-3.124000072479248,0,0
0.2950985999923432,0.37225341796875,-0.451812744140625,0.31036376953125,-0.74896240234375,-0.18310546875,-0.06103515625,-0.67138671875,0.4432373046875,-0.79931640625,0.3963623046875,-296.0,152.0,-151.0,101700.0,-3.124000072479248,0,0
0.29515839999658056,0.37225341796875,-0.451812744140625,0.31036376953125,-0.74896240234375,0.18310546875,-0.30517578125,-0.54931640625,0.44482421875,-0.79833984375,0.397216796875,-296.0,152.0,-151.0,101700.0,-3.124000072479248,0,0
0.29521419999946374,0.37225341796875,-0.451812744140625,0.310333251953125,-0.74896240234375,0.06103515625,-0.06103515625,-0.48828125,0.44677734375,-0.7979736328125,0.4002685546875,-296.0,152.0,-151.0,101700.0,-3.124000072479248,0,0
0.29527479999524076,0.372222900390625,-0.451812744140625,0.310333251953125,-0.74896240234375,0.0,-0.06103515625,-0.30517578125,0.4471435546875,-0.799560546875,0.398681640625,-296.0,152.0,-151.0,101700.0,-3.124000072479248,0,0
0.29533059999812394,0.372222900390625,-0.451812744140625,0.310333251953125,-0.74896240234375,0.0,-0.06103515625,-0.30517578125,0.4471435546875,-0.799560546875,0.398681640625,-296.0,152.0,-151.0,101700.0,-3.124000072479248,0,0
0.3605329999991227,0.372222900390625,-0.451812744140625,0.310302734375,-0.74896240234375,-0.3662109375,0.06103515625,0.18310546875,0.447509765625,-0.803466796875,0.4022216796875,-296.0,152.0,-151.0,101700.0,-3.124000072479248,0,0
0.3605949999910081,0.372222900390625,-0.451812744140625,0.310302734375,-0.74896240234375,-0.3662109375,0.06103515625,0.18310546875,0.447509765625,-0.803466796875,0.4022216796875,-296.0,152.0,-151.0,101700.0,-3.124000072479248,0,0
0.360650299990084,0.372222900390625,-0.451812744140625,0.310302734375,-0.74896240234375,0.06103515625,0.0,0.3662109375,0.447265625,-0.8023681640625,0.401611328125,-296.0,152.0,-151.0,101700.0,-3.124000072479248,0,0
0.360703199999989,0.372222900390625,-0.451812744140625,0.310302734375,-0.74896240234375,-0.06103515625,0.0,0.06103515625,0.4454345703125,-0.80078125,0.400634765625,-296.0,152.0,-151.0,101700.0,-3.124000072479248,0,0
0.36075789999449626,0.372222900390625,-0.451812744140625,0.310302734375,-0.74896240234375,-0.18310546875,-0.1220703125,-0.1220703125,0.44580078125,-0.8017578125,0.400146484375,-296.0,152.0,-151.0,101700.0,-3.124000072479248,0,0
0.3608283999928972,0.372222900390625,-0.451812744140625,0.310302734375,-0.748992919921875,-0.244140625,-0.1220703125,-0.18310546875,0.44482421875,-0.8004150390625,0.399658203125,-296.0,152.0,-151.0,101700.0,-3.124000072479248,0,0
0.3608812000020407,0.37225341796875,-0.4517822265625,0.310302734375,-0.748992919921875,0.30517578125,0.06103515625,-0.244140625,0.4447021484375,-0.8009033203125,0.400390625,-296.0,152.0,-151.0,101700.0,-3.124000072479248,0,0
0.3609345000004396,0.37225341796875,-0.4517822265625,0.310302734375,-0.748992919921875,0.54931640625,-0.06103515625,-0.244140625,0.4451904296875,-0.8028564453125,0.399169921875,-296.0,152.0,-151.0,101700.0,-3.120000123977661,0,0
0.360987699998077,0.37225341796875,-0.4517822265625,0.310302734375,-0.748992919921875,0.244140625,-0.244140625,-0.1220703125,0.4459228515625,-0.8023681640625,0.4014892578125,-296.0,152.0,-151.0,101700.0,-3.120000123977661,0,0
0.3610415000002831,0.37225341796875,-0.4517822265625,0.310302734375,-0.748992919921875,0.3662109375,0.0,-0.244140625,0.443359375,-0.802490234375,0.4034423828125,-296.0,152.0,-151.0,101700.0,-3.120000123977661,0,0
0.3610962999955518,0.37225341796875,-0.4517822265625,0.310302734375,-0.748992919921875,-0.1220703125,-0.06103515625,-0.06103515625,0.4449462890625,-0.80224609375,0.4024658203125,-296.0,152.0,-151.0,101700.0,-3.120000123977661,0,0
0.42239739999058656,0.37225341796875,-0.451751708984375,0.310302734375,-0.748992919921875,-0.18310546875,-0.06103515625,0.06103515625,0.4462890625,-0.8013916015625,0.4005126953125,-296.0,152.0,-151.0,101700.0,-3.120000123977661,0,0
0.4224580000009155,0.37225341796875,-0.451751708984375,0.310302734375,-0.748992919921875,0.0,-0.18310546875,0.0,0.4439697265625,-0.8013916015625,0.399169921875,-296.0,152.0,-151.0,101700.0,-3.120000123977661,0,0
0.4225134000007529,0.37225341796875,-0.451751708984375,0.310302734375,-0.748992919921875,0.1220703125,0.06103515625,0.1220703125,0.4468994140625,-0.802001953125,0.4000244140625,-296.0,152.0,-151.0,101700.0,-3.120000123977661,0,0
0.42256569999153726,0.37225341796875,-0.451751708984375,0.310302734375,-0.748992919921875,0.0,0.244140625,0.0,0.4453125,-0.802734375,0.3994140625,-296.0,152.0,-151.0,101700.0,-3.120000123977661,0,0
0.42261839999991935,0.37225341796875,-0.451751708984375,0.310302734375,-0.748992919921875,0.18310546875,0.0,0.18310546875,0.4444580078125,-0.800537109375,0.39990234375,-296.0,152.0,-151.0,101700.0,-3.120000123977661,0,0
0.4227449999889359,0.37237548828125,-0.4517822265625,0.31024169921875,-0.74896240234375,0.18310546875,0.0,0.18310546875,0.4444580078125,-0.800537109375,0.39990234375,-295.0,152.0,-150.0,101700.0,-3.120000123977661,0,0
0.42280010000104085,0.37237548828125,-0.4517822265625,0.31024169921875,-0.74896240234375,-0.06103515625,-0.06103515625,-0.06103515625,0.4466552734375,-0.8017578125,0.40087890625,-295.0,152.0,-150.0,101700.0,-3.120000123977661,0,0
0.4228533999994397,0.37237548828125,-0.4517822265625,0.31024169921875,-0.74896240234375,-0.06103515625,-0.06103515625,-0.06103515625,0.4466552734375,-0.8017578125,0.40087890625,-295.0,152.0,-150.0,101700.0,-3.120000123977661,0,0
0.4229062999947928,0.37237548828125,-0.4517822265625,0.31024169921875,-0.74896240234375,0.06103515625,-0.244140625,0.0,0.44775390625,-0.8028564453125,0.3997802734375,-295.0,152.0,-150.0,101700.0,-3.120000123977661,0,0
0.422959899995476,0.37237548828125,-0.4517822265625,0.31024169921875,-0.74896240234375,0.18310546875,-0.18310546875,0.1220703125,0.4442138671875,-0.80126953125,0.39990234375,-295.0,152.0,-150.0,101700.0,-3.120000123977661,0,0
0.4230125999893062,0.37237548828125,-0.4517822265625,0.31024169921875,-0.74896240234375,0.244140625,0.1220703125,-0.18310546875,0.44775390625,-0.801025390625,0.402099609375,-295.0,152.0,-150.0,101700.0,-3.120000123977661,0,0
0.4892058999976143,0.37237548828125,-0.4517822265625,0.310211181640625,-0.74896240234375,0.06103515625,-0.18310546875,-0.1220703125,0.44580078125,-0.80078125,0.401611328125,-295.0,152.0,-150.0,101700.0,-3.120000123977661,0,0
0.48927269999694545,0.37237548828125,-0.4517822265625,0.310211181640625,-0.74896240234375,0.0,-0.1220703125,0.18310546875,0.4456787109375,-0.8011474609375,0.4002685546875,-295.0,152.0,-150.0,101700.0,-3.120000123977661,0,0
0.48932939999212977,0.37237548828125,-0.4517822265625,0.310211181640625,-0.74896240234375,-0.1220703125,-0.1220703125,0.3662109375,0.4449462890625,-0.801513671875,0.4027099609375,-295.0,152.0,-150.0,101700.0,-3.120000123977661,0,0
0.48938439998892136,0.37237548828125,-0.451751708984375,0.310211181640625,-0.74896240234375,0.06103515625,0.1220703125,0.1220703125,0.44580078125,-0.800048828125,0.402099609375,-295.0,152.0,-150.0,101700.0,-3.120000123977661,0,0
0.4894397000025492,0.37237548828125,-0.451751708984375,0.310211181640625,-0.74896240234375,0.06103515625,0.1220703125,0.1220703125,0.44580078125,-0.800048828125,0.402099609375,-295.0,152.0,-150.0,101700.0,-3.123000144958496,0,0
0.4894960999954492,0.37237548828125,-0.451751708984375,0.310211181640625,-0.74896240234375,0.18310546875,-0.1220703125,-0.244140625,0.4443359375,-0.7998046875,0.3992919921875,-295.0,152.0,-150.0,101700.0,-3.123000144958496,0,0
0.4895669999968959,0.37237548828125,-0.451751708984375,0.310211181640625,-0.74896240234375,0.18310546875,-0.1220703125,-0.244140625,0.4443359375,-0.7998046875,0.3992919921875,-295.0,152.0,-150.0,101700.0,-3.123000144958496,0,0
0.48962089999986347,0.37237548828125,-0.451751708984375,0.310211181640625,-0.74896240234375,-0.244140625,0.0,0.0,0.4427490234375,-0.8017578125,0.3990478515625,-295.0,152.0,-150.0,101700.0,-3.123000144958496,0,0
0.4896736999944551,0.37237548828125,-0.451751708984375,0.310211181640625,-0.74896240234375,-0.18310546875,-0.18310546875,-0.1220703125,0.4423828125,-0.800537109375,0.401123046875,-295.0,152.0,-150.0,101700.0,-3.123000144958496,0,0
0.4897270999936154,0.37237548828125,-0.451751708984375,0.310211181640625,-0.748992919921875,0.1220703125,0.0,-0.18310546875,0.4454345703125,-0.8004150390625,0.39892578125,-295.0,152.0,-150.0,101700.0,-3.123000144958496,0,0
0.4897801999904914,0.37237548828125,-0.45172119140625,0.310211181640625,-0.748992919921875,-0.18310546875,-0.06103515625,-0.06103515625,0.445068359375,-0.80126953125,0.400634765625,-295.0,152.0,-150.0,101700.0,-3.123000144958496,0,0
0.4898354999895673,0.372406005859375,-0.45172119140625,0.310211181640625,-0.748992919921875,0.1220703125,0.0,0.0,0.4459228515625,-0.8028564453125,0.4017333984375,-295.0,152.0,-150.0,101700.0,-3.123000144958496,0,0
0.48988809999718796,0.372406005859375,-0.45172119140625,0.310211181640625,-0.748992919921875,0.1220703125,-0.18310546875,0.06103515625,0.443115234375,-0.8013916015625,0.401123046875,-295.0,152.0,-150.0,101700.0,-3.123000144958496,0,0
0.5461376999883214,0.372406005859375,-0.45172119140625,0.310211181640625,-0.748992919921875,0.1220703125,0.1220703125,0.0,0.4453125,-0.800048828125,0.400634765625,-295.0,152.0,-150.0,101700.0,-3.123000144958496,0,0
0.5461988000024576,0.37249755859375,-0.451751708984375,0.310150146484375,-0.748931884765625,0.18310546875,0.18310546875,0.06103515625,0.445556640625,-0.8026123046875,0.401611328125,-295.0,152.0,-150.0,101700.0,-3.123000144958496,0,0
0.5462688999978127,0.37249755859375,-0.451751708984375,0.310150146484375,-0.748931884765625,-0.1220703125,-0.18310546875,-0.06103515625,0.447509765625,-0.803466796875,0.40087890625,-295.0,152.0,-150.0,101700.0,-3.123000144958496,0,0
0.5463381000008667,0.37249755859375,-0.451751708984375,0.310150146484375,-0.748931884765625,0.06103515625,-0.06103515625,0.06103515625,0.4466552734375,-0.800537109375,0.4012451171875,-295.0,152.0,-150.0,101700.0,-3.123000144958496,0,0
0.5463916000007885,0.37249755859375,-0.451751708984375,0.310150146484375,-0.748931884765625,0.18310546875,-0.06103515625,-0.1220703125,0.4462890625,-0.8048095703125,0.3997802734375,-295.0,152.0,-150.0,101700.0,-3.123000144958496,0,0
0.5465260999917518,0.37249755859375,-0.451751708984375,0.310150146484375,-0.748931884765625,0.244140625,-0.06103515625,0.06103515625,0.44384765625,-0.802734375,0.4019775390625,-295.0,152.0,-150.0,101700.0,-3.123000144958496,0,0
0.5466027999937069,0.37249755859375,-0.451751708984375,0.310150146484375,-0.748931884765625,0.1220703125,-0.06103515625,-0.06103515625,0.445068359375,-0.801513671875,0.401123046875,-295.0,152.0,-150.0,101700.0,-3.123000144958496,0,0
0.5467124999995576,0.37249755859375,-0.45172119140625,0.310150146484375,-0.74896240234375,0.30517578125,0.06103515625,-0.18310546875,0.445556640625,-0.802490234375,0.4012451171875,-295.0,152.0,-150.0,101700.0,-3.123000144958496,0,0
0.5467708999931347,0.37249755859375,-0.45172119140625,0.310150146484375,-0.74896240234375,0.18310546875,-0.1220703125,-0.06103515625,0.446044921875,-0.8017578125,0.4014892578125,-295.0,152.0,-150.0,101700.0,-3.122000217437744,0,0
0.5468258999899263,0.37249755859375,-0.45172119140625,0.310150146484375,-0.74896240234375,0.1220703125,0.0,-0.3662109375,0.4453125,-0.8021240234375,0.39990234375,-295.0,152.0,-150.0,101700.0,-3.122000217437744,0,0
0.5471767999988515,0.37249755859375,-0.45172119140625,0.310150146484375,-0.74896240234375,0.1220703125,0.0,-0.3662109375,0.4453125,-0.8021240234375,0.39990234375,-295.0,152.0,-150.0,101700.0,-3.122000217437744,0,0
0.6110825999930967,0.37249755859375,-0.451751708984375,0.310150146484375,-0.748931884765625,-0.244140625,0.06103515625,0.0,0.4471435546875,-0.80078125,0.399169921875,-295.0,152.0,-150.0,101700.0,-3.122000217437744,0,0
0.6111514999938663,0.37249755859375,-0.451751708984375,0.310150146484375,-0.74896240234375,-0.1220703125,0.06103515625,0.1220703125,0.4462890625,-0.79931640625,0.39892578125,-295.0,152.0,-150.0,101700.0,-3.122000217437744,0,0
0.6112125999934506,0.37249755859375,-0.451751708984375,0.310150146484375,-0.748931884765625,0.18310546875,0.0,0.18310546875,0.4462890625,-0.8031005859375,0.3975830078125,-295.0,152.0,-150.0,101700.0,-3.122000217437744,0,0
0.6112729000014951,0.37249755859375,-0.451751708984375,0.310150146484375,-0.748931884765625,0.06103515625,0.0,0.06103515625,0.447021484375,-0.8018798828125,0.400634765625,-295.0,152.0,-150.0,101700.0,-3.122000217437744,0,0
0.6113306999905035,0.37249755859375,-0.451751708984375,0.310150146484375,-0.748931884765625,0.244140625,0.06103515625,0.30517578125,0.4451904296875,-0.8017578125,0.3985595703125,-295.0,152.0,-150.0,101700.0,-3.122000217437744,0,0
0.611603199999081,0.37249755859375,-0.451751708984375,0.310150146484375,-0.748931884765625,-0.06103515625,0.3662109375,0.18310546875,0.4451904296875,-0.8011474609375,0.3997802734375,-295.0,152.0,-150.0,101700.0,-3.122000217437744,0,0
0.6116714999952819,0.37249755859375,-0.451751708984375,0.310150146484375,-0.748931884765625,-0.06103515625,0.3662109375,0.18310546875,0.4451904296875,-0.8011474609375,0.3997802734375,-295.0,152.0,-150.0,101700.0,-3.122000217437744,0,0
0.6117302999919048,0.372711181640625,-0.451812744140625,0.310028076171875,-0.74884033203125,-0.1220703125,0.1220703125,0.18310546875,0.4429931640625,-0.80126953125,0.3992919921875,-296.0,153.0,-149.0,101700.0,-3.122000217437744,0,0
0.6117861999955494,0.372711181640625,-0.451812744140625,0.310028076171875,-0.74884033203125,-0.06103515625,-0.06103515625,-0.1220703125,0.4443359375,-0.8001708984375,0.4000244140625,-296.0,153.0,-149.0,101700.0,-3.122000217437744,0,0
0.612458699994022,0.372711181640625,-0.451812744140625,0.310028076171875,-0.74884033203125,-0.06103515625,-0.06103515625,-0.30517578125,0.4439697265625,-0.80078125,0.4017333984375,-296.0,153.0,-149.0,101700.0,-3.122000217437744,0,0
0.6125209000019822,0.372711181640625,-0.451812744140625,0.310028076171875,-0.74884033203125,-0.06103515625,0.0,-0.3662109375,0.4466552734375,-0.7982177734375,0.398193359375,-296.0,153.0,-149.0,101700.0,-3.122000217437744,0,0
0.6768745000008494,0.372711181640625,-0.451812744140625,0.310028076171875,-0.74884033203125,0.1220703125,-0.18310546875,-0.06103515625,0.4464111328125,-0.7996826171875,0.399658203125,-296.0,153.0,-149.0,101700.0,-3.122000217437744,0,0
0.6769445999962045,0.372711181640625,-0.451812744140625,0.310028076171875,-0.74884033203125,0.30517578125,-0.06103515625,0.0,0.44775390625,-0.802001953125,0.3980712890625,-296.0,153.0,-149.0,101700.0,-3.122000217437744,0,0
0.677003999997396,0.372711181640625,-0.451812744140625,0.310028076171875,-0.74884033203125,0.1220703125,0.0,0.244140625,0.44580078125,-0.8017578125,0.39892578125,-296.0,153.0,-149.0,101700.0,-3.122000217437744,0,0
0.6770623999909731,0.372711181640625,-0.451812744140625,0.310028076171875,-0.74884033203125,0.1220703125,0.0,0.244140625,0.4464111328125,-0.8031005859375,0.3997802734375,-296.0,153.0,-149.0,101700.0,-3.122000217437744,0,0
0.6771216999914031,0.372711181640625,-0.451812744140625,0.310028076171875,-0.74884033203125,0.06103515625,0.0,0.1220703125,0.445556640625,-0.80126953125,0.3995361328125,-296.0,153.0,-149.0,101700.0,-3.122000217437744,0,0
0.6771805999887874,0.372711181640625,-0.451812744140625,0.310028076171875,-0.74884033203125,0.06103515625,0.0,0.1220703125,0.445556640625,-0.80126953125,0.3995361328125,-296.0,153.0,-149.0,101700.0,-3.122000217437744,0,0
0.6772375000000466,0.372711181640625,-0.451812744140625,0.310028076171875,-0.74884033203125,-0.06103515625,-0.18310546875,-0.06103515625,0.445068359375,-0.80322265625,0.3995361328125,-296.0,153.0,-149.0,101700.0,-3.124000072479248,0,0
0.6773108999914257,0.372711181640625,-0.451812744140625,0.310028076171875,-0.74884033203125,0.1220703125,0.0,-0.06103515625,0.445068359375,-0.8018798828125,0.400390625,-296.0,153.0,-149.0,101700.0,-3.124000072479248,0,0
0.6773763999954099,0.372711181640625,-0.451812744140625,0.310028076171875,-0.74884033203125,0.18310546875,0.0,-0.1220703125,0.4437255859375,-0.801025390625,0.3990478515625,-296.0,153.0,-149.0,101700.0,-3.124000072479248,0,0
0.6774335999944014,0.372711181640625,-0.451812744140625,0.310028076171875,-0.74884033203125,0.06103515625,0.1220703125,0.06103515625,0.445556640625,-0.801513671875,0.39990234375,-296.0,153.0,-149.0,101700.0,-3.124000072479248,0,0
0.6774895999988075,0.372711181640625,-0.451812744140625,0.310028076171875,-0.74884033203125,0.30517578125,-0.1220703125,-0.30517578125,0.446533203125,-0.80126953125,0.399658203125,-296.0,153.0,-149.0,101700.0,-3.124000072479248,0,0
0.6788993999944068,0.372711181640625,-0.451812744140625,0.310028076171875,-0.74884033203125,0.0,-0.244140625,-0.18310546875,0.4471435546875,-0.8021240234375,0.39990234375,-296.0,153.0,-149.0,101700.0,-3.124000072479248,0,0
0.678986500002793,0.372711181640625,-0.451812744140625,0.310028076171875,-0.74884033203125,0.1220703125,-0.18310546875,0.06103515625,0.4462890625,-0.8004150390625,0.398681640625,-296.0,153.0,-149.0,101700.0,-3.124000072479248,0,0
0.7406914999883156,0.372711181640625,-0.451812744140625,0.310028076171875,-0.74884033203125,-0.18310546875,-0.1220703125,-0.1220703125,0.446533203125,-0.8011474609375,0.3994140625,-296.0,153.0,-149.0,101700.0,-3.124000072479248,0,0
0.7407556999969529,0.372711181640625,-0.451812744140625,0.310028076171875,-0.74884033203125,0.18310546875,0.0,-0.244140625,0.4473876953125,-0.802734375,0.400390625,-295.0,152.0,-149.0,101700.0,-3.124000072479248,0,0
0.74081920000026,0.372802734375,-0.451873779296875,0.309967041015625,-0.748809814453125,0.30517578125,-0.1220703125,0.0,0.445556640625,-0.80224609375,0.399169921875,-295.0,152.0,-149.0,101700.0,-3.124000072479248,0,0
0.74087559999316,0.372802734375,-0.451873779296875,0.309967041015625,-0.748809814453125,0.0,-0.1220703125,-0.06103515625,0.4451904296875,-0.80126953125,0.3995361328125,-295.0,152.0,-149.0,101700.0,-3.124000072479248,0,0
0.7409325999906287,0.372802734375,-0.451873779296875,0.309967041015625,-0.748809814453125,0.0,0.06103515625,-0.18310546875,0.444091796875,-0.8028564453125,0.398681640625,-295.0,152.0,-149.0,101700.0,-3.124000072479248,0,0
0.7427047999954084,0.372802734375,-0.451873779296875,0.309967041015625,-0.748779296875,-0.18310546875,-0.06103515625,-0.18310546875,0.4451904296875,-0.8011474609375,0.3985595703125,-295.0,152.0,-149.0,101700.0,-3.124000072479248,0,0
0.7427705000009155,0.372802734375,-0.451873779296875,0.309967041015625,-0.748779296875,0.18310546875,-0.18310546875,-0.06103515625,0.4481201171875,-0.8038330078125,0.3994140625,-295.0,152.0,-149.0,101700.0,-3.124000072479248,0,0
0.7428298000013456,0.372802734375,-0.451873779296875,0.309967041015625,-0.748779296875,0.06103515625,-0.1220703125,-0.18310546875,0.4464111328125,-0.80322265625,0.400390625,-295.0,152.0,-149.0,101700.0,-3.124000072479248,0,0
0.7428867999988142,0.372802734375,-0.451873779296875,0.309967041015625,-0.748779296875,0.06103515625,-0.1220703125,-0.18310546875,0.4464111328125,-0.80322265625,0.400390625,-295.0,152.0,-149.0,101700.0,-3.124000072479248,0,0
0.7429478999983985,0.372802734375,-0.451873779296875,0.309967041015625,-0.748779296875,0.0,0.06103515625,-0.1220703125,0.44384765625,-0.8009033203125,0.400634765625,-295.0,152.0,-149.0,101700.0,-3.124000072479248,0,0
0.743004199990537,0.372802734375,-0.451873779296875,0.309967041015625,-0.748809814453125,-0.1220703125,-0.244140625,-0.18310546875,0.445556640625,-0.8001708984375,0.39892578125,-295.0,152.0,-149.0,101700.0,-3.121000051498413,0,0
0.8017970999935642,0.372802734375,-0.451873779296875,0.309967041015625,-0.748779296875,0.0,0.06103515625,0.06103515625,0.4501953125,-0.802490234375,0.3995361328125,-295.0,152.0,-149.0,101700.0,-3.121000051498413,0,0
0.8018712999910349,0.372802734375,-0.451873779296875,0.309967041015625,-0.748809814453125,-0.18310546875,0.06103515625,0.0,0.4454345703125,-0.801025390625,0.400146484375,-295.0,152.0,-149.0,101700.0,-3.121000051498413,0,0
0.8019309999945108,0.372802734375,-0.451873779296875,0.309967041015625,-0.748809814453125,-0.1220703125,0.244140625,-0.18310546875,0.4468994140625,-0.801025390625,0.4014892578125,-295.0,152.0,-149.0,101700.0,-3.121000051498413,0,0
0.8019919999933336,0.372802734375,-0.451873779296875,0.309967041015625,-0.748809814453125,-0.1220703125,-0.1220703125,0.0,0.4444580078125,-0.7996826171875,0.4000244140625,-295.0,152.0,-149.0,101700.0,-3.121000051498413,0,0
0.8020493999938481,0.372802734375,-0.451873779296875,0.309967041015625,-0.748809814453125,-0.18310546875,0.0,-0.1220703125,0.4454345703125,-0.8009033203125,0.3992919921875,-295.0,152.0,-149.0,101700.0,-3.121000051498413,0,0
0.8044888000003994,0.372802734375,-0.451873779296875,0.309967041015625,-0.748809814453125,-0.18310546875,0.0,-0.1220703125,0.4454345703125,-0.8009033203125,0.3992919921875,-295.0,152.0,-149.0,101700.0,-3.121000051498413,0,0
0.8045508999930462,0.372802734375,-0.451873779296875,0.309967041015625,-0.748809814453125,0.18310546875,-0.244140625,-0.18310546875,0.4456787109375,-0.8037109375,0.4010009765625,-295.0,152.0,-149.0,101700.0,-3.121000051498413,0,0
0.8046092000004137,0.372802734375,-0.451873779296875,0.309967041015625,-0.748809814453125,0.54931640625,0.244140625,0.06103515625,0.44873046875,-0.8028564453125,0.3994140625,-295.0,152.0,-149.0,101700.0,-3.121000051498413,0,0
0.8046672999917064,0.372802734375,-0.451873779296875,0.309967041015625,-0.748809814453125,0.06103515625,-0.06103515625,-0.18310546875,0.4437255859375,-0.802978515625,0.39990234375,-295.0,152.0,-149.0,101700.0,-3.121000051498413,0,0
0.8047258000005968,0.372802734375,-0.45184326171875,0.309967041015625,-0.748809814453125,0.06103515625,0.0,0.244140625,0.445556640625,-0.8016357421875,0.4002685546875,-296.0,152.0,-149.0,101700.0,-3.121000051498413,0,0
0.804781799990451,0.372802734375,-0.451873779296875,0.309967041015625,-0.748809814453125,0.1220703125,-0.1220703125,0.0,0.4461669921875,-0.8018798828125,0.3990478515625,-296.0,152.0,-149.0,101700.0,-3.121000051498413,0,0
0.8643924999923911,0.372802734375,-0.451873779296875,0.309967041015625,-0.748809814453125,0.06103515625,0.0,-0.18310546875,0.4462890625,-0.8013916015625,0.399169921875,-296.0,152.0,-149.0,101700.0,-3.121000051498413,0,0
0.8644562999979826,0.372833251953125,-0.45184326171875,0.309967041015625,-0.748779296875,0.18310546875,-0.1220703125,-0.1220703125,0.4442138671875,-0.80078125,0.3994140625,-296.0,152.0,-149.0,101700.0,-3.121000051498413,0,0
0.8645122000016272,0.372802734375,-0.451873779296875,0.309967041015625,-0.748779296875,0.1220703125,-0.18310546875,-0.06103515625,0.4471435546875,-0.7991943359375,0.396484375,-296.0,152.0,-149.0,101700.0,-3.121000051498413,0,0
0.8645672999991802,0.372802734375,-0.451873779296875,0.309967041015625,-0.748779296875,0.1220703125,-0.18310546875,-0.06103515625,0.4471435546875,-0.7991943359375,0.396484375,-296.0,152.0,-149.0,101700.0,-3.121000051498413,0,0
0.8646214999898802,0.372802734375,-0.451873779296875,0.309967041015625,-0.748779296875,0.1220703125,0.06103515625,-0.1220703125,0.4461669921875,-0.80029296875,0.3990478515625,-296.0,152.0,-149.0,101700.0,-3.121000051498413,0,0
0.8646753999928478,0.372802734375,-0.451873779296875,0.309967041015625,-0.748779296875,0.18310546875,-0.18310546875,0.0,0.4466552734375,-0.8011474609375,0.399658203125,-296.0,152.0,-149.0,101700.0,-3.121000051498413,0,0
0.8647277999989456,0.372802734375,-0.451873779296875,0.309967041015625,-0.748779296875,0.1220703125,0.06103515625,0.06103515625,0.4464111328125,-0.801025390625,0.3983154296875,-296.0,152.0,-149.0,101700.0,-3.121000051498413,0,0
0.8689585999964038,0.372802734375,-0.451873779296875,0.309967041015625,-0.748779296875,0.1220703125,0.06103515625,0.06103515625,0.4464111328125,-0.801025390625,0.3983154296875,-296.0,152.0,-149.0,101700.0,-3.123000144958496,0,0
0.8690190999914194,0.372802734375,-0.451873779296875,0.309967041015625,-0.748779296875,0.18310546875,0.06103515625,-0.1220703125,0.44580078125,-0.8028564453125,0.399658203125,-296.0,152.0,-149.0,101700.0,-3.123000144958496,0,0
0.8690725999913411,0.372802734375,-0.451873779296875,0.309967041015625,-0.748779296875,-0.18310546875,0.0,0.0,0.445556640625,-0.8016357421875,0.400390625,-296.0,152.0,-149.0,101700.0,-3.123000144958496,0,0
0.8691255000012461,0.372802734375,-0.451873779296875,0.309967041015625,-0.748779296875,-0.06103515625,-0.1220703125,-0.244140625,0.4456787109375,-0.8026123046875,0.4000244140625,-296.0,152.0,-149.0,101700.0,-3.123000144958496,0,0
0.8691773999889847,0.372802734375,-0.451873779296875,0.309967041015625,-0.748779296875,0.18310546875,0.0,0.1220703125,0.4451904296875,-0.7998046875,0.398681640625,-296.0,152.0,-149.0,101700.0,-3.123000144958496,0,0
0.8692284999997355,0.372802734375,-0.451873779296875,0.309967041015625,-0.748779296875,0.06103515625,0.1220703125,-0.06103515625,0.445556640625,-0.800537109375,0.3994140625,-296.0,152.0,-149.0,101700.0,-3.123000144958496,0,0
0.9345555999898352,0.372802734375,-0.451873779296875,0.309967041015625,-0.748779296875,-0.1220703125,-0.06103515625,0.18310546875,0.44580078125,-0.8016357421875,0.4000244140625,-296.0,152.0,-149.0,101700.0,-3.123000144958496,0,0
0.9346237999998266,0.372802734375,-0.451873779296875,0.309967041015625,-0.748779296875,-0.1220703125,-0.18310546875,-0.1220703125,0.446533203125,-0.803466796875,0.398681640625,-296.0,152.0,-149.0,101700.0,-3.123000144958496,0,0
0.9346810999995796,0.372802734375,-0.451873779296875,0.309967041015625,-0.748779296875,0.18310546875,-0.06103515625,0.06103515625,0.447265625,-0.801513671875,0.400146484375,-296.0,151.0,-148.0,101700.0,-3.123000144958496,0,0
0.9347350000025472,0.372802734375,-0.451873779296875,0.309967041015625,-0.748779296875,-0.1220703125,0.06103515625,-0.1220703125,0.4451904296875,-0.8031005859375,0.3985595703125,-296.0,151.0,-148.0,101700.0,-3.123000144958496,0,0
0.9347898999985773,0.37310791015625,-0.451995849609375,0.309783935546875,-0.748626708984375,0.0,0.06103515625,0.1220703125,0.44482421875,-0.8018798828125,0.400390625,-296.0,151.0,-148.0,101700.0,-3.123000144958496,0,0
0.9348633999907179,0.37310791015625,-0.451995849609375,0.309783935546875,-0.748626708984375,-0.18310546875,0.0,0.06103515625,0.4453125,-0.8011474609375,0.400634765625,-296.0,151.0,-148.0,101700.0,-3.123000144958496,0,0
0.9349155999952927,0.37310791015625,-0.451995849609375,0.309814453125,-0.748626708984375,0.244140625,-0.06103515625,-0.1220703125,0.444580078125,-0.8033447265625,0.399658203125,-296.0,151.0,-148.0,101700.0,-3.123000144958496,0,0
0.9349692999967374,0.37310791015625,-0.451995849609375,0.309814453125,-0.748626708984375,0.244140625,-0.06103515625,-0.1220703125,0.444580078125,-0.8033447265625,0.399658203125,-296.0,151.0,-148.0,101700.0,-3.123000144958496,0,0
0.9350227999966592,0.37310791015625,-0.451995849609375,0.309783935546875,-0.748626708984375,0.0,-0.06103515625,-0.06103515625,0.4478759765625,-0.802001953125,0.4000244140625,-296.0,151.0,-148.0,101700.0,-3.123000144958496,0,0
0.9350779999949737,0.37310791015625,-0.451995849609375,0.309783935546875,-0.748626708984375,0.18310546875,-0.1220703125,-0.06103515625,0.4456787109375,-0.800048828125,0.400146484375,-296.0,151.0,-148.0,101700.0,-3.123000144958496,0,0
0.9351312999933725,0.37310791015625,-0.451995849609375,0.309783935546875,-0.748626708984375,0.244140625,0.1220703125,0.06103515625,0.447265625,-0.8009033203125,0.399169921875,-296.0,151.0,-148.0,101700.0,-3.123000144958496,0,0
1.0034032999974443,0.37310791015625,-0.451995849609375,0.309783935546875,-0.748626708984375,-0.244140625,-0.18310546875,-0.18310546875,0.4432373046875,-0.8013916015625,0.39990234375,-296.0,151.0,-148.0,101700.0,-3.123000144958496,0,0
1.0034656999923754,0.37310791015625,-0.451995849609375,0.309783935546875,-0.748626708984375,0.06103515625,-0.18310546875,0.1220703125,0.4473876953125,-0.7999267578125,0.39990234375,-296.0,151.0,-148.0,101700.0,-3.123000144958496,0,0
1.0035213999944972,0.37310791015625,-0.451995849609375,0.309783935546875,-0.748626708984375,-0.06103515625,-0.18310546875,-0.18310546875,0.4473876953125,-0.802734375,0.4000244140625,-296.0,151.0,-148.0,101700.0,-3.123000144958496,0,0
1.0035771999973804,0.37310791015625,-0.451995849609375,0.309783935546875,-0.748626708984375,-0.06103515625,0.06103515625,0.06103515625,0.4461669921875,-0.8023681640625,0.4024658203125,-296.0,151.0,-148.0,101700.0,-3.123000144958496,0,0
1.0036326999979792,0.37310791015625,-0.451995849609375,0.309783935546875,-0.748626708984375,-0.06103515625,0.06103515625,0.06103515625,0.4461669921875,-0.8023681640625,0.4024658203125,-296.0,151.0,-148.0,101700.0,-3.123000144958496,0,0
1.0037054999993416,0.37310791015625,-0.451995849609375,0.309783935546875,-0.748626708984375,0.06103515625,-0.1220703125,-0.18310546875,0.4443359375,-0.8021240234375,0.39990234375,-296.0,151.0,-148.0,101700.0,-3.123000144958496,0,0
1.003757599988603,0.37310791015625,-0.451995849609375,0.309783935546875,-0.748626708984375,0.06103515625,0.06103515625,-0.1220703125,0.4473876953125,-0.8021240234375,0.39990234375,-296.0,151.0,-148.0,101700.0,-3.123000144958496,0,0
1.0038096999924164,0.37310791015625,-0.451995849609375,0.309783935546875,-0.748626708984375,0.3662109375,0.0,0.0,0.448974609375,-0.802490234375,0.3992919921875,-296.0,151.0,-148.0,101700.0,-3.123000144958496,0,0
1.0038629999908153,0.37310791015625,-0.451995849609375,0.309783935546875,-0.748626708984375,0.06103515625,0.1220703125,-0.1220703125,0.4461669921875,-0.8031005859375,0.3985595703125,-296.0,151.0,-148.0,101700.0,-3.123000144958496,0,0
1.0039162999892142,0.37310791015625,-0.451995849609375,0.309783935546875,-0.748626708984375,0.0,0.1220703125,-0.06103515625,0.4461669921875,-0.8006591796875,0.4002685546875,-296.0,151.0,-148.0,101700.0,-3.123000144958496,0,0
1.0039681999915047,0.37310791015625,-0.451995849609375,0.309783935546875,-0.748626708984375,0.0,0.1220703125,-0.06103515625,0.4461669921875,-0.8006591796875,0.4002685546875,-295.0,151.0,-148.0,101700.0,-3.122000217437744,0,0
1.0558546999964165,0.373321533203125,-0.45208740234375,0.309661865234375,-0.74853515625,-0.06103515625,-0.06103515625,0.0,0.4447021484375,-0.8013916015625,0.3990478515625,-295.0,151.0,-148.0,101700.0,-3.122000217437744,0,0
1.0559204000019236,0.373291015625,-0.45208740234375,0.309661865234375,-0.74853515625,0.30517578125,-0.18310546875,0.06103515625,0.4471435546875,-0.80029296875,0.399169921875,-295.0,151.0,-148.0,101700.0,-3.122000217437744,0,0
1.0559795000008307,0.373291015625,-0.45208740234375,0.309661865234375,-0.74853515625,0.30517578125,-0.18310546875,0.06103515625,0.4471435546875,-0.80029296875,0.399169921875,-295.0,151.0,-148.0,101700.0,-3.122000217437744,0,0
1.0560362999967765,0.373291015625,-0.45208740234375,0.309661865234375,-0.74853515625,0.1220703125,-0.06103515625,0.06103515625,0.4453125,-0.8011474609375,0.398681640625,-295.0,151.0,-148.0,101700.0,-3.122000217437744,0,0
1.0560910999920452,0.373291015625,-0.45208740234375,0.309661865234375,-0.74853515625,-0.1220703125,-0.06103515625,-0.1220703125,0.4451904296875,-0.802734375,0.398681640625,-295.0,151.0,-148.0,101700.0,-3.122000217437744,0,0
1.0561441999889212,0.373291015625,-0.45208740234375,0.309661865234375,-0.74853515625,-0.1220703125,-0.06103515625,-0.18310546875,0.4478759765625,-0.8033447265625,0.39990234375,-295.0,151.0,-148.0,101700.0,-3.122000217437744,0,0
1.0561958999896888,0.373291015625,-0.45208740234375,0.309661865234375,-0.74853515625,0.06103515625,0.06103515625,0.0,0.4442138671875,-0.80224609375,0.3995361328125,-295.0,151.0,-148.0,101700.0,-3.122000217437744,0,0
1.0562617999967188,0.373321533203125,-0.45208740234375,0.309661865234375,-0.74853515625,0.30517578125,-0.1220703125,-0.06103515625,0.445068359375,-0.80224609375,0.3992919921875,-295.0,151.0,-148.0,101700.0,-3.122000217437744,0,0
1.056316499991226,0.373321533203125,-0.45208740234375,0.309661865234375,-0.74853515625,-0.1220703125,-0.1220703125,0.18310546875,0.443603515625,-0.80078125,0.40087890625,-295.0,151.0,-148.0,101700.0,-3.122000217437744,0,0
1.056369600002654,0.373321533203125,-0.45208740234375,0.309661865234375,-0.74853515625,-0.1220703125,-0.1220703125,0.18310546875,0.443603515625,-0.80078125,0.40087890625,-295.0,151.0,-148.0,101700.0,-3.122000217437744,0,0
1.0564236999925924,0.373321533203125,-0.45208740234375,0.309661865234375,-0.74853515625,0.06103515625,-0.06103515625,-0.18310546875,0.4454345703125,-0.7998046875,0.3994140625,-295.0,151.0,-148.0,101700.0,-3.122000217437744,0,0
1.0564754999941215,0.373291015625,-0.45208740234375,0.309661865234375,-0.74853515625,-0.1220703125,-0.1220703125,0.0,0.446533203125,-0.802001953125,0.3994140625,-295.0,151.0,-148.0,101700.0,-3.122000217437744,0,0
1.0565280000009807,0.373291015625,-0.45208740234375,0.309661865234375,-0.74853515625,-0.1220703125,-0.1220703125,0.0,0.446533203125,-0.802001953125,0.3994140625,-295.0,151.0,-148.0,101700.0,-3.122000217437744,0,0
1.1237683999934234,0.373321533203125,-0.45208740234375,0.309661865234375,-0.74853515625,0.0,0.06103515625,-0.06103515625,0.4439697265625,-0.8026123046875,0.4000244140625,-295.0,151.0,-148.0,101700.0,-3.122000217437744,0,0
1.1238299999968149,0.373291015625,-0.45208740234375,0.309661865234375,-0.74853515625,0.06103515625,0.0,-0.1220703125,0.4461669921875,-0.7998046875,0.39990234375,-295.0,151.0,-148.0,101700.0,-3.122000217437744,0,0
1.1238846999913221,0.373291015625,-0.45208740234375,0.309661865234375,-0.74853515625,-0.06103515625,-0.244140625,-0.18310546875,0.4471435546875,-0.8035888671875,0.396484375,-295.0,151.0,-148.0,101700.0,-3.122000217437744,0,0
1.1239375000004657,0.373291015625,-0.45208740234375,0.309661865234375,-0.74853515625,0.244140625,-0.1220703125,0.1220703125,0.4451904296875,-0.80078125,0.398681640625,-295.0,151.0,-148.0,101700.0,-3.122000217437744,0,0
1.1239896999904886,0.373291015625,-0.45208740234375,0.309661865234375,-0.74853515625,0.244140625,-0.06103515625,0.0,0.447021484375,-0.8009033203125,0.398193359375,-294.0,152.0,-148.0,101700.0,-3.122000217437744,0,0
1.1248290999938035,0.373504638671875,-0.452178955078125,0.309539794921875,-0.748443603515625,0.1220703125,-0.1220703125,-0.06103515625,0.44775390625,-0.8011474609375,0.39990234375,-294.0,152.0,-148.0,101700.0,-3.122000217437744,0,0
1.1248819999891566,0.373504638671875,-0.452178955078125,0.309539794921875,-0.748443603515625,0.1220703125,-0.1220703125,-0.06103515625,0.44775390625,-0.8011474609375,0.39990234375,-294.0,152.0,-148.0,101700.0,-3.122000217437744,0,0
1.124933899991447,0.373504638671875,-0.452178955078125,0.309539794921875,-0.748443603515625,-0.1220703125,-0.1220703125,0.0,0.4461669921875,-0.802734375,0.4005126953125,-294.0,152.0,-148.0,101700.0,-3.122000217437744,0,0
1.1249857999937376,0.373504638671875,-0.452178955078125,0.309539794921875,-0.748443603515625,-0.244140625,-0.06103515625,0.0,0.446044921875,-0.803955078125,0.3992919921875,-294.0,152.0,-148.0,101700.0,-3.122000217437744,0,0
1.125036799989175,0.373504638671875,-0.45220947265625,0.309539794921875,-0.7484130859375,0.244140625,0.1220703125,0.0,0.4466552734375,-0.802490234375,0.3984375,-294.0,152.0,-148.0,101700.0,-3.122000217437744,0,0
1.1250869999930728,0.373504638671875,-0.45220947265625,0.309539794921875,-0.7484130859375,0.1220703125,0.1220703125,-0.244140625,0.4481201171875,-0.8021240234375,0.3995361328125,-294.0,152.0,-148.0,101700.0,-3.122000217437744,0,0
1.1837639000004856,0.373504638671875,-0.45220947265625,0.309539794921875,-0.7484130859375,-0.1220703125,-0.18310546875,0.0,0.4453125,-0.8028564453125,0.3988037109375,-294.0,152.0,-148.0,101700.0,-3.122000217437744,0,0
1.1838445999892429,0.373504638671875,-0.45220947265625,0.309539794921875,-0.7484130859375,0.0,-0.18310546875,-0.06103515625,0.44482421875,-0.8001708984375,0.39794921875,-294.0,152.0,-148.0,101700.0,-3.122000217437744,0,0
1.1839064999949187,0.373504638671875,-0.45220947265625,0.309539794921875,-0.7484130859375,0.18310546875,-0.18310546875,0.0,0.4449462890625,-0.7999267578125,0.3985595703125,-294.0,152.0,-148.0,101700.0,-3.122000217437744,0,0
1.1839636999939103,0.373504638671875,-0.45220947265625,0.309539794921875,-0.7484130859375,0.18310546875,-0.18310546875,0.0,0.4449462890625,-0.7999267578125,0.3985595703125,-294.0,152.0,-148.0,101700.0,-3.122000217437744,0,0
1.1840200000006007,0.373504638671875,-0.45220947265625,0.309539794921875,-0.7484130859375,0.42724609375,0.1220703125,-0.18310546875,0.4471435546875,-0.802490234375,0.4010009765625,-294.0,152.0,-148.0,101700.0,-3.122000217437744,0,0
1.1881205999961821,0.373504638671875,-0.45220947265625,0.309539794921875,-0.7484130859375,0.0,0.0,-0.06103515625,0.445068359375,-0.8006591796875,0.400146484375,-294.0,152.0,-148.0,101700.0,-3.122000217437744,0,0
1.1881862000009278,0.373504638671875,-0.45220947265625,0.309539794921875,-0.7484130859375,0.0,0.0,0.0,0.4449462890625,-0.8004150390625,0.3992919921875,-294.0,152.0,-148.0,101700.0,-3.122000217437744,0,0
1.1882437999884132,0.373504638671875,-0.45220947265625,0.309539794921875,-0.7484130859375,-0.244140625,-0.18310546875,-0.18310546875,0.4447021484375,-0.8017578125,0.3983154296875,-294.0,152.0,-148.0,101700.0,-3.122000217437744,0,0
1.1905868999892846,0.373504638671875,-0.45220947265625,0.309539794921875,-0.7484130859375,0.18310546875,-0.1220703125,-0.30517578125,0.4464111328125,-0.8023681640625,0.3990478515625,-294.0,152.0,-148.0,101700.0,-3.122000217437744,0,0
1.1906771999929333,0.373504638671875,-0.45220947265625,0.309539794921875,-0.7484130859375,0.18310546875,-0.06103515625,0.06103515625,0.4449462890625,-0.800048828125,0.3994140625,-294.0,152.0,-148.0,101700.0,-3.122000217437744,0,0
1.1907404999947175,0.373504638671875,-0.45220947265625,0.309539794921875,-0.7484130859375,0.244140625,0.06103515625,0.0,0.44677734375,-0.8017578125,0.3978271484375,-294.0,152.0,-148.0,101700.0,-3.122000217437744,0,0
1.190800099997432,0.373504638671875,-0.45220947265625,0.3095703125,-0.7484130859375,0.3662109375,-0.1220703125,-0.18310546875,0.4442138671875,-0.8013916015625,0.3978271484375,-294.0,152.0,-148.0,101700.0,-3.122000217437744,0,0
1.251383299997542,0.373504638671875,-0.45220947265625,0.3095703125,-0.7484130859375,0.3662109375,-0.1220703125,-0.18310546875,0.4442138671875,-0.8013916015625,0.3978271484375,-294.0,152.0,-148.0,101700.0,-3.122000217437744,0,0
1.2514487000007648,0.37371826171875,-0.452301025390625,0.3094482421875,-0.748321533203125,0.0,-0.18310546875,-0.1220703125,0.4464111328125,-0.80029296875,0.3984375,-294.0,152.0,-148.0,101700.0,-3.122000217437744,0,0
1.2515103999903658,0.373687744140625,-0.452301025390625,0.3094482421875,-0.748321533203125,-0.1220703125,0.3662109375,-0.18310546875,0.44873046875,-0.802001953125,0.3995361328125,-294.0,152.0,-148.0,101700.0,-3.122000217437744,0,0
1.2515698999923188,0.373687744140625,-0.452301025390625,0.3094482421875,-0.748321533203125,-0.1220703125,-0.06103515625,-0.18310546875,0.445556640625,-0.8028564453125,0.399169921875,-294.0,152.0,-148.0,101700.0,-3.122000217437744,0,0
1.2516283000004478,0.37371826171875,-0.452301025390625,0.3094482421875,-0.748321533203125,-0.1220703125,-0.18310546875,-0.06103515625,0.4454345703125,-0.800537109375,0.3978271484375,-294.0,152.0,-148.0,101700.0,-3.122000217437744,0,0
1.2517319999897154,0.37371826171875,-0.452301025390625,0.3094482421875,-0.748291015625,0.06103515625,-0.06103515625,0.06103515625,0.4453125,-0.8023681640625,0.3995361328125,-294.0,152.0,-148.0,101700.0,-3.122000217437744,0,0
1.2542263999930583,0.37371826171875,-0.452301025390625,0.3094482421875,-0.748291015625,-0.1220703125,-0.244140625,0.0,0.4443359375,-0.80029296875,0.3980712890625,-294.0,152.0,-148.0,101700.0,-3.122000217437744,0,0
1.254292899990105,0.37371826171875,-0.452301025390625,0.3094482421875,-0.748291015625,0.30517578125,-0.06103515625,-0.30517578125,0.4451904296875,-0.8016357421875,0.3980712890625,-294.0,152.0,-148.0,101700.0,-3.122000217437744,0,0
1.2543516000005184,0.37371826171875,-0.452301025390625,0.3094482421875,-0.748291015625,0.30517578125,-0.244140625,-0.06103515625,0.44580078125,-0.800048828125,0.3988037109375,-294.0,152.0,-148.0,101700.0,-3.122000217437744,0,0
1.2544086999987485,0.37371826171875,-0.452301025390625,0.3094482421875,-0.748291015625,0.18310546875,-0.244140625,0.0,0.445556640625,-0.800537109375,0.400146484375,-294.0,152.0,-148.0,101700.0,-3.122000217437744,0,0
1.2544646999886027,0.37371826171875,-0.452301025390625,0.3094482421875,-0.748291015625,0.18310546875,-0.244140625,0.0,0.445556640625,-0.800537109375,0.400146484375,-294.0,152.0,-148.0,101700.0,-3.122000217437744,0,0
1.254520299989963,0.37371826171875,-0.452301025390625,0.3094482421875,-0.748291015625,0.18310546875,-0.06103515625,-0.06103515625,0.445556640625,-0.8009033203125,0.3984375,-294.0,152.0,-148.0,101700.0,-3.122000217437744,0,0
1.3136335000017425,0.37371826171875,-0.452301025390625,0.3094482421875,-0.748291015625,-0.18310546875,-0.1220703125,0.06103515625,0.4454345703125,-0.8006591796875,0.3994140625,-294.0,152.0,-148.0,101700.0,-3.122000217437744,0,0
1.3137074999976903,0.373687744140625,-0.452301025390625,0.3094482421875,-0.748291015625,0.0,0.0,-0.1220703125,0.4454345703125,-0.802490234375,0.3997802734375,-294.0,152.0,-148.0,101700.0,-3.122000217437744,0,0
1.3137685999972746,0.373687744140625,-0.452301025390625,0.3094482421875,-0.748291015625,0.06103515625,-0.1220703125,-0.06103515625,0.4462890625,-0.8031005859375,0.3988037109375,-294.0,152.0,-148.0,101700.0,-3.122000217437744,0,0
1.3138266000023577,0.373687744140625,-0.452301025390625,0.3094482421875,-0.748291015625,-0.06103515625,-0.18310546875,0.18310546875,0.44580078125,-0.8023681640625,0.3997802734375,-294.0,152.0,-148.0,101700.0,-3.122000217437744,0,0
1.3138842999906046,0.373687744140625,-0.452301025390625,0.3094482421875,-0.748291015625,-0.1220703125,0.0,-0.1220703125,0.4462890625,-0.8001708984375,0.3980712890625,-294.0,152.0,-148.0,101700.0,-3.122000217437744,0,0
1.3139771999994991,0.373687744140625,-0.452301025390625,0.3094482421875,-0.748291015625,-0.1220703125,0.0,-0.1220703125,0.4462890625,-0.8001708984375,0.3980712890625,-294.0,152.0,-148.0,101700.0,-3.122000217437744,0,0
1.3140336999931606,0.373687744140625,-0.452301025390625,0.3094482421875,-0.748291015625,-0.06103515625,-0.06103515625,0.18310546875,0.4453125,-0.803466796875,0.3994140625,-294.0,152.0,-148.0,101700.0,-3.120000123977661,0,0
1.3140903999883449,0.3739013671875,-0.452392578125,0.309326171875,-0.748199462890625,0.3662109375,0.0,-0.1220703125,0.4456787109375,-0.8028564453125,0.3992919921875,-295.0,152.0,-148.0,101700.0,-3.120000123977661,0,0
1.3141458000027342,0.3739013671875,-0.452392578125,0.309326171875,-0.748199462890625,0.18310546875,-0.1220703125,0.1220703125,0.4449462890625,-0.8009033203125,0.3997802734375,-295.0,152.0,-148.0,101700.0,-3.120000123977661,0,0
1.3142013999895426,0.3739013671875,-0.452392578125,0.309326171875,-0.748199462890625,-0.06103515625,-0.06103515625,-0.1220703125,0.4471435546875,-0.800048828125,0.3980712890625,-295.0,152.0,-148.0,101700.0,-3.120000123977661,0,0
1.3142558999970788,0.3739013671875,-0.452392578125,0.309356689453125,-0.748199462890625,-0.06103515625,0.18310546875,0.06103515625,0.4442138671875,-0.8033447265625,0.3992919921875,-295.0,152.0,-148.0,101700.0,-3.120000123977661,0,0
1.378336699999636,0.3739013671875,-0.452392578125,0.309356689453125,-0.7481689453125,-0.18310546875,-0.1220703125,0.1220703125,0.4443359375,-0.8009033203125,0.3973388671875,-295.0,152.0,-148.0,101700.0,-3.120000123977661,0,0
1.3784040000027744,0.3739013671875,-0.452392578125,0.309356689453125,-0.7481689453125,-0.244140625,0.0,-0.18310546875,0.4462890625,-0.8013916015625,0.3990478515625,-295.0,152.0,-148.0,101700.0,-3.120000123977661,0,0
1.3784621999948286,0.3739013671875,-0.452392578125,0.309356689453125,-0.7481689453125,-0.244140625,0.0,-0.18310546875,0.4462890625,-0.8013916015625,0.3990478515625,-295.0,152.0,-148.0,101700.0,-3.120000123977661,0,0
1.3785174999939045,0.3739013671875,-0.452423095703125,0.309356689453125,-0.7481689453125,-0.1220703125,0.0,0.18310546875,0.4483642578125,-0.7994384765625,0.397216796875,-295.0,152.0,-148.0,101700.0,-3.120000123977661,0,0
1.378576000002795,0.3739013671875,-0.452423095703125,0.309356689453125,-0.7481689453125,0.30517578125,0.1220703125,-0.18310546875,0.447509765625,-0.80078125,0.3984375,-295.0,152.0,-148.0,101700.0,-3.120000123977661,0,0
1.3786509999918053,0.3739013671875,-0.452423095703125,0.309356689453125,-0.7481689453125,-0.1220703125,0.06103515625,-0.3662109375,0.4454345703125,-0.8011474609375,0.3990478515625,-295.0,152.0,-148.0,101700.0,-3.120000123977661,0,0
1.3787063999916427,0.3739013671875,-0.452423095703125,0.309356689453125,-0.7481689453125,-0.06103515625,-0.244140625,0.0,0.446044921875,-0.7999267578125,0.3990478515625,-295.0,152.0,-148.0,101700.0,-3.120000123977661,0,0
1.378759999992326,0.3739013671875,-0.452423095703125,0.309356689453125,-0.7481689453125,0.0,0.06103515625,-0.244140625,0.4444580078125,-0.7991943359375,0.4000244140625,-295.0,152.0,-148.0,101700.0,-3.120000123977661,0,0
1.378813999996055,0.3739013671875,-0.452423095703125,0.309356689453125,-0.7481689453125,-0.3662109375,-0.3662109375,-0.06103515625,0.4437255859375,-0.800537109375,0.39794921875,-295.0,152.0,-148.0,101700.0,-3.120000123977661,0,0
1.3788669999921694,0.3739013671875,-0.452423095703125,0.309356689453125,-0.7481689453125,0.1220703125,0.1220703125,-0.06103515625,0.44482421875,-0.8016357421875,0.39794921875,-295.0,152.0,-148.0,101700.0,-3.120000123977661,0,0
1.37891959999979,0.3739013671875,-0.452423095703125,0.309356689453125,-0.7481689453125,0.06103515625,0.0,0.0,0.44580078125,-0.8006591796875,0.395751953125,-295.0,152.0,-148.0,101700.0,-3.120000123977661,0,0
1.3789730999997118,0.3739013671875,-0.452423095703125,0.309356689453125,-0.7481689453125,0.06103515625,0.0,0.0,0.44580078125,-0.8006591796875,0.395751953125,-295.0,152.0,-148.0,101700.0,-3.120000123977661,0,0
1.443713899992872,0.3739013671875,-0.452423095703125,0.309356689453125,-0.7481689453125,0.244140625,0.244140625,0.0,0.447509765625,-0.8016357421875,0.3984375,-295.0,152.0,-148.0,101700.0,-3.120000123977661,0,0
1.4437789999938104,0.3739013671875,-0.45245361328125,0.309356689453125,-0.7481689453125,0.244140625,0.244140625,0.0,0.447509765625,-0.8016357421875,0.3984375,-295.0,152.0,-148.0,101700.0,-3.121000051498413,0,0
1.4438353000005009,0.3739013671875,-0.45245361328125,0.309356689453125,-0.7481689453125,-0.244140625,-0.1220703125,-0.06103515625,0.446533203125,-0.8013916015625,0.39697265625,-296.0,152.0,-150.0,101700.0,-3.121000051498413,0,0
1.4438919999956852,0.373779296875,-0.452392578125,0.309417724609375,-0.748199462890625,0.06103515625,-0.30517578125,-0.244140625,0.44580078125,-0.802490234375,0.397216796875,-296.0,152.0,-150.0,101700.0,-3.121000051498413,0,0
1.4439470999932382,0.373779296875,-0.452423095703125,0.3094482421875,-0.748199462890625,0.0,-0.1220703125,0.0,0.44482421875,-0.8004150390625,0.39892578125,-296.0,152.0,-150.0,101700.0,-3.121000051498413,0,0
1.4440024999930756,0.373779296875,-0.452423095703125,0.3094482421875,-0.748199462890625,0.1220703125,-0.06103515625,0.0,0.446044921875,-0.801513671875,0.3963623046875,-296.0,152.0,-150.0,101700.0,-3.121000051498413,0,0
1.4461585999961244,0.373779296875,-0.452423095703125,0.3094482421875,-0.748199462890625,0.1220703125,-0.06103515625,0.1220703125,0.444091796875,-0.8013916015625,0.3978271484375,-296.0,152.0,-150.0,101700.0,-3.121000051498413,0,0
1.4462195999949472,0.373779296875,-0.452423095703125,0.3094482421875,-0.748199462890625,-0.1220703125,0.1220703125,-0.18310546875,0.4442138671875,-0.801025390625,0.3983154296875,-296.0,152.0,-150.0,101700.0,-3.121000051498413,0,0
1.446274000001722,0.373779296875,-0.452423095703125,0.3094482421875,-0.748199462890625,0.0,-0.244140625,-0.06103515625,0.4453125,-0.8016357421875,0.3988037109375,-296.0,152.0,-150.0,101700.0,-3.121000051498413,0,0
1.4463271999993594,0.373779296875,-0.452423095703125,0.3094482421875,-0.748199462890625,0.0,-0.244140625,-0.06103515625,0.4453125,-0.8016357421875,0.3988037109375,-296.0,152.0,-150.0,101700.0,-3.121000051498413,0,0
1.4463829000014812,0.373779296875,-0.452423095703125,0.3094482421875,-0.748199462890625,0.1220703125,0.0,-0.06103515625,0.4451904296875,-0.80126953125,0.3990478515625,-296.0,152.0,-150.0,101700.0,-3.121000051498413,0,0
1.4464373999944655,0.373779296875,-0.452423095703125,0.3094482421875,-0.748199462890625,0.1220703125,-0.30517578125,0.1220703125,0.4437255859375,-0.801513671875,0.3988037109375,-296.0,152.0,-150.0,101700.0,-3.121000051498413,0,0
1.5120851999963634,0.373779296875,-0.452423095703125,0.3094482421875,-0.748199462890625,-0.244140625,-0.244140625,0.0,0.447509765625,-0.802490234375,0.3988037109375,-296.0,152.0,-150.0,101700.0,-3.121000051498413,0,0
1.5121458999929018,0.373779296875,-0.452423095703125,0.3094482421875,-0.748199462890625,-0.06103515625,0.06103515625,-0.18310546875,0.4449462890625,-0.8018798828125,0.398681640625,-296.0,152.0,-150.0,101700.0,-3.121000051498413,0,0
1.5122050999925705,0.373779296875,-0.452423095703125,0.3094482421875,-0.748199462890625,0.0,-0.06103515625,0.0,0.4453125,-0.802734375,0.39892578125,-296.0,152.0,-150.0,101700.0,-3.121000051498413,0,0
1.5122605999931693,0.373779296875,-0.452423095703125,0.3094482421875,-0.748199462890625,-0.06103515625,-0.06103515625,0.0,0.4462890625,-0.80224609375,0.399658203125,-296.0,152.0,-150.0,101700.0,-3.121000051498413,0,0
1.5123146999976598,0.373779296875,-0.452423095703125,0.3094482421875,-0.748199462890625,-0.06103515625,-0.06103515625,0.0,0.4462890625,-0.80224609375,0.399658203125,-296.0,152.0,-150.0,101700.0,-3.121000051498413,0,0
1.5126039999886416,0.373779296875,-0.452423095703125,0.3094482421875,-0.748199462890625,0.1220703125,0.0,-0.244140625,0.4442138671875,-0.8011474609375,0.3978271484375,-296.0,152.0,-150.0,101700.0,-3.121000051498413,0,0
1.5126660999958403,0.373779296875,-0.452423095703125,0.3094482421875,-0.7481689453125,-0.18310546875,-0.06103515625,-0.18310546875,0.445068359375,-0.7999267578125,0.396728515625,-296.0,152.0,-150.0,101700.0,-3.121000051498413,0,0
1.5127211999933934,0.373779296875,-0.452423095703125,0.3094482421875,-0.7481689453125,0.244140625,-0.244140625,-0.244140625,0.4443359375,-0.80224609375,0.39794921875,-296.0,152.0,-150.0,101700.0,-3.119000196456909,0,0
1.512775099996361,0.373779296875,-0.452423095703125,0.309478759765625,-0.7481689453125,0.18310546875,0.1220703125,0.1220703125,0.4454345703125,-0.801513671875,0.397216796875,-296.0,152.0,-150.0,101700.0,-3.119000196456909,0,0
1.5128276999894297,0.373687744140625,-0.452392578125,0.309539794921875,-0.74822998046875,0.0,-0.1220703125,-0.1220703125,0.4451904296875,-0.7999267578125,0.3970947265625,-296.0,151.0,-150.0,101700.0,-3.119000196456909,0,0
1.5128796999924816,0.373687744140625,-0.452392578125,0.309539794921875,-0.74822998046875,0.42724609375,-0.06103515625,0.244140625,0.446533203125,-0.8033447265625,0.3990478515625,-296.0,151.0,-150.0,101700.0,-3.119000196456909,0,0
1.512933999998495,0.373687744140625,-0.452392578125,0.309539794921875,-0.74822998046875,-0.06103515625,-0.06103515625,-0.06103515625,0.44482421875,-0.8021240234375,0.39892578125,-296.0,151.0,-150.0,101700.0,-3.119000196456909,0,0
1.5675072000012733,0.373687744140625,-0.452392578125,0.309539794921875,-0.74822998046875,0.18310546875,0.1220703125,-0.1220703125,0.442138671875,-0.801025390625,0.3963623046875,-296.0,151.0,-150.0,101700.0,-3.119000196456909,0,0
1.5675775999989128,0.373687744140625,-0.452392578125,0.309539794921875,-0.74822998046875,0.06103515625,0.0,0.244140625,0.4454345703125,-0.80126953125,0.39990234375,-296.0,151.0,-150.0,101700.0,-3.119000196456909,0,0
1.5676338999910513,0.373687744140625,-0.452392578125,0.309539794921875,-0.74822998046875,-0.06103515625,0.0,0.0,0.4462890625,-0.80224609375,0.398681640625,-296.0,151.0,-150.0,101700.0,-3.119000196456909,0,0
1.5676865999994334,0.373687744140625,-0.452392578125,0.309539794921875,-0.748199462890625,-0.06103515625,-0.18310546875,-0.06103515625,0.4468994140625,-0.802978515625,0.3988037109375,-296.0,151.0,-150.0,101700.0,-3.119000196456909,0,0
1.5678751999948872,0.373687744140625,-0.452392578125,0.309539794921875,-0.748199462890625,0.1220703125,0.1220703125,0.0,0.44384765625,-0.8021240234375,0.3973388671875,-296.0,151.0,-150.0,101700.0,-3.119000196456909,0,0
1.5679379999928642,0.373687744140625,-0.452392578125,0.309539794921875,-0.748199462890625,0.06103515625,-0.06103515625,-0.1220703125,0.443603515625,-0.8023681640625,0.3978271484375,-296.0,151.0,-150.0,101700.0,-3.119000196456909,0,0
1.5679921999981161,0.373687744140625,-0.452392578125,0.3095703125,-0.748199462890625,0.06103515625,-0.1220703125,-0.18310546875,0.445068359375,-0.8017578125,0.3980712890625,-296.0,151.0,-150.0,101700.0,-3.119000196456909,0,0
1.5680455999972764,0.373687744140625,-0.452423095703125,0.3095703125,-0.748199462890625,-0.1220703125,-0.1220703125,-0.06103515625,0.4462890625,-0.800537109375,0.3984375,-296.0,151.0,-150.0,101700.0,-3.119000196456909,0,0
1.5682988999906229,0.373687744140625,-0.452423095703125,0.3095703125,-0.748199462890625,-0.06103515625,0.0,-0.1220703125,0.4456787109375,-0.801513671875,0.3961181640625,-296.0,151.0,-150.0,101700.0,-3.119000196456909,0,0
1.568353800001205,0.373687744140625,-0.452423095703125,0.3095703125,-0.748199462890625,-0.06103515625,0.0,-0.1220703125,0.4456787109375,-0.801513671875,0.3961181640625,-296.0,151.0,-150.0,101700.0,-3.119000196456909,0,0
1.5684058999904664,0.373687744140625,-0.452423095703125,0.3095703125,-0.748199462890625,-0.06103515625,0.0,0.1220703125,0.445556640625,-0.8037109375,0.400390625,-296.0,151.0,-150.0,101700.0,-3.119000196456909,0,0
1.633915699989302,0.373687744140625,-0.452423095703125,0.3095703125,-0.748199462890625,0.244140625,-0.06103515625,0.0,0.4453125,-0.80126953125,0.3974609375,-296.0,151.0,-150.0,101700.0,-3.119000196456909,0,0
1.633985099993879,0.3736572265625,-0.452423095703125,0.3095703125,-0.748199462890625,-0.18310546875,0.1220703125,0.0,0.4462890625,-0.8011474609375,0.39697265625,-296.0,151.0,-150.0,101700.0,-3.119000196456909,0,0
1.6340442999935476,0.3736572265625,-0.452423095703125,0.3095703125,-0.748199462890625,0.0,-0.3662109375,-0.06103515625,0.4476318359375,-0.80126953125,0.3980712890625,-296.0,151.0,-150.0,101700.0,-3.119000196456909,0,0
1.6341039999970235,0.3736572265625,-0.452423095703125,0.3095703125,-0.748199462890625,0.0,-0.3662109375,-0.06103515625,0.4476318359375,-0.80126953125,0.3980712890625,-296.0,150.0,-151.0,101700.0,-3.121000051498413,0,0
1.6341603999899235,0.37347412109375,-0.452362060546875,0.3096923828125,-0.748291015625,-0.18310546875,-0.3662109375,-0.18310546875,0.4471435546875,-0.800048828125,0.3984375,-296.0,150.0,-151.0,101700.0,-3.121000051498413,0,0
1.6342167999973753,0.37347412109375,-0.452362060546875,0.3096923828125,-0.748291015625,0.0,-0.06103515625,-0.18310546875,0.4454345703125,-0.801513671875,0.3968505859375,-296.0,150.0,-151.0,101700.0,-3.121000051498413,0,0
1.6348011999943992,0.37347412109375,-0.452362060546875,0.3096923828125,-0.748291015625,0.244140625,-0.244140625,0.0,0.4454345703125,-0.801513671875,0.3978271484375,-296.0,150.0,-151.0,101700.0,-3.121000051498413,0,0
1.6349039999913657,0.37347412109375,-0.452362060546875,0.3096923828125,-0.748291015625,-0.06103515625,-0.18310546875,0.0,0.44482421875,-0.799560546875,0.3980712890625,-296.0,150.0,-151.0,101700.0,-3.121000051498413,0,0
1.634971499996027,0.37347412109375,-0.452362060546875,0.3096923828125,-0.748291015625,-0.06103515625,-0.18310546875,0.0,0.44482421875,-0.799560546875,0.3980712890625,-296.0,150.0,-151.0,101700.0,-3.121000051498413,0,0
1.6350294000003487,0.37347412109375,-0.452362060546875,0.3096923828125,-0.748291015625,-0.06103515625,0.0,0.06103515625,0.4447021484375,-0.8023681640625,0.39794921875,-296.0,150.0,-151.0,101700.0,-3.121000051498413,0,0
1.6350851000024704,0.37347412109375,-0.452362060546875,0.309722900390625,-0.748260498046875,-0.06103515625,-0.1220703125,-0.06103515625,0.4464111328125,-0.8026123046875,0.39892578125,-296.0,150.0,-151.0,101700.0,-3.121000051498413,0,0
1.6351816999958828,0.37347412109375,-0.452362060546875,0.309722900390625,-0.748260498046875,-0.06103515625,-0.06103515625,0.06103515625,0.4453125,-0.8026123046875,0.3973388671875,-296.0,150.0,-151.0,101700.0,-3.121000051498413,0,0
1.635237299997243,0.37347412109375,-0.452362060546875,0.309722900390625,-0.748260498046875,0.18310546875,-0.18310546875,0.06103515625,0.446044921875,-0.800537109375,0.39599609375,-296.0,150.0,-151.0,101700.0,-3.121000051498413,0,0
1.6964013999968302,0.37347412109375,-0.452362060546875,0.309722900390625,-0.748260498046875,0.1220703125,-0.06103515625,0.06103515625,0.444580078125,-0.8017578125,0.39892578125,-296.0,150.0,-151.0,101700.0,-3.121000051498413,0,0
1.6964669000008143,0.37347412109375,-0.452362060546875,0.309722900390625,-0.748260498046875,-0.18310546875,-0.18310546875,-0.06103515625,0.4459228515625,-0.8028564453125,0.39794921875,-296.0,150.0,-151.0,101700.0,-3.121000051498413,0,0
1.6965264999889769,0.37347412109375,-0.452362060546875,0.309722900390625,-0.748260498046875,-0.18310546875,-0.18310546875,-0.06103515625,0.4459228515625,-0.8028564453125,0.39794921875,-296.0,150.0,-151.0,101700.0,-3.121000051498413,0,0
1.6965843999932986,0.37347412109375,-0.452362060546875,0.309722900390625,-0.748260498046875,0.0,-0.06103515625,-0.1220703125,0.4459228515625,-0.8011474609375,0.3975830078125,-296.0,150.0,-151.0,101700.0,-3.121000051498413,0,0
1.6988572999980533,0.37347412109375,-0.452362060546875,0.309722900390625,-0.748260498046875,-0.30517578125,0.0,-0.06103515625,0.4451904296875,-0.8004150390625,0.39794921875,-296.0,150.0,-151.0,101700.0,-3.121000051498413,0,0
1.69892749999417,0.37347412109375,-0.452362060546875,0.309722900390625,-0.748260498046875,0.06103515625,-0.30517578125,-0.1220703125,0.4442138671875,-0.8009033203125,0.39892578125,-296.0,150.0,-151.0,101700.0,-3.121000051498413,0,0
1.6990000999940094,0.37347412109375,-0.452362060546875,0.309722900390625,-0.748260498046875,0.244140625,0.1220703125,0.0,0.4456787109375,-0.8004150390625,0.3978271484375,-296.0,150.0,-151.0,101700.0,-3.121000051498413,0,0
1.6990672999963863,0.37347412109375,-0.452392578125,0.309722900390625,-0.748260498046875,0.1220703125,0.06103515625,-0.18310546875,0.44677734375,-0.80078125,0.3984375,-296.0,150.0,-151.0,101700.0,-3.121000051498413,0,0
1.6991254999884404,0.373443603515625,-0.452392578125,0.309722900390625,-0.748260498046875,-0.06103515625,-0.1220703125,-0.244140625,0.4462890625,-0.8016357421875,0.3958740234375,-296.0,150.0,-151.0,101700.0,-3.119000196456909,0,0
1.6991839999973308,0.373443603515625,-0.452392578125,0.309722900390625,-0.748260498046875,0.18310546875,-0.1220703125,-0.18310546875,0.448486328125,-0.8023681640625,0.3968505859375,-296.0,150.0,-151.0,101700.0,-3.119000196456909,0,0
1.6992426999931922,0.373260498046875,-0.452301025390625,0.309844970703125,-0.74835205078125,0.06103515625,-0.1220703125,-0.06103515625,0.44482421875,-0.80126953125,0.3994140625,-296.0,150.0,-151.0,101700.0,-3.119000196456909,0,0
1.7664833000017097,0.373260498046875,-0.452301025390625,0.309844970703125,-0.74835205078125,-0.1220703125,0.0,-0.1220703125,0.4443359375,-0.8006591796875,0.399169921875,-296.0,150.0,-151.0,101700.0,-3.119000196456909,0,0
1.766549899999518,0.373260498046875,-0.452301025390625,0.309844970703125,-0.74835205078125,0.1220703125,0.0,0.06103515625,0.4447021484375,-0.8026123046875,0.398681640625,-296.0,150.0,-151.0,101700.0,-3.119000196456909,0,0
1.7666101999930106,0.373260498046875,-0.452301025390625,0.309844970703125,-0.74835205078125,0.1220703125,0.244140625,0.06103515625,0.4466552734375,-0.8011474609375,0.398193359375,-296.0,150.0,-151.0,101700.0,-3.119000196456909,0,0
1.766668700001901,0.373260498046875,-0.45233154296875,0.309844970703125,-0.74835205078125,-0.06103515625,0.1220703125,-0.06103515625,0.4454345703125,-0.8035888671875,0.3985595703125,-296.0,150.0,-151.0,101700.0,-3.119000196456909,0,0
1.7667297000007238,0.373260498046875,-0.452301025390625,0.309844970703125,-0.74835205078125,0.0,0.1220703125,0.0,0.445556640625,-0.8009033203125,0.4000244140625,-296.0,150.0,-151.0,101700.0,-3.119000196456909,0,0
1.76680509999278,0.373260498046875,-0.452301025390625,0.309844970703125,-0.74835205078125,0.0,-0.1220703125,-0.1220703125,0.4459228515625,-0.8026123046875,0.3983154296875,-296.0,150.0,-151.0,101700.0,-3.119000196456909,0,0
1.7668620999902487,0.373260498046875,-0.45233154296875,0.30987548828125,-0.74835205078125,0.1220703125,0.0,-0.244140625,0.4453125,-0.8035888671875,0.3978271484375,-296.0,150.0,-151.0,101700.0,-3.119000196456909,0,0
1.7669175999908475,0.373260498046875,-0.45233154296875,0.30987548828125,-0.74835205078125,0.18310546875,-0.1220703125,0.06103515625,0.4462890625,-0.8017578125,0.3974609375,-296.0,150.0,-151.0,101700.0,-3.119000196456909,0,0
1.766973899997538,0.373260498046875,-0.45233154296875,0.30987548828125,-0.74835205078125,0.18310546875,-0.1220703125,0.06103515625,0.4462890625,-0.8017578125,0.3974609375,-296.0,150.0,-151.0,101700.0,-3.119000196456909,0,0
1.7670297000004211,0.373260498046875,-0.45233154296875,0.30987548828125,-0.748321533203125,0.18310546875,0.1220703125,0.06103515625,0.447021484375,-0.8028564453125,0.3975830078125,-296.0,150.0,-151.0,101700.0,-3.119000196456909,0,0
1.76708520000102,0.373260498046875,-0.45233154296875,0.30987548828125,-0.74835205078125,0.06103515625,0.0,-0.244140625,0.4464111328125,-0.8011474609375,0.3985595703125,-296.0,150.0,-151.0,101700.0,-3.119000196456909,0,0
1.8240564000006998,0.373260498046875,-0.45233154296875,0.30987548828125,-0.748321533203125,0.0,0.1220703125,0.06103515625,0.443359375,-0.80126953125,0.3983154296875,-296.0,150.0,-151.0,101700.0,-3.119000196456909,0,0
1.824122999998508,0.373260498046875,-0.45233154296875,0.30987548828125,-0.748321533203125,0.18310546875,0.0,-0.06103515625,0.4443359375,-0.8011474609375,0.3980712890625,-296.0,150.0,-151.0,101700.0,-3.119000196456909,0,0
1.824224800002412,0.373260498046875,-0.45233154296875,0.30987548828125,-0.748321533203125,0.0,0.0,-0.1220703125,0.444580078125,-0.8023681640625,0.3974609375,-296.0,150.0,-151.0,101700.0,-3.119000196456909,0,0
1.8242957999900682,0.373260498046875,-0.45233154296875,0.30987548828125,-0.748321533203125,0.1220703125,-0.18310546875,0.06103515625,0.44775390625,-0.799560546875,0.396484375,-296.0,150.0,-151.0,101700.0,-3.119000196456909,0,0
1.824354600001243,0.373260498046875,-0.45233154296875,0.30987548828125,-0.748321533203125,0.0,-0.244140625,0.0,0.4444580078125,-0.8006591796875,0.3975830078125,-296.0,150.0,-151.0,101700.0,-3.119000196456909,0,0
1.8244132999971043,0.373260498046875,-0.45233154296875,0.30987548828125,-0.748321533203125,0.0,-0.244140625,0.0,0.4444580078125,-0.8006591796875,0.3975830078125,-296.0,150.0,-151.0,101700.0,-3.119000196456909,0,0
1.8245154999895021,0.373046875,-0.452239990234375,0.30999755859375,-0.7484130859375,0.0,0.0,0.0,0.444091796875,-0.802490234375,0.396240234375,-296.0,150.0,-151.0,101700.0,-3.119000196456909,0,0
1.8245719999977155,0.373046875,-0.452239990234375,0.30999755859375,-0.7484130859375,0.0,0.0,0.0,0.444091796875,-0.802490234375,0.396240234375,-296.0,150.0,-151.0,101700.0,-3.119000196456909,0,0
1.8246290999959456,0.373046875,-0.4522705078125,0.30999755859375,-0.7484130859375,0.0,-0.06103515625,-0.244140625,0.4453125,-0.7999267578125,0.3963623046875,-296.0,150.0,-151.0,101700.0,-3.119000196456909,0,0
1.8246854999888455,0.373046875,-0.452239990234375,0.30999755859375,-0.7484130859375,0.18310546875,-0.18310546875,0.06103515625,0.44580078125,-0.8006591796875,0.399658203125,-296.0,150.0,-151.0,101700.0,-3.119000196456909,0,0
1.8247416999947745,0.373046875,-0.452239990234375,0.30999755859375,-0.7484130859375,-0.06103515625,-0.1220703125,-0.30517578125,0.44482421875,-0.8009033203125,0.39794921875,-296.0,150.0,-151.0,101700.0,-3.119000196456909,0,0
1.8248005999921588,0.373046875,-0.452239990234375,0.30999755859375,-0.7484130859375,-0.06103515625,-0.06103515625,-0.06103515625,0.4434814453125,-0.798828125,0.3984375,-296.0,150.0,-151.0,101700.0,-3.119000196456909,0,0
1.8248558999912348,0.373046875,-0.4522705078125,0.30999755859375,-0.7484130859375,0.42724609375,0.06103515625,-0.1220703125,0.4464111328125,-0.800537109375,0.3985595703125,-296.0,150.0,-151.0,101700.0,-3.119000196456909,0,0
1.8864627000002656,0.373046875,-0.4522705078125,0.30999755859375,-0.7484130859375,0.18310546875,0.06103515625,-0.244140625,0.445068359375,-0.8021240234375,0.3985595703125,-296.0,150.0,-151.0,101700.0,-3.119000196456909,0,0
1.8865417999913916,0.373046875,-0.4522705078125,0.30999755859375,-0.7484130859375,0.18310546875,0.06103515625,-0.244140625,0.445068359375,-0.8021240234375,0.3985595703125,-296.0,150.0,-151.0,101700.0,-3.119000196456909,0,0
1.8866038999985904,0.373046875,-0.4522705078125,0.30999755859375,-0.7484130859375,-0.06103515625,-0.18310546875,-0.1220703125,0.4449462890625,-0.80029296875,0.396728515625,-296.0,150.0,-151.0,101700.0,-3.119000196456909,0,0
1.8866631999990204,0.373046875,-0.4522705078125,0.30999755859375,-0.7484130859375,0.0,-0.06103515625,-0.18310546875,0.4462890625,-0.802001953125,0.39892578125,-296.0,150.0,-151.0,101700.0,-3.119000196456909,0,0
1.8867221999971662,0.373046875,-0.4522705078125,0.30999755859375,-0.7484130859375,0.18310546875,-0.06103515625,0.0,0.4451904296875,-0.8016357421875,0.3985595703125,-296.0,150.0,-151.0,101700.0,-3.119000196456909,0,0
1.8872114999976475,0.373046875,-0.4522705078125,0.30999755859375,-0.7484130859375,0.0,0.0,-0.06103515625,0.44482421875,-0.8017578125,0.3983154296875,-296.0,150.0,-151.0,101700.0,-3.119000196456909,0,0
1.887275100001716,0.373046875,-0.4522705078125,0.30999755859375,-0.7484130859375,0.06103515625,-0.1220703125,-0.3662109375,0.44580078125,-0.80029296875,0.39794921875,-296.0,150.0,-151.0,101700.0,-3.119000196456909,0,0
1.8873335999960545,0.373046875,-0.4522705078125,0.30999755859375,-0.7484130859375,0.06103515625,0.0,-0.06103515625,0.445556640625,-0.7998046875,0.3970947265625,-296.0,150.0,-151.0,101700.0,-3.119000196456909,0,0
1.8873904999927618,0.373046875,-0.4522705078125,0.310028076171875,-0.7484130859375,0.0,-0.06103515625,-0.1220703125,0.4453125,-0.8017578125,0.395751953125,-296.0,150.0,-151.0,101700.0,-3.119000196456909,0,0
1.8874469000002136,0.373046875,-0.4522705078125,0.310028076171875,-0.7484130859375,-0.06103515625,-0.30517578125,0.0,0.4434814453125,-0.8011474609375,0.397216796875,-296.0,150.0,-151.0,101700.0,-3.119000196456909,0,0
1.8875030999915907,0.373046875,-0.4522705078125,0.310028076171875,-0.7484130859375,0.0,0.1220703125,0.0,0.4454345703125,-0.8023681640625,0.3988037109375,-296.0,150.0,-151.0,101700.0,-3.119000196456909,0,0
1.9509530999930575,0.372955322265625,-0.452239990234375,0.310089111328125,-0.748443603515625,0.0,-0.06103515625,0.06103515625,0.4454345703125,-0.7998046875,0.3975830078125,-296.0,149.0,-151.0,101700.0,-3.119000196456909,0,0
1.9510260999959428,0.372955322265625,-0.452239990234375,0.310089111328125,-0.748443603515625,0.06103515625,-0.1220703125,0.0,0.4442138671875,-0.80126953125,0.398193359375,-296.0,149.0,-151.0,101700.0,-3.119000196456909,0,0
1.9510845999902813,0.372955322265625,-0.452239990234375,0.310089111328125,-0.748443603515625,-0.18310546875,-0.18310546875,-0.1220703125,0.4471435546875,-0.8018798828125,0.3978271484375,-296.0,149.0,-151.0,101700.0,-3.119000196456909,0,0
1.9511425999953644,0.372955322265625,-0.452239990234375,0.310089111328125,-0.748443603515625,0.0,-0.244140625,-0.06103515625,0.4461669921875,-0.8009033203125,0.398193359375,-296.0,149.0,-151.0,101700.0,-3.119000196456909,0,0
1.9512014999927487,0.372955322265625,-0.452239990234375,0.310089111328125,-0.748443603515625,0.30517578125,0.1220703125,0.06103515625,0.4459228515625,-0.8011474609375,0.3984375,-296.0,149.0,-151.0,101700.0,-3.119000196456909,0,0
1.9514034000021638,0.372955322265625,-0.452239990234375,0.310089111328125,-0.748443603515625,0.1220703125,0.0,0.06103515625,0.445068359375,-0.8045654296875,0.3985595703125,-296.0,149.0,-151.0,101700.0,-3.119000196456909,0,0
1.951460299998871,0.372955322265625,-0.452239990234375,0.310089111328125,-0.748443603515625,0.06103515625,0.06103515625,-0.18310546875,0.4456787109375,-0.802978515625,0.400390625,-296.0,149.0,-151.0,101700.0,-3.119000196456909,0,0
1.951518699992448,0.372955322265625,-0.452239990234375,0.310089111328125,-0.748443603515625,0.06103515625,0.06103515625,-0.18310546875,0.4456787109375,-0.802978515625,0.400390625,-296.0,149.0,-151.0,101700.0,-3.119000196456909,0,0
1.9515749999991385,0.372955322265625,-0.452239990234375,0.310089111328125,-0.748443603515625,0.30517578125,-0.1220703125,0.18310546875,0.4490966796875,-0.8016357421875,0.3978271484375,-296.0,149.0,-151.0,101700.0,-3.119000196456909,0,0
1.9516297999944072,0.372955322265625,-0.452239990234375,0.310089111328125,-0.748443603515625,-0.18310546875,0.1220703125,-0.1220703125,0.4454345703125,-0.801025390625,0.3980712890625,-296.0,149.0,-151.0,101700.0,-3.119000196456909,0,0
1.9516856999980519,0.372955322265625,-0.452239990234375,0.310089111328125,-0.748443603515625,0.06103515625,-0.18310546875,0.0,0.445556640625,-0.801513671875,0.3974609375,-296.0,149.0,-151.0,101700.0,-3.119000196456909,0,0
2.02093669999158,0.372955322265625,-0.452239990234375,0.310089111328125,-0.748443603515625,0.1220703125,-0.06103515625,-0.06103515625,0.4461669921875,-0.8017578125,0.398681640625,-296.0,149.0,-151.0,101700.0,-3.119000196456909,0,0
2.021012500001234,0.372955322265625,-0.452239990234375,0.310089111328125,-0.748443603515625,0.06103515625,-0.18310546875,0.0,0.445556640625,-0.802490234375,0.3990478515625,-296.0,149.0,-151.0,101700.0,-3.119000196456909,0,0
2.021072399991681,0.372955322265625,-0.452239990234375,0.310089111328125,-0.748443603515625,0.1220703125,-0.1220703125,-0.06103515625,0.4437255859375,-0.802978515625,0.3985595703125,-296.0,149.0,-151.0,101700.0,-3.119000196456909,0,0
2.0310391999955755,0.372955322265625,-0.452239990234375,0.310089111328125,-0.748443603515625,-0.3662109375,-0.18310546875,0.06103515625,0.4466552734375,-0.802001953125,0.3985595703125,-296.0,149.0,-151.0,101700.0,-3.119000196456909,0,0
2.03112109999347,0.372955322265625,-0.452239990234375,0.310089111328125,-0.748443603515625,0.1220703125,0.1220703125,-0.1220703125,0.4461669921875,-0.803466796875,0.39794921875,-296.0,149.0,-151.0,101700.0,-3.119000196456909,0,0
2.031182999999146,0.372955322265625,-0.452239990234375,0.310089111328125,-0.748443603515625,0.1220703125,0.1220703125,-0.1220703125,0.4461669921875,-0.803466796875,0.39794921875,-296.0,149.0,-151.0,101700.0,-3.119000196456909,0,0
2.031283299991628,0.372955322265625,-0.452239990234375,0.31011962890625,-0.748443603515625,-0.06103515625,-0.30517578125,-0.1220703125,0.446533203125,-0.802978515625,0.3990478515625,-296.0,149.0,-151.0,101700.0,-3.119000196456909,0,0
2.0313542999938363,0.372955322265625,-0.452239990234375,0.31011962890625,-0.748443603515625,-0.3662109375,-0.3662109375,-0.06103515625,0.4453125,-0.8017578125,0.3985595703125,-296.0,149.0,-152.0,101700.0,-3.123000144958496,0,0
2.031413699995028,0.372772216796875,-0.4521484375,0.31024169921875,-0.74853515625,-0.1220703125,0.0,0.06103515625,0.4437255859375,-0.8026123046875,0.3983154296875,-296.0,149.0,-152.0,101700.0,-3.123000144958496,0,0
2.0314702999894507,0.372772216796875,-0.4521484375,0.31024169921875,-0.74853515625,0.1220703125,-0.1220703125,0.06103515625,0.4449462890625,-0.8017578125,0.398681640625,-296.0,149.0,-152.0,101700.0,-3.123000144958496,0,0
2.031524599995464,0.372772216796875,-0.4521484375,0.31024169921875,-0.74853515625,-0.1220703125,0.06103515625,-0.1220703125,0.4451904296875,-0.80224609375,0.3966064453125,-296.0,149.0,-152.0,101700.0,-3.123000144958496,0,0
2.0315850999904796,0.372772216796875,-0.4521484375,0.31024169921875,-0.74853515625,0.0,0.06103515625,0.0,0.4462890625,-0.8009033203125,0.3988037109375,-296.0,149.0,-152.0,101700.0,-3.123000144958496,0,0
2.0316421000025002,0.372772216796875,-0.4521484375,0.31024169921875,-0.74853515625,0.06103515625,-0.06103515625,0.06103515625,0.4444580078125,-0.800537109375,0.399169921875,-296.0,149.0,-152.0,101700.0,-3.123000144958496,0,0
2.0773282000009203,0.372772216796875,-0.4521484375,0.31024169921875,-0.74853515625,-0.06103515625,-0.244140625,-0.1220703125,0.4454345703125,-0.8001708984375,0.3968505859375,-296.0,149.0,-152.0,101700.0,-3.123000144958496,0,0
2.0774030999891693,0.372772216796875,-0.4521484375,0.31024169921875,-0.74853515625,0.06103515625,0.0,0.06103515625,0.44677734375,-0.80322265625,0.3985595703125,-296.0,149.0,-152.0,101700.0,-3.123000144958496,0,0
2.0774635999987368,0.372772216796875,-0.4521484375,0.31024169921875,-0.74853515625,0.1220703125,-0.244140625,0.06103515625,0.4447021484375,-0.8016357421875,0.39990234375,-296.0,149.0,-152.0,101700.0,-3.123000144958496,0,0
2.0775227999984054,0.372772216796875,-0.4521484375,0.31024169921875,-0.74853515625,-0.48828125,-0.18310546875,-0.18310546875,0.4444580078125,-0.8016357421875,0.400146484375,-296.0,149.0,-152.0,101700.0,-3.123000144958496,0,0
2.0775915999984136,0.372772216796875,-0.4521484375,0.31024169921875,-0.74853515625,0.06103515625,-0.06103515625,0.0,0.4454345703125,-0.7999267578125,0.398681640625,-296.0,149.0,-152.0,101700.0,-3.123000144958496,0,0
2.077780099993106,0.372772216796875,-0.4521484375,0.31024169921875,-0.74853515625,0.0,-0.1220703125,-0.1220703125,0.4449462890625,-0.8011474609375,0.39794921875,-296.0,149.0,-152.0,101700.0,-3.123000144958496,0,0
2.0778449999925215,0.372772216796875,-0.4521484375,0.31024169921875,-0.74853515625,0.0,-0.06103515625,-0.1220703125,0.4454345703125,-0.799072265625,0.39794921875,-296.0,149.0,-152.0,101700.0,-3.123000144958496,0,0
2.077904399993713,0.372772216796875,-0.4521484375,0.31024169921875,-0.74853515625,0.1220703125,0.06103515625,-0.06103515625,0.4447021484375,-0.7994384765625,0.3963623046875,-296.0,149.0,-152.0,101700.0,-3.123000144958496,0,0
2.0779948999988846,0.372772216796875,-0.4521484375,0.31024169921875,-0.74853515625,-0.06103515625,0.1220703125,-0.1220703125,0.4461669921875,-0.8011474609375,0.398681640625,-296.0,149.0,-152.0,101700.0,-3.123000144958496,0,0
2.0780531999917002,0.372772216796875,-0.4521484375,0.31024169921875,-0.74853515625,-0.06103515625,0.1220703125,-0.1220703125,0.4461669921875,-0.8011474609375,0.398681640625,-296.0,149.0,-152.0,101700.0,-3.123000144958496,0,0
2.0781096999999136,0.37274169921875,-0.4521484375,0.31024169921875,-0.74853515625,0.06103515625,0.1220703125,-0.18310546875,0.4464111328125,-0.802490234375,0.3966064453125,-296.0,149.0,-152.0,101700.0,-3.123000144958496,0,0
2.142376999996486,0.37255859375,-0.45208740234375,0.31036376953125,-0.748626708984375,-0.06103515625,-0.1220703125,-0.1220703125,0.4461669921875,-0.799072265625,0.3990478515625,-296.0,149.0,-151.0,101700.0,-3.121000051498413,0,0
2.142457599999034,0.37255859375,-0.45208740234375,0.31036376953125,-0.748626708984375,-0.06103515625,-0.06103515625,-0.06103515625,0.443359375,-0.802001953125,0.3978271484375,-296.0,149.0,-151.0,101700.0,-3.121000051498413,0,0
2.1425204999977723,0.37255859375,-0.45208740234375,0.31036376953125,-0.748626708984375,0.0,-0.30517578125,-0.1220703125,0.4449462890625,-0.800048828125,0.3974609375,-296.0,149.0,-151.0,101700.0,-3.121000051498413,0,0
2.142579299994395,0.37255859375,-0.45208740234375,0.31036376953125,-0.748626708984375,0.30517578125,0.0,-0.1220703125,0.44482421875,-0.8016357421875,0.3963623046875,-296.0,149.0,-151.0,101700.0,-3.121000051498413,0,0
2.142638999997871,0.37255859375,-0.45208740234375,0.31036376953125,-0.748626708984375,0.06103515625,0.06103515625,-0.06103515625,0.4462890625,-0.7994384765625,0.39697265625,-296.0,149.0,-151.0,101700.0,-3.121000051498413,0,0
2.142771200000425,0.37255859375,-0.45208740234375,0.310333251953125,-0.748626708984375,-0.1220703125,-0.30517578125,-0.06103515625,0.4468994140625,-0.800048828125,0.398193359375,-296.0,149.0,-151.0,101700.0,-3.121000051498413,0,0
2.142834899990703,0.37255859375,-0.45208740234375,0.310333251953125,-0.748626708984375,-0.1220703125,-0.30517578125,-0.06103515625,0.4468994140625,-0.800048828125,0.398193359375,-296.0,149.0,-151.0,101700.0,-3.121000051498413,0,0
2.142894199991133,0.37255859375,-0.45208740234375,0.310333251953125,-0.748626708984375,-0.244140625,0.1220703125,-0.06103515625,0.4451904296875,-0.8033447265625,0.399169921875,-296.0,149.0,-151.0,101700.0,-3.121000051498413,0,0
2.142951299989363,0.37255859375,-0.45208740234375,0.310333251953125,-0.748626708984375,0.06103515625,-0.06103515625,-0.06103515625,0.447509765625,-0.8017578125,0.3990478515625,-296.0,149.0,-151.0,101700.0,-3.121000051498413,0,0
2.1430077999975765,0.37255859375,-0.45208740234375,0.310333251953125,-0.748626708984375,0.06103515625,-0.06103515625,-0.06103515625,0.447509765625,-0.8017578125,0.3990478515625,-296.0,149.0,-151.0,101700.0,-3.121000051498413,0,0
2.143063900002744,0.37255859375,-0.45208740234375,0.310333251953125,-0.748626708984375,-0.30517578125,0.0,0.18310546875,0.447265625,-0.80126953125,0.3995361328125,-296.0,149.0,-151.0,101700.0,-3.121000051498413,0,0
2.205559699999867,0.37255859375,-0.45208740234375,0.310333251953125,-0.748626708984375,0.06103515625,0.0,-0.06103515625,0.4462890625,-0.8018798828125,0.3984375,-296.0,149.0,-151.0,101700.0,-3.121000051498413,0,0
2.2056234999909066,0.37255859375,-0.45208740234375,0.310333251953125,-0.748626708984375,0.0,-0.06103515625,0.0,0.444091796875,-0.8026123046875,0.39794921875,-296.0,149.0,-151.0,101700.0,-3.121000051498413,0,0
2.2056811999937054,0.37255859375,-0.45208740234375,0.310333251953125,-0.748626708984375,0.1220703125,0.1220703125,0.0,0.4453125,-0.801513671875,0.4000244140625,-296.0,149.0,-151.0,101700.0,-3.121000051498413,0,0
2.205735099996673,0.37255859375,-0.45208740234375,0.310333251953125,-0.748626708984375,0.06103515625,-0.244140625,-0.1220703125,0.4461669921875,-0.802734375,0.398681640625,-296.0,149.0,-151.0,101700.0,-3.121000051498413,0,0
2.205789300001925,0.37255859375,-0.45208740234375,0.310333251953125,-0.748626708984375,0.06103515625,-0.244140625,-0.1220703125,0.4461669921875,-0.802734375,0.398681640625,-296.0,149.0,-151.0,101700.0,-3.121000051498413,0,0
2.2058449999894947,0.37255859375,-0.45208740234375,0.310333251953125,-0.748626708984375,-0.06103515625,0.0,0.244140625,0.4473876953125,-0.8037109375,0.399658203125,-296.0,149.0,-151.0,101700.0,-3.121000051498413,0,0
2.2058993999962695,0.37255859375,-0.45208740234375,0.310333251953125,-0.748626708984375,0.244140625,-0.06103515625,-0.06103515625,0.4471435546875,-0.8031005859375,0.4005126953125,-296.0,149.0,-151.0,101700.0,-3.121000051498413,0,0
2.2065175000025192,0.37255859375,-0.45208740234375,0.310333251953125,-0.748626708984375,0.0,-0.30517578125,0.06103515625,0.4462890625,-0.8006591796875,0.39990234375,-296.0,149.0,-151.0,101700.0,-3.121000051498413,0,0
2.2065853999956744,0.37255859375,-0.45208740234375,0.310333251953125,-0.748626708984375,0.0,0.1220703125,-0.06103515625,0.44677734375,-0.80078125,0.39892578125,-296.0,149.0,-151.0,101700.0,-3.121000051498413,0,0
2.2066444999945816,0.372528076171875,-0.45208740234375,0.310333251953125,-0.7486572265625,0.0,-0.06103515625,-0.244140625,0.4462890625,-0.80029296875,0.4000244140625,-295.0,147.0,-150.0,101700.0,-3.121000051498413,0,0
2.2066990999883274,0.372344970703125,-0.451995849609375,0.310455322265625,-0.748748779296875,-0.1220703125,0.06103515625,0.06103515625,0.443603515625,-0.8018798828125,0.3990478515625,-295.0,147.0,-150.0,101700.0,-3.121000051498413,0,0
2.206753899998148,0.372344970703125,-0.451995849609375,0.310455322265625,-0.748748779296875,0.0,-0.1220703125,-0.06103515625,0.4447021484375,-0.802001953125,0.3975830078125,-295.0,147.0,-150.0,101700.0,-3.121000051498413,0,0
2.2068075999995926,0.372344970703125,-0.451995849609375,0.310455322265625,-0.748748779296875,0.1220703125,-0.06103515625,-0.06103515625,0.4456787109375,-0.8017578125,0.39794921875,-295.0,147.0,-150.0,101700.0,-3.121000051498413,0,0
2.273023799993098,0.372344970703125,-0.451995849609375,0.310455322265625,-0.748748779296875,0.0,-0.1220703125,0.0,0.4449462890625,-0.80078125,0.3973388671875,-295.0,147.0,-150.0,101700.0,-3.121000051498413,0,0
2.2730911999969976,0.372344970703125,-0.451995849609375,0.310455322265625,-0.748748779296875,-0.06103515625,-0.06103515625,-0.30517578125,0.4444580078125,-0.80029296875,0.3995361328125,-295.0,147.0,-150.0,101700.0,-3.121000051498413,0,0
2.2731880999926943,0.372344970703125,-0.451995849609375,0.310455322265625,-0.748748779296875,0.06103515625,0.1220703125,-0.1220703125,0.4444580078125,-0.8011474609375,0.3980712890625,-295.0,147.0,-150.0,101700.0,-3.121000051498413,0,0
2.2732455999939702,0.372344970703125,-0.451995849609375,0.310455322265625,-0.748748779296875,0.0,-0.1220703125,-0.30517578125,0.4427490234375,-0.80078125,0.3992919921875,-295.0,147.0,-150.0,101700.0,-3.121000051498413,0,0
2.2732995999976993,0.372344970703125,-0.451995849609375,0.310455322265625,-0.748748779296875,0.30517578125,-0.06103515625,0.0,0.4453125,-0.8004150390625,0.3997802734375,-295.0,147.0,-150.0,101700.0,-3.121000051498413,0,0
2.273390299989842,0.372344970703125,-0.451995849609375,0.310455322265625,-0.748748779296875,-0.06103515625,-0.1220703125,-0.18310546875,0.445556640625,-0.8011474609375,0.399169921875,-295.0,147.0,-150.0,101700.0,-3.121000051498413,0,0
2.2734428999974625,0.372344970703125,-0.451995849609375,0.3104248046875,-0.748748779296875,-0.1220703125,-0.3662109375,-0.06103515625,0.4478759765625,-0.8004150390625,0.3992919921875,-295.0,147.0,-150.0,101700.0,-3.121000051498413,0,0
2.273678999990807,0.372344970703125,-0.451995849609375,0.3104248046875,-0.748748779296875,0.244140625,-0.06103515625,0.0,0.4468994140625,-0.8026123046875,0.4002685546875,-295.0,147.0,-150.0,101700.0,-3.121000051498413,0,0
2.27374289999716,0.372344970703125,-0.451995849609375,0.3104248046875,-0.748748779296875,0.244140625,-0.06103515625,0.0,0.4468994140625,-0.8026123046875,0.4002685546875,-295.0,147.0,-150.0,101700.0,-3.121000051498413,0,0
2.273800199996913,0.372344970703125,-0.451995849609375,0.3104248046875,-0.748748779296875,0.30517578125,0.06103515625,0.06103515625,0.4481201171875,-0.80029296875,0.3974609375,-295.0,147.0,-150.0,101700.0,-3.121000051498413,0,0
2.2738538999983575,0.372344970703125,-0.451995849609375,0.3104248046875,-0.748748779296875,-0.06103515625,0.06103515625,-0.1220703125,0.4447021484375,-0.8006591796875,0.398681640625,-295.0,147.0,-150.0,101700.0,-3.121000051498413,0,0
2.3357231999980286,0.372344970703125,-0.451995849609375,0.3104248046875,-0.748748779296875,0.0,0.06103515625,-0.244140625,0.4483642578125,-0.800537109375,0.3973388671875,-295.0,147.0,-150.0,101700.0,-3.121000051498413,0,0
2.335784599999897,0.372344970703125,-0.451995849609375,0.3104248046875,-0.748748779296875,0.06103515625,0.0,-0.244140625,0.4462890625,-0.8026123046875,0.39794921875,-295.0,147.0,-150.0,101700.0,-3.121000051498413,0,0
2.335840300002019,0.3724365234375,-0.4520263671875,0.31036376953125,-0.748687744140625,-0.06103515625,-0.1220703125,0.06103515625,0.4453125,-0.8028564453125,0.39697265625,-295.0,147.0,-149.0,101700.0,-3.121000051498413,0,0
2.3358937000011792,0.3724365234375,-0.452056884765625,0.31036376953125,-0.748687744140625,0.06103515625,-0.06103515625,0.1220703125,0.4471435546875,-0.803955078125,0.3970947265625,-295.0,147.0,-149.0,101700.0,-3.121000051498413,0,0
2.335947400002624,0.3724365234375,-0.452056884765625,0.31036376953125,-0.748687744140625,0.06103515625,-0.18310546875,-0.18310546875,0.4462890625,-0.802001953125,0.3984375,-295.0,147.0,-149.0,101700.0,-3.121000051498413,0,0
2.3367253999895183,0.3724365234375,-0.452056884765625,0.31036376953125,-0.748687744140625,0.06103515625,-0.18310546875,-0.18310546875,0.4462890625,-0.802001953125,0.3984375,-295.0,147.0,-149.0,101700.0,-3.121000051498413,0,0
2.3367800999985775,0.3724365234375,-0.452056884765625,0.310394287109375,-0.748687744140625,0.06103515625,-0.30517578125,-0.06103515625,0.4439697265625,-0.804443359375,0.3984375,-295.0,147.0,-149.0,101700.0,-3.121000051498413,0,0
2.3368325999908848,0.3724365234375,-0.452056884765625,0.31036376953125,-0.748687744140625,-0.06103515625,0.06103515625,0.0,0.4461669921875,-0.802734375,0.4002685546875,-295.0,147.0,-149.0,101700.0,-3.121000051498413,0,0
2.3368855000007898,0.3724365234375,-0.452056884765625,0.31036376953125,-0.748687744140625,0.0,0.1220703125,0.1220703125,0.44873046875,-0.801025390625,0.396728515625,-295.0,147.0,-149.0,101700.0,-3.121000051498413,0,0
2.3369375999900512,0.3724365234375,-0.452056884765625,0.31036376953125,-0.748687744140625,0.06103515625,-0.1220703125,-0.06103515625,0.4461669921875,-0.8035888671875,0.3995361328125,-295.0,147.0,-149.0,101700.0,-3.121000051498413,0,0
2.336989299990819,0.3724365234375,-0.452056884765625,0.31036376953125,-0.748687744140625,-0.06103515625,-0.06103515625,-0.06103515625,0.4461669921875,-0.8018798828125,0.3990478515625,-295.0,147.0,-149.0,101700.0,-3.121000051498413,0,0
2.4017287000024226,0.3724365234375,-0.452056884765625,0.31036376953125,-0.748687744140625,0.1220703125,0.1220703125,0.1220703125,0.4464111328125,-0.8021240234375,0.3978271484375,-295.0,147.0,-149.0,101700.0,-3.120000123977661,0,0
2.4017929999972694,0.3724365234375,-0.452056884765625,0.310394287109375,-0.748687744140625,0.06103515625,-0.06103515625,0.06103515625,0.4461669921875,-0.80419921875,0.39892578125,-295.0,147.0,-149.0,101700.0,-3.120000123977661,0,0
2.4018485999986297,0.3724365234375,-0.452056884765625,0.310394287109375,-0.748687744140625,0.244140625,0.0,-0.06103515625,0.44580078125,-0.8028564453125,0.399658203125,-295.0,147.0,-149.0,101700.0,-3.120000123977661,0,0
2.401903799996944,0.3724365234375,-0.452056884765625,0.310394287109375,-0.748687744140625,0.244140625,0.0,-0.06103515625,0.44580078125,-0.8028564453125,0.399658203125,-295.0,147.0,-149.0,101700.0,-3.120000123977661,0,0
2.4019580999884056,0.3724365234375,-0.452056884765625,0.31036376953125,-0.748687744140625,-0.1220703125,0.06103515625,-0.48828125,0.447021484375,-0.7994384765625,0.3994140625,-295.0,147.0,-149.0,101700.0,-3.120000123977661,0,0
2.4020111999998335,0.3724365234375,-0.452056884765625,0.31036376953125,-0.748687744140625,0.244140625,-0.06103515625,-0.244140625,0.447021484375,-0.8001708984375,0.3994140625,-295.0,147.0,-149.0,101700.0,-3.120000123977661,0,0
2.4020633999898564,0.3724365234375,-0.452056884765625,0.31036376953125,-0.748687744140625,0.06103515625,-0.06103515625,-0.1220703125,0.4471435546875,-0.8028564453125,0.3973388671875,-295.0,147.0,-149.0,101700.0,-3.120000123977661,0,0
2.402212499990128,0.3724365234375,-0.452056884765625,0.31036376953125,-0.748687744140625,-0.06103515625,0.18310546875,0.0,0.4447021484375,-0.8017578125,0.398193359375,-295.0,147.0,-149.0,101700.0,-3.120000123977661,0,0
2.402271400002064,0.3724365234375,-0.452056884765625,0.31036376953125,-0.748687744140625,0.30517578125,0.1220703125,0.0,0.4473876953125,-0.801025390625,0.3990478515625,-295.0,147.0,-149.0,101700.0,-3.120000123977661,0,0
2.4023251999897184,0.3724365234375,-0.452056884765625,0.31036376953125,-0.748687744140625,-0.1220703125,0.06103515625,0.1220703125,0.4453125,-0.8037109375,0.400634765625,-295.0,147.0,-149.0,101700.0,-3.120000123977661,0,0
2.4023780999996234,0.3724365234375,-0.452056884765625,0.31036376953125,-0.748687744140625,-0.1220703125,0.06103515625,0.1220703125,0.4453125,-0.8037109375,0.400634765625,-295.0,147.0,-149.0,101700.0,-3.120000123977661,0,0
2.402432199989562,0.3724365234375,-0.452056884765625,0.31036376953125,-0.748687744140625,0.0,-0.06103515625,0.06103515625,0.4453125,-0.8026123046875,0.397216796875,-295.0,147.0,-148.0,101700.0,-3.120000123977661,0,0
2.40248530000099,0.3724365234375,-0.452056884765625,0.31036376953125,-0.748687744140625,0.0,-0.06103515625,-0.244140625,0.4442138671875,-0.8028564453125,0.3975830078125,-295.0,147.0,-148.0,101700.0,-3.120000123977661,0,0
