Time stamp(sec),quaternion_0,quaternion_1,quaternion_2,quaternion_3,roll_angular_rate,pitch_angular_rate,yaw_angular_rate,acc_X,acc_Y,acc_Z,mag_X,mag_Y,mag_Z,pressure,altitude
1667.232001,-0.903228759765625,0.049591064453125,0.011932373046875,0.426055908203125,-0.48828125,0.0,-0.06103515625,0.06005859375,-0.0789794921875,1.0020751953125,-238.0,192.0,33.0,101917.0,-4.921000003814697,0,0
1667.239018,-0.903228759765625,0.049560546875,0.01190185546875,0.426055908203125,-0.30517578125,0.48828125,0.06103515625,0.061767578125,-0.0819091796875,1.0025634765625,-238.0,192.0,33.0,101917.0,-4.921000003814697,0,0
1667.245053,-0.903228759765625,0.049560546875,0.01190185546875,0.426055908203125,-0.30517578125,0.48828125,0.06103515625,0.061767578125,-0.0819091796875,1.0025634765625,-238.0,192.0,33.0,101917.0,-4.921000003814697,0,0
1667.252001,-0.903228759765625,0.049560546875,0.0118408203125,0.426055908203125,-0.06103515625,0.54931640625,0.0,0.0582275390625,-0.081298828125,1.00244140625,-238.0,192.0,33.0,101917.0,-4.921000003814697,0,0
1667.259015,-0.903228759765625,0.049591064453125,0.011810302734375,0.426055908203125,0.0,-0.1220703125,-0.18310546875,0.06201171875,-0.085693359375,1.0008544921875,-238.0,192.0,33.0,101917.0,-4.921000003814697,0,0
1667.266,-0.903228759765625,0.04962158203125,0.011810302734375,0.426055908203125,-0.244140625,0.1220703125,-0.18310546875,0.0638427734375,-0.0860595703125,1.00390625,-238.0,192.0,33.0,101917.0,-4.921000003814697,0,0
1667.272999,-0.903228759765625,0.04962158203125,0.011810302734375,0.426055908203125,-0.06103515625,0.18310546875,0.1220703125,0.065185546875,-0.0814208984375,1.000732421875,-238.0,192.0,33.0,101917.0,-4.921000003814697,0,0
1667.28002,-0.903228759765625,0.049652099609375,0.011810302734375,0.426055908203125,-0.06103515625,0.18310546875,0.18310546875,0.0657958984375,-0.084716796875,0.999755859375,-238.0,192.0,33.0,101917.0,-4.922000408172607,0,0
1667.287003,-0.90313720703125,0.049652099609375,0.011810302734375,0.42626953125,0.0,0.3662109375,0.1220703125,0.0665283203125,-0.0830078125,1.000244140625,-238.0,192.0,34.0,101917.0,-4.922000408172607,0,0
1667.294018,-0.90313720703125,0.049713134765625,0.011810302734375,0.42626953125,0.30517578125,0.244140625,0.244140625,0.0697021484375,-0.0838623046875,0.999755859375,-238.0,192.0,34.0,101917.0,-4.922000408172607,0,0
1667.315017,-0.90313720703125,0.04974365234375,0.011871337890625,0.42626953125,-0.18310546875,0.244140625,0.18310546875,0.0665283203125,-0.0765380859375,1.0028076171875,-238.0,192.0,34.0,101917.0,-4.922000408172607,0,0
1667.322001,-0.90313720703125,0.0496826171875,0.0118408203125,0.42626953125,-0.18310546875,0.3662109375,0.06103515625,0.0595703125,-0.0765380859375,1.00244140625,-238.0,192.0,34.0,101917.0,-4.922000408172607,0,0
1667.329018,-0.90313720703125,0.049652099609375,0.011810302734375,0.42626953125,-0.48828125,0.67138671875,-0.18310546875,0.053466796875,-0.0787353515625,1.00146484375,-238.0,192.0,34.0,101917.0,-4.922000408172607,0,0
1667.335053,-0.90313720703125,0.049652099609375,0.011810302734375,0.42626953125,-0.48828125,0.67138671875,-0.18310546875,0.053466796875,-0.0787353515625,1.00146484375,-238.0,192.0,34.0,101917.0,-4.922000408172607,0,0
1667.342001,-0.90313720703125,0.04962158203125,0.01165771484375,0.42626953125,0.0,0.3662109375,0.06103515625,0.0482177734375,-0.083740234375,0.994384765625,-238.0,192.0,34.0,101917.0,-4.922000408172607,0,0
1667.349015,-0.90313720703125,0.049560546875,0.011749267578125,0.42626953125,1.953125,-0.18310546875,0.06103515625,0.071533203125,-0.076904296875,1.001220703125,-238.0,192.0,34.0,101917.0,-4.922000408172607,0,0
1667.355995,-0.90313720703125,0.04949951171875,0.0118408203125,0.42626953125,1.953125,-0.18310546875,-0.30517578125,0.0828857421875,-0.0704345703125,1.0091552734375,-238.0,192.0,34.0,101917.0,-4.922000408172607,0,0
1667.362995,-0.90313720703125,0.04931640625,0.011993408203125,0.426300048828125,0.67138671875,0.1220703125,-0.732421875,0.068359375,-0.055419921875,1.0118408203125,-238.0,192.0,34.0,101917.0,-4.922000408172607,0,0
1667.370019,-0.90313720703125,0.04931640625,0.01202392578125,0.42626953125,-1.03759765625,-0.6103515625,0.48828125,0.065185546875,-0.066162109375,1.000244140625,-238.0,192.0,34.0,101917.0,-4.922000408172607,0,0
1667.377003,-0.903167724609375,0.04937744140625,0.0120849609375,0.426239013671875,-0.732421875,-0.30517578125,1.28173828125,0.0770263671875,-0.0784912109375,0.9989013671875,-238.0,192.0,34.0,101917.0,-4.920000076293945,0,0
1667.384019,-0.903106689453125,0.049468994140625,0.012176513671875,0.426361083984375,0.0,-0.06103515625,0.91552734375,0.082275390625,-0.0860595703125,1.005126953125,-237.0,192.0,34.0,101917.0,-4.920000076293945,0,0
1667.390997,-0.903106689453125,0.0494384765625,0.01220703125,0.426361083984375,0.30517578125,-0.30517578125,-0.67138671875,0.0701904296875,-0.0751953125,0.9990234375,-237.0,192.0,34.0,101917.0,-4.920000076293945,0,0
1667.397996,-0.903106689453125,0.049468994140625,0.012237548828125,0.426361083984375,0.18310546875,-0.54931640625,-0.6103515625,0.070068359375,-0.0731201171875,0.998291015625,-237.0,192.0,34.0,101917.0,-4.920000076293945,0,0
1667.405016,-0.903076171875,0.049530029296875,0.01226806640625,0.426361083984375,-0.8544921875,1.03759765625,0.8544921875,0.07275390625,-0.0928955078125,0.9967041015625,-237.0,192.0,34.0,101917.0,-4.920000076293945,0,0
1667.412001,-0.903106689453125,0.049652099609375,0.012115478515625,0.42633056640625,-0.8544921875,1.40380859375,0.6103515625,0.066162109375,-0.097900390625,1.0030517578125,-237.0,192.0,34.0,101917.0,-4.920000076293945,0,0
1667.419018,-0.903106689453125,0.049713134765625,0.012054443359375,0.42633056640625,0.0,0.79345703125,0.0,0.0604248046875,-0.093994140625,1.0020751953125,-237.0,192.0,34.0,101917.0,-4.920000076293945,0,0
1667.425995,-0.903106689453125,0.049713134765625,0.01202392578125,0.42633056640625,0.30517578125,0.1220703125,-0.06103515625,0.057861328125,-0.0888671875,1.0025634765625,-237.0,192.0,34.0,101917.0,-4.920000076293945,0,0
1667.432023,-0.903106689453125,0.049713134765625,0.01202392578125,0.42633056640625,0.30517578125,0.1220703125,-0.06103515625,0.057861328125,-0.0888671875,1.0025634765625,-237.0,192.0,34.0,101917.0,-4.920000076293945,0,0
1667.439015,-0.903106689453125,0.049774169921875,0.01190185546875,0.42633056640625,-0.06103515625,0.91552734375,0.0,0.0595703125,-0.08837890625,1.0076904296875,-237.0,192.0,34.0,101917.0,-4.920000076293945,0,0
1667.445996,-0.903106689453125,0.049774169921875,0.01190185546875,0.42633056640625,0.1220703125,0.6103515625,-0.244140625,0.05908203125,-0.0828857421875,1.0052490234375,-237.0,192.0,34.0,101917.0,-4.920000076293945,0,0
1667.452995,-0.903106689453125,0.049774169921875,0.011810302734375,0.42633056640625,0.18310546875,0.244140625,-0.3662109375,0.0528564453125,-0.0853271484375,1.0001220703125,-237.0,192.0,34.0,101917.0,-4.920000076293945,0,0
1667.460019,-0.903106689453125,0.04974365234375,0.01177978515625,0.426300048828125,0.48828125,-0.48828125,-0.42724609375,0.0562744140625,-0.0775146484375,0.9974365234375,-237.0,192.0,34.0,101917.0,-4.920000076293945,0,0
1667.467003,-0.903106689453125,0.0496826171875,0.011749267578125,0.42633056640625,0.54931640625,-0.1220703125,-0.244140625,0.0567626953125,-0.076171875,0.998046875,-237.0,192.0,34.0,101917.0,-4.920000076293945,0,0
1667.487996,-0.903076171875,0.04962158203125,0.011749267578125,0.426422119140625,0.732421875,0.6103515625,0.1220703125,0.0614013671875,-0.075927734375,1.0029296875,-237.0,193.0,34.0,101917.0,-4.920000076293945,0,0
1667.495016,-0.903076171875,0.049530029296875,0.011749267578125,0.426422119140625,0.3662109375,-0.18310546875,-0.30517578125,0.062744140625,-0.0704345703125,1.0047607421875,-237.0,193.0,34.0,101917.0,-4.920000076293945,0,0
1667.502001,-0.903076171875,0.04949951171875,0.011749267578125,0.426422119140625,-0.3662109375,-0.244140625,-0.06103515625,0.0660400390625,-0.06982421875,1.0052490234375,-237.0,193.0,34.0,101917.0,-4.920000076293945,0,0
1667.509018,-0.903076171875,0.049468994140625,0.011810302734375,0.426422119140625,-0.244140625,0.06103515625,0.1220703125,0.0672607421875,-0.0687255859375,1.0032958984375,-237.0,193.0,34.0,101917.0,-4.920000076293945,0,0
1667.515995,-0.903076171875,0.049468994140625,0.011871337890625,0.426422119140625,-0.244140625,0.42724609375,0.0,0.0711669921875,-0.073974609375,1.0003662109375,-237.0,193.0,34.0,101917.0,-4.920000076293945,0,0
1667.522023,-0.903076171875,0.049468994140625,0.011871337890625,0.426422119140625,-0.244140625,0.42724609375,0.0,0.0711669921875,-0.073974609375,1.0003662109375,-237.0,193.0,34.0,101917.0,-4.920000076293945,0,0
1667.529015,-0.903076171875,0.04949951171875,0.011932373046875,0.426422119140625,-0.06103515625,0.1220703125,0.30517578125,0.0693359375,-0.0782470703125,0.997802734375,-237.0,193.0,34.0,101917.0,-4.920000076293945,0,0
1667.536,-0.903076171875,0.049530029296875,0.011962890625,0.426422119140625,-0.1220703125,-0.06103515625,0.244140625,0.0760498046875,-0.0816650390625,1.003662109375,-237.0,193.0,34.0,101917.0,-4.920000076293945,0,0
1667.542999,-0.903076171875,0.049560546875,0.01202392578125,0.426422119140625,-0.30517578125,0.244140625,0.30517578125,0.078125,-0.08251953125,1.0072021484375,-237.0,193.0,34.0,101917.0,-4.920000076293945,0,0
1667.55002,-0.903045654296875,0.049591064453125,0.012054443359375,0.426422119140625,-0.79345703125,0.244140625,0.18310546875,0.0750732421875,-0.0853271484375,1.0009765625,-237.0,193.0,34.0,101917.0,-4.920000076293945,0,0
1667.557003,-0.903045654296875,0.049652099609375,0.0120849609375,0.426422119140625,-0.42724609375,0.6103515625,0.18310546875,0.0723876953125,-0.087890625,0.9989013671875,-237.0,193.0,34.0,101917.0,-4.920000076293945,0,0
1667.577996,-0.903045654296875,0.0498046875,0.012054443359375,0.426422119140625,0.244140625,0.42724609375,0.0,0.0665283203125,-0.087646484375,1.007080078125,-237.0,194.0,35.0,101917.0,-4.922000408172607,0,0
1667.585017,-0.903045654296875,0.049835205078125,0.01202392578125,0.426422119140625,0.244140625,0.30517578125,-0.244140625,0.0634765625,-0.0877685546875,1.00537109375,-237.0,194.0,35.0,101917.0,-4.922000408172607,0,0
1667.592001,-0.903045654296875,0.049835205078125,0.011993408203125,0.426422119140625,-0.244140625,0.30517578125,-0.3662109375,0.0555419921875,-0.0836181640625,1.0018310546875,-237.0,194.0,35.0,101917.0,-4.922000408172607,0,0
1667.612999,-0.903076171875,0.049713134765625,0.01177978515625,0.426422119140625,0.42724609375,0.06103515625,-0.06103515625,0.052734375,-0.081787109375,0.9952392578125,-237.0,194.0,35.0,101917.0,-4.922000408172607,0,0
1667.619032,-0.903076171875,0.049713134765625,0.01177978515625,0.426422119140625,0.42724609375,0.06103515625,-0.06103515625,0.052734375,-0.081787109375,0.9952392578125,-237.0,194.0,35.0,101917.0,-4.922000408172607,0,0
1667.626,-0.903076171875,0.049652099609375,0.011749267578125,0.426422119140625,0.54931640625,0.244140625,0.3662109375,0.0570068359375,-0.07177734375,1.0020751953125,-237.0,194.0,35.0,101917.0,-4.922000408172607,0,0
1667.632995,-0.903076171875,0.04962158203125,0.011749267578125,0.426422119140625,0.1220703125,0.1220703125,0.30517578125,0.0589599609375,-0.072021484375,1.003662109375,-237.0,194.0,35.0,101917.0,-4.922000408172607,0,0
1667.640019,-0.903076171875,0.049560546875,0.011749267578125,0.426422119140625,-0.1220703125,0.3662109375,0.06103515625,0.066650390625,-0.074462890625,1.0059814453125,-237.0,194.0,35.0,101917.0,-4.922000408172607,0,0
1667.647003,-0.903076171875,0.049530029296875,0.01177978515625,0.426422119140625,-0.30517578125,0.18310546875,-0.18310546875,0.0654296875,-0.0721435546875,1.0054931640625,-237.0,194.0,35.0,101917.0,-4.922000408172607,0,0
1667.654018,-0.903076171875,0.04949951171875,0.011810302734375,0.426422119140625,-0.79345703125,0.42724609375,-0.244140625,0.0648193359375,-0.0726318359375,1.0047607421875,-237.0,194.0,35.0,101917.0,-4.922000408172607,0,0
1667.660997,-0.903076171875,0.04949951171875,0.0118408203125,0.426422119140625,0.06103515625,0.48828125,0.30517578125,0.0689697265625,-0.0765380859375,1.0030517578125,-237.0,194.0,35.0,101917.0,-4.922000408172607,0,0
1667.667996,-0.903076171875,0.049530029296875,0.011871337890625,0.426422119140625,-0.1220703125,0.244140625,0.06103515625,0.0733642578125,-0.0799560546875,1.0020751953125,-237.0,194.0,35.0,101917.0,-4.922000408172607,0,0
1667.675016,-0.903076171875,0.049560546875,0.011932373046875,0.426422119140625,0.0,0.0,-0.06103515625,0.0711669921875,-0.082763671875,1.00048828125,-237.0,194.0,35.0,101917.0,-4.922000408172607,0,0
1667.682001,-0.903076171875,0.049560546875,0.011932373046875,0.426422119140625,0.42724609375,-0.3662109375,0.1220703125,0.072509765625,-0.0797119140625,0.9996337890625,-238.0,195.0,35.0,101917.0,-4.923000335693359,0,0
1667.689018,-0.90301513671875,0.049591064453125,0.011962890625,0.426483154296875,0.1220703125,0.0,-0.1220703125,0.0699462890625,-0.0823974609375,1.001708984375,-238.0,195.0,35.0,101917.0,-4.923000335693359,0,0
1667.695995,-0.90301513671875,0.04962158203125,0.011993408203125,0.426483154296875,-0.1220703125,0.30517578125,0.30517578125,0.0703125,-0.084228515625,0.997802734375,-238.0,195.0,35.0,101917.0,-4.923000335693359,0,0
1667.702994,-0.90301513671875,0.049652099609375,0.01202392578125,0.426483154296875,0.06103515625,0.30517578125,0.30517578125,0.07080078125,-0.084716796875,0.9952392578125,-238.0,195.0,35.0,101917.0,-4.923000335693359,0,0
1667.709026,-0.90301513671875,0.049652099609375,0.01202392578125,0.426483154296875,0.06103515625,0.30517578125,0.30517578125,0.07080078125,-0.084716796875,0.9952392578125,-238.0,195.0,35.0,101917.0,-4.923000335693359,0,0
1667.715995,-0.90301513671875,0.04974365234375,0.012054443359375,0.426483154296875,-0.1220703125,0.3662109375,-0.06103515625,0.06884765625,-0.0848388671875,1.00244140625,-238.0,195.0,35.0,101917.0,-4.923000335693359,0,0
1667.722995,-0.90301513671875,0.049774169921875,0.012054443359375,0.426483154296875,-0.18310546875,0.6103515625,-0.06103515625,0.0667724609375,-0.08349609375,1.0057373046875,-238.0,195.0,35.0,101917.0,-4.923000335693359,0,0
1667.730019,-0.90301513671875,0.049774169921875,0.01202392578125,0.426483154296875,-0.18310546875,0.54931640625,0.1220703125,0.063720703125,-0.082763671875,1.0054931640625,-238.0,195.0,35.0,101917.0,-4.923000335693359,0,0
1667.750997,-0.90301513671875,0.04974365234375,0.011962890625,0.426483154296875,0.06103515625,0.3662109375,-0.1220703125,0.0579833984375,-0.0789794921875,1.000732421875,-238.0,195.0,35.0,101917.0,-4.923000335693359,0,0
1667.757996,-0.90301513671875,0.0496826171875,0.01190185546875,0.426483154296875,0.06103515625,0.54931640625,-0.48828125,0.0543212890625,-0.0760498046875,1.002197265625,-238.0,195.0,35.0,101917.0,-4.923000335693359,0,0
1667.765016,-0.90301513671875,0.049652099609375,0.011871337890625,0.426483154296875,0.244140625,0.54931640625,-0.06103515625,0.052490234375,-0.0760498046875,1.0,-238.0,195.0,35.0,101917.0,-4.923000335693359,0,0
1667.772001,-0.90301513671875,0.04962158203125,0.0118408203125,0.426483154296875,0.18310546875,0.42724609375,-0.06103515625,0.055419921875,-0.072021484375,0.9989013671875,-238.0,195.0,35.0,101917.0,-4.923000335693359,0,0
1667.779018,-0.903045654296875,0.049560546875,0.011810302734375,0.426483154296875,0.06103515625,0.1220703125,0.0,0.0555419921875,-0.074462890625,1.000732421875,-236.0,193.0,37.0,101917.0,-4.922000408172607,0,0
1667.785995,-0.90301513671875,0.049530029296875,0.01177978515625,0.42657470703125,0.06103515625,0.18310546875,0.18310546875,0.056396484375,-0.075927734375,1.002197265625,-236.0,193.0,37.0,101917.0,-4.922000408172607,0,0
1667.792994,-0.90301513671875,0.04949951171875,0.01177978515625,0.42657470703125,-0.06103515625,0.06103515625,0.18310546875,0.0584716796875,-0.07421875,1.00048828125,-236.0,193.0,37.0,101917.0,-4.922000408172607,0,0
1667.800019,-0.90301513671875,0.04949951171875,0.01177978515625,0.42657470703125,-0.06103515625,0.244140625,0.18310546875,0.0640869140625,-0.0782470703125,1.001220703125,-236.0,193.0,37.0,101917.0,-4.922000408172607,0,0
1667.806051,-0.90301513671875,0.04949951171875,0.01177978515625,0.42657470703125,-0.06103515625,0.244140625,0.18310546875,0.0640869140625,-0.0782470703125,1.001220703125,-236.0,193.0,37.0,101917.0,-4.922000408172607,0,0
1667.812995,-0.90301513671875,0.049530029296875,0.0118408203125,0.42657470703125,0.244140625,-0.06103515625,0.18310546875,0.0670166015625,-0.08056640625,1.0023193359375,-236.0,193.0,37.0,101917.0,-4.922000408172607,0,0
1667.820019,-0.902984619140625,0.049530029296875,0.0118408203125,0.42657470703125,-0.06103515625,-0.06103515625,0.06103515625,0.0733642578125,-0.084228515625,1.000732421875,-236.0,193.0,37.0,101917.0,-4.922000408172607,0,0
1667.840997,-0.902984619140625,0.04962158203125,0.01190185546875,0.42657470703125,0.18310546875,0.06103515625,0.1220703125,0.070068359375,-0.0845947265625,1.0,-236.0,193.0,37.0,101917.0,-4.922000408172607,0,0
1667.847996,-0.902984619140625,0.049652099609375,0.011932373046875,0.42657470703125,0.1220703125,0.18310546875,0.1220703125,0.070556640625,-0.0821533203125,1.0010986328125,-236.0,193.0,37.0,101917.0,-4.922000408172607,0,0
1667.855017,-0.902984619140625,0.0496826171875,0.011962890625,0.42657470703125,0.18310546875,0.48828125,0.0,0.0704345703125,-0.082275390625,1.0032958984375,-236.0,193.0,37.0,101917.0,-4.922000408172607,0,0
1667.862001,-0.902984619140625,0.049713134765625,0.011962890625,0.42657470703125,-0.18310546875,0.42724609375,0.1220703125,0.06884765625,-0.085693359375,1.0020751953125,-236.0,193.0,37.0,101917.0,-4.922000408172607,0,0
1667.869018,-0.902984619140625,0.049713134765625,0.011993408203125,0.42657470703125,-0.06103515625,0.48828125,0.0,0.0667724609375,-0.081298828125,1.0040283203125,-236.0,193.0,37.0,101917.0,-4.922000408172607,0,0
1667.875999,-0.902984619140625,0.049713134765625,0.011993408203125,0.42657470703125,-0.06103515625,0.42724609375,-0.06103515625,0.0653076171875,-0.0806884765625,1.00537109375,-236.0,193.0,37.0,101917.0,-4.922000408172607,0,0
1667.882999,-0.902984619140625,0.049713134765625,0.011993408203125,0.42657470703125,0.06103515625,0.48828125,0.1220703125,0.0635986328125,-0.080322265625,1.0050048828125,-237.0,193.0,35.0,101917.0,-4.922000408172607,0,0
1667.89002,-0.9029541015625,0.0496826171875,0.011962890625,0.4266357421875,-0.1220703125,0.18310546875,-0.30517578125,0.0625,-0.07861328125,1.0035400390625,-237.0,193.0,35.0,101917.0,-4.922000408172607,0,0
1667.896056,-0.9029541015625,0.0496826171875,0.011962890625,0.4266357421875,-0.1220703125,0.18310546875,-0.30517578125,0.0625,-0.07861328125,1.0035400390625,-237.0,193.0,35.0,101917.0,-4.922000408172607,0,0
1667.902999,-0.9029541015625,0.049652099609375,0.01190185546875,0.4266357421875,0.06103515625,0.18310546875,-0.3662109375,0.055908203125,-0.0777587890625,0.99755859375,-237.0,193.0,35.0,101917.0,-4.922000408172607,0,0
1667.91002,-0.9029541015625,0.04962158203125,0.01190185546875,0.4266357421875,-0.06103515625,0.30517578125,-0.06103515625,0.056884765625,-0.07470703125,0.9989013671875,-237.0,193.0,35.0,101917.0,-4.922000408172607,0,0
1667.917003,-0.9029541015625,0.049591064453125,0.011871337890625,0.4266357421875,-0.18310546875,0.3662109375,-0.18310546875,0.0582275390625,-0.0750732421875,1.000244140625,-237.0,193.0,35.0,101917.0,-4.922000408172607,0,0
1667.924018,-0.9029541015625,0.049560546875,0.0118408203125,0.4266357421875,0.1220703125,0.244140625,0.06103515625,0.0579833984375,-0.0750732421875,1.00146484375,-237.0,193.0,35.0,101917.0,-4.922000408172607,0,0
1667.930997,-0.9029541015625,0.049530029296875,0.0118408203125,0.4266357421875,-0.1220703125,0.48828125,0.30517578125,0.0606689453125,-0.0784912109375,1.001708984375,-237.0,193.0,35.0,101917.0,-4.922000408172607,0,0
1667.937996,-0.9029541015625,0.049530029296875,0.0118408203125,0.4266357421875,0.06103515625,0.48828125,0.30517578125,0.0618896484375,-0.079833984375,1.0030517578125,-237.0,193.0,35.0,101917.0,-4.922000408172607,0,0
1667.945016,-0.9029541015625,0.049530029296875,0.011810302734375,0.4266357421875,-0.18310546875,0.244140625,0.18310546875,0.063720703125,-0.0794677734375,1.004150390625,-237.0,193.0,35.0,101917.0,-4.922000408172607,0,0
1667.952001,-0.9029541015625,0.049530029296875,0.011810302734375,0.4266357421875,0.1220703125,0.1220703125,0.06103515625,0.065673828125,-0.081787109375,1.0035400390625,-237.0,193.0,35.0,101917.0,-4.922000408172607,0,0
1667.959018,-0.9029541015625,0.049560546875,0.0118408203125,0.4266357421875,-0.18310546875,0.244140625,0.06103515625,0.0684814453125,-0.0794677734375,1.005126953125,-237.0,193.0,35.0,101917.0,-4.922000408172607,0,0
1667.965995,-0.9029541015625,0.049560546875,0.0118408203125,0.4266357421875,-0.1220703125,0.18310546875,0.1220703125,0.0665283203125,-0.080078125,1.0018310546875,-237.0,193.0,35.0,101917.0,-4.922000408172607,0,0
1667.972994,-0.9029541015625,0.049560546875,0.011871337890625,0.4266357421875,-0.06103515625,0.06103515625,0.06103515625,0.0662841796875,-0.0799560546875,1.0,-237.0,193.0,35.0,101917.0,-4.922000408172607,0,0
1667.980019,-0.9029541015625,0.049591064453125,0.011871337890625,0.4266357421875,0.1220703125,-0.1220703125,0.0,0.0693359375,-0.0843505859375,1.000244140625,-236.0,194.0,35.0,101917.0,-4.922000408172607,0,0
1667.986998,-0.9029541015625,0.04962158203125,0.01190185546875,0.4266357421875,-0.30517578125,0.244140625,-0.3662109375,0.0711669921875,-0.0833740234375,1.00048828125,-236.0,194.0,35.0,101917.0,-4.922000408172607,0,0
1667.99303,-0.9029541015625,0.04962158203125,0.01190185546875,0.4266357421875,-0.30517578125,0.244140625,-0.3662109375,0.0711669921875,-0.0833740234375,1.00048828125,-236.0,194.0,35.0,101917.0,-4.922000408172607,0,0
1668.014019,-0.9029541015625,0.049713134765625,0.011962890625,0.4266357421875,0.1220703125,0.42724609375,-0.06103515625,0.068359375,-0.0814208984375,1.0010986328125,-236.0,194.0,35.0,101917.0,-4.922000408172607,0,0
1668.020997,-0.9029541015625,0.049713134765625,0.011962890625,0.4266357421875,-0.30517578125,0.42724609375,-0.30517578125,0.0655517578125,-0.0782470703125,1.0032958984375,-236.0,194.0,35.0,101917.0,-4.922000408172607,0,0
1668.027996,-0.9029541015625,0.049713134765625,0.011993408203125,0.4266357421875,-0.244140625,0.48828125,0.06103515625,0.0660400390625,-0.08056640625,1.0037841796875,-236.0,194.0,35.0,101917.0,-4.922000408172607,0,0
1668.035016,-0.9029541015625,0.049713134765625,0.011993408203125,0.4266357421875,-0.1220703125,0.42724609375,0.06103515625,0.065673828125,-0.077880859375,1.0025634765625,-236.0,194.0,35.0,101917.0,-4.922000408172607,0,0
1668.042001,-0.9029541015625,0.049713134765625,0.011993408203125,0.4266357421875,-0.244140625,0.244140625,0.06103515625,0.0628662109375,-0.0791015625,1.0003662109375,-236.0,194.0,35.0,101917.0,-4.922000408172607,0,0
1668.049018,-0.9029541015625,0.0496826171875,0.011962890625,0.4266357421875,-0.244140625,0.67138671875,0.06103515625,0.0587158203125,-0.077880859375,0.99951171875,-236.0,194.0,35.0,101917.0,-4.922000408172607,0,0
1668.055995,-0.9029541015625,0.049652099609375,0.011932373046875,0.4266357421875,-0.18310546875,0.3662109375,-0.244140625,0.060546875,-0.0751953125,1.000732421875,-236.0,194.0,35.0,101917.0,-4.922000408172607,0,0
1668.062994,-0.9029541015625,0.04962158203125,0.011932373046875,0.4266357421875,-0.06103515625,0.18310546875,0.18310546875,0.0609130859375,-0.07568359375,0.9996337890625,-236.0,194.0,35.0,101917.0,-4.922000408172607,0,0
1668.070019,-0.9029541015625,0.049591064453125,0.011932373046875,0.4266357421875,0.1220703125,0.244140625,0.18310546875,0.0584716796875,-0.0767822265625,0.9998779296875,-236.0,194.0,35.0,101917.0,-4.922000408172607,0,0
1668.076998,-0.9029541015625,0.049591064453125,0.01190185546875,0.4266357421875,0.0,0.1220703125,0.06103515625,0.0621337890625,-0.0771484375,1.0018310546875,-236.0,194.0,35.0,101917.0,-4.922000408172607,0,0
1668.08303,-0.9029541015625,0.049591064453125,0.01190185546875,0.4266357421875,0.0,0.1220703125,0.06103515625,0.0621337890625,-0.0771484375,1.0018310546875,-236.0,194.0,35.0,101917.0,-4.922000408172607,0,0
1668.104019,-0.902984619140625,0.049560546875,0.011871337890625,0.42657470703125,-0.1220703125,-0.06103515625,0.06103515625,0.0643310546875,-0.0831298828125,1.0018310546875,-235.0,194.0,35.0,101917.0,-4.922000408172607,0,0
1668.110997,-0.902984619140625,0.049591064453125,0.011871337890625,0.42657470703125,0.244140625,0.244140625,0.1220703125,0.0654296875,-0.08447265625,0.9990234375,-235.0,194.0,35.0,101917.0,-4.922000408172607,0,0
1668.117996,-0.902984619140625,0.049591064453125,0.011871337890625,0.42657470703125,0.18310546875,0.06103515625,-0.1220703125,0.069091796875,-0.0833740234375,0.999755859375,-235.0,194.0,35.0,101917.0,-4.922000408172607,0,0
1668.125016,-0.902984619140625,0.049652099609375,0.01190185546875,0.42657470703125,0.1220703125,0.18310546875,-0.18310546875,0.068359375,-0.0848388671875,1.001220703125,-235.0,194.0,35.0,101917.0,-4.922000408172607,0,0
1668.132001,-0.902984619140625,0.049652099609375,0.011932373046875,0.42657470703125,0.30517578125,0.1220703125,0.0,0.071533203125,-0.0811767578125,1.002197265625,-235.0,194.0,35.0,101917.0,-4.923000335693359,0,0
1668.139018,-0.902984619140625,0.0496826171875,0.011932373046875,0.42657470703125,0.0,0.06103515625,0.18310546875,0.0699462890625,-0.08203125,0.9989013671875,-235.0,194.0,35.0,101917.0,-4.923000335693359,0,0
1668.145999,-0.902984619140625,0.049713134765625,0.011962890625,0.42657470703125,-0.06103515625,0.244140625,0.244140625,0.0706787109375,-0.080810546875,1.003662109375,-235.0,194.0,35.0,101917.0,-4.923000335693359,0,0
1668.152999,-0.902984619140625,0.049713134765625,0.011962890625,0.42657470703125,-0.1220703125,0.30517578125,-0.244140625,0.068115234375,-0.079833984375,1.00146484375,-235.0,194.0,35.0,101917.0,-4.923000335693359,0,0
1668.16002,-0.902984619140625,0.049713134765625,0.011993408203125,0.42657470703125,-0.3662109375,0.42724609375,-0.1220703125,0.06787109375,-0.080078125,1.0015869140625,-235.0,194.0,35.0,101917.0,-4.923000335693359,0,0
1668.166998,-0.902984619140625,0.0496826171875,0.011993408203125,0.42657470703125,-0.244140625,0.48828125,-0.06103515625,0.06494140625,-0.0780029296875,1.0048828125,-235.0,194.0,35.0,101917.0,-4.923000335693359,0,0
1668.174018,-0.902984619140625,0.0496826171875,0.01202392578125,0.42657470703125,-0.18310546875,0.48828125,0.18310546875,0.0660400390625,-0.0784912109375,1.0015869140625,-235.0,194.0,35.0,101917.0,-4.923000335693359,0,0
1668.180051,-0.902984619140625,0.0496826171875,0.01202392578125,0.42657470703125,-0.18310546875,0.48828125,0.18310546875,0.0660400390625,-0.0784912109375,1.0015869140625,-235.0,194.0,35.0,101917.0,-4.923000335693359,0,0
1668.187003,-0.90301513671875,0.0496826171875,0.011993408203125,0.426483154296875,0.1220703125,0.42724609375,0.1220703125,0.060546875,-0.0789794921875,1.001953125,-235.0,194.0,36.0,101917.0,-4.923000335693359,0,0
1668.194018,-0.90301513671875,0.049652099609375,0.011993408203125,0.426483154296875,0.1220703125,0.30517578125,-0.06103515625,0.060791015625,-0.0775146484375,1.0008544921875,-235.0,194.0,36.0,101917.0,-4.923000335693359,0,0
1668.200997,-0.90301513671875,0.04962158203125,0.011962890625,0.426483154296875,0.06103515625,0.1220703125,0.06103515625,0.0609130859375,-0.077880859375,0.9993896484375,-235.0,194.0,36.0,101917.0,-4.923000335693359,0,0
1668.207996,-0.90301513671875,0.04962158203125,0.011962890625,0.426483154296875,0.0,0.30517578125,0.244140625,0.0592041015625,-0.07861328125,0.998046875,-235.0,194.0,36.0,101917.0,-4.923000335693359,0,0
1668.215017,-0.90301513671875,0.049591064453125,0.011932373046875,0.426483154296875,0.06103515625,0.30517578125,-0.06103515625,0.0592041015625,-0.078125,0.9996337890625,-235.0,194.0,36.0,101917.0,-4.923000335693359,0,0
1668.222001,-0.90301513671875,0.049591064453125,0.011932373046875,0.426483154296875,-0.06103515625,0.1220703125,0.06103515625,0.0601806640625,-0.080078125,1.0008544921875,-235.0,194.0,36.0,101917.0,-4.923000335693359,0,0
1668.229019,-0.90301513671875,0.049591064453125,0.01190185546875,0.426483154296875,-0.06103515625,0.30517578125,-0.06103515625,0.0611572265625,-0.08056640625,1.0015869140625,-235.0,194.0,36.0,101917.0,-4.923000335693359,0,0
1668.235995,-0.903045654296875,0.049591064453125,0.01190185546875,0.426483154296875,0.1220703125,0.30517578125,0.06103515625,0.0626220703125,-0.0806884765625,1.0029296875,-235.0,194.0,36.0,101917.0,-4.923000335693359,0,0
1668.242994,-0.903045654296875,0.049591064453125,0.01190185546875,0.426483154296875,-0.06103515625,0.244140625,0.1220703125,0.0634765625,-0.0804443359375,1.0018310546875,-235.0,194.0,36.0,101917.0,-4.923000335693359,0,0
1668.250019,-0.90301513671875,0.049591064453125,0.01190185546875,0.426483154296875,0.1220703125,0.54931640625,0.1220703125,0.063232421875,-0.08154296875,1.0020751953125,-235.0,194.0,36.0,101917.0,-4.923000335693359,0,0
1668.256998,-0.90301513671875,0.049591064453125,0.01190185546875,0.426483154296875,-0.1220703125,0.244140625,0.06103515625,0.066650390625,-0.080810546875,1.0001220703125,-235.0,194.0,36.0,101917.0,-4.923000335693359,0,0
1668.277003,-0.90301513671875,0.049652099609375,0.011932373046875,0.426483154296875,-0.06103515625,0.06103515625,-0.30517578125,0.0692138671875,-0.0819091796875,1.00146484375,-235.0,194.0,36.0,101917.0,-4.923000335693359,0,0
1668.284018,-0.90301513671875,0.0496826171875,0.011932373046875,0.426483154296875,0.0,0.244140625,-0.06103515625,0.0654296875,-0.08203125,1.0,-236.0,194.0,35.0,101917.0,-4.923000335693359,0,0
1668.290997,-0.90301513671875,0.0496826171875,0.011962890625,0.426483154296875,0.244140625,0.18310546875,0.0,0.0689697265625,-0.0811767578125,0.9989013671875,-236.0,194.0,35.0,101917.0,-4.923000335693359,0,0
1668.297996,-0.90301513671875,0.0496826171875,0.011962890625,0.426483154296875,0.06103515625,0.18310546875,0.0,0.06982421875,-0.0821533203125,1.0,-236.0,194.0,35.0,101917.0,-4.923000335693359,0,0
1668.305016,-0.90301513671875,0.049713134765625,0.011993408203125,0.426483154296875,0.18310546875,0.30517578125,-0.1220703125,0.0692138671875,-0.0799560546875,1.0020751953125,-236.0,194.0,35.0,101917.0,-4.923000335693359,0,0
1668.312001,-0.90301513671875,0.049713134765625,0.01202392578125,0.426483154296875,0.1220703125,0.54931640625,0.0,0.0662841796875,-0.078369140625,1.002197265625,-236.0,194.0,35.0,101917.0,-4.923000335693359,0,0
1668.319018,-0.90301513671875,0.049713134765625,0.01202392578125,0.426483154296875,0.18310546875,0.54931640625,0.06103515625,0.0657958984375,-0.078125,0.9998779296875,-236.0,194.0,35.0,101917.0,-4.923000335693359,0,0
1668.325995,-0.90301513671875,0.0496826171875,0.01202392578125,0.426483154296875,-0.06103515625,0.54931640625,-0.06103515625,0.06494140625,-0.076416015625,1.00244140625,-236.0,194.0,35.0,101917.0,-4.923000335693359,0,0
1668.332994,-0.90301513671875,0.0496826171875,0.01202392578125,0.426483154296875,0.0,0.244140625,0.0,0.0640869140625,-0.0789794921875,1.0032958984375,-236.0,194.0,35.0,101917.0,-4.923000335693359,0,0
1668.340019,-0.90301513671875,0.049652099609375,0.01202392578125,0.426483154296875,-0.1220703125,0.48828125,0.244140625,0.0638427734375,-0.0780029296875,1.0029296875,-236.0,194.0,35.0,101917.0,-4.923000335693359,0,0
1668.346998,-0.90301513671875,0.049652099609375,0.011993408203125,0.426483154296875,-0.30517578125,0.1220703125,0.18310546875,0.0589599609375,-0.076416015625,1.0013427734375,-236.0,194.0,35.0,101917.0,-4.923000335693359,0,0
1668.367003,-0.90301513671875,0.049591064453125,0.011962890625,0.426483154296875,-0.244140625,0.06103515625,-0.06103515625,0.0614013671875,-0.078857421875,0.9991455078125,-236.0,194.0,35.0,101917.0,-4.923000335693359,0,0
1668.374018,-0.90301513671875,0.049591064453125,0.011962890625,0.426483154296875,0.0,0.244140625,-0.1220703125,0.0621337890625,-0.07861328125,1.0006103515625,-236.0,194.0,35.0,101917.0,-4.923000335693359,0,0
1668.380997,-0.90301513671875,0.049560546875,0.011962890625,0.426483154296875,0.0,0.3662109375,0.06103515625,0.0594482421875,-0.078369140625,1.0025634765625,-236.0,193.0,34.0,101917.0,-4.923000335693359,0,0
1668.387996,-0.902984619140625,0.049560546875,0.011932373046875,0.42657470703125,0.18310546875,0.1220703125,-0.06103515625,0.0606689453125,-0.07958984375,1.000244140625,-236.0,193.0,34.0,101917.0,-4.923000335693359,0,0
1668.395016,-0.902984619140625,0.049560546875,0.011932373046875,0.42657470703125,0.18310546875,0.18310546875,0.06103515625,0.062255859375,-0.0802001953125,1.0023193359375,-236.0,193.0,34.0,101917.0,-4.923000335693359,0,0
1668.402001,-0.902984619140625,0.049591064453125,0.011932373046875,0.42657470703125,-0.18310546875,0.18310546875,0.0,0.0660400390625,-0.082275390625,1.0035400390625,-236.0,193.0,34.0,101917.0,-4.923000335693359,0,0
1668.409018,-0.902984619140625,0.049591064453125,0.011932373046875,0.42657470703125,0.06103515625,0.1220703125,0.0,0.0670166015625,-0.0821533203125,1.0018310546875,-236.0,193.0,34.0,101917.0,-4.923000335693359,0,0
1668.415995,-0.902984619140625,0.04962158203125,0.011932373046875,0.42657470703125,-0.06103515625,0.30517578125,-0.1220703125,0.0653076171875,-0.0806884765625,1.0015869140625,-236.0,193.0,34.0,101917.0,-4.923000335693359,0,0
1668.422994,-0.902984619140625,0.049652099609375,0.011962890625,0.42657470703125,0.06103515625,0.30517578125,-0.1220703125,0.0684814453125,-0.08251953125,1.0003662109375,-236.0,193.0,34.0,101917.0,-4.923000335693359,0,0
1668.43002,-0.902984619140625,0.049652099609375,0.011962890625,0.42657470703125,0.06103515625,0.18310546875,0.0,0.067138671875,-0.0819091796875,1.00146484375,-236.0,193.0,34.0,101917.0,-4.922000408172607,0,0
1668.436998,-0.902984619140625,0.049652099609375,0.011993408203125,0.42657470703125,0.18310546875,0.54931640625,-0.1220703125,0.068359375,-0.078125,1.0001220703125,-236.0,193.0,34.0,101917.0,-4.922000408172607,0,0
1668.444018,-0.902984619140625,0.049652099609375,0.011993408203125,0.42657470703125,-0.244140625,0.42724609375,0.1220703125,0.0650634765625,-0.077392578125,1.00048828125,-236.0,193.0,34.0,101917.0,-4.922000408172607,0,0
1668.450996,-0.902984619140625,0.049652099609375,0.01202392578125,0.42657470703125,0.06103515625,0.42724609375,0.1220703125,0.06689453125,-0.0797119140625,1.0025634765625,-236.0,193.0,34.0,101917.0,-4.922000408172607,0,0
1668.457029,-0.902984619140625,0.049652099609375,0.01202392578125,0.42657470703125,0.06103515625,0.42724609375,0.1220703125,0.06689453125,-0.0797119140625,1.0025634765625,-236.0,193.0,34.0,101917.0,-4.922000408172607,0,0
1668.464018,-0.902984619140625,0.049652099609375,0.012054443359375,0.42657470703125,0.0,0.42724609375,-0.30517578125,0.06591796875,-0.07861328125,1.0013427734375,-236.0,193.0,34.0,101917.0,-4.922000408172607,0,0
1668.470997,-0.902984619140625,0.049652099609375,0.012054443359375,0.42657470703125,-0.1220703125,0.244140625,-0.06103515625,0.0657958984375,-0.0775146484375,1.0030517578125,-236.0,193.0,34.0,101917.0,-4.922000408172607,0,0
1668.477996,-0.902984619140625,0.04962158203125,0.012054443359375,0.42657470703125,-0.30517578125,0.48828125,-0.1220703125,0.0631103515625,-0.0748291015625,1.0025634765625,-236.0,193.0,34.0,101917.0,-4.922000408172607,0,0
1668.485017,-0.9029541015625,0.04962158203125,0.012054443359375,0.4266357421875,-0.42724609375,0.42724609375,0.1220703125,0.06494140625,-0.078369140625,1.0018310546875,-235.0,193.0,34.0,101917.0,-4.922000408172607,0,0
1668.492001,-0.9029541015625,0.04962158203125,0.01202392578125,0.4266357421875,-0.1220703125,0.244140625,0.0,0.0609130859375,-0.08154296875,1.0020751953125,-235.0,193.0,34.0,101917.0,-4.922000408172607,0,0
1668.499018,-0.9029541015625,0.049591064453125,0.01202392578125,0.4266357421875,0.0,0.3662109375,0.0,0.061279296875,-0.0789794921875,0.9971923828125,-235.0,193.0,34.0,101917.0,-4.922000408172607,0,0
1668.505999,-0.9029541015625,0.049591064453125,0.011993408203125,0.4266357421875,0.06103515625,0.1220703125,0.0,0.0596923828125,-0.0789794921875,1.001708984375,-235.0,193.0,34.0,101917.0,-4.922000408172607,0,0
1668.512999,-0.9029541015625,0.049591064453125,0.011993408203125,0.4266357421875,0.18310546875,0.42724609375,0.0,0.0638427734375,-0.0794677734375,1.002197265625,-235.0,193.0,34.0,101917.0,-4.922000408172607,0,0
1668.52002,-0.9029541015625,0.049591064453125,0.011962890625,0.4266357421875,0.18310546875,0.244140625,0.06103515625,0.060546875,-0.0797119140625,1.0013427734375,-235.0,193.0,34.0,101917.0,-4.922000408172607,0,0
1668.540996,-0.9029541015625,0.049591064453125,0.011962890625,0.4266357421875,0.06103515625,0.18310546875,-0.1220703125,0.064453125,-0.0816650390625,1.0020751953125,-235.0,193.0,34.0,101917.0,-4.921000003814697,0,0
1668.547029,-0.9029541015625,0.049591064453125,0.011962890625,0.4266357421875,0.06103515625,0.18310546875,-0.1220703125,0.064453125,-0.0816650390625,1.0020751953125,-235.0,193.0,34.0,101917.0,-4.921000003814697,0,0
1668.554018,-0.9029541015625,0.049591064453125,0.011962890625,0.4266357421875,-0.1220703125,0.06103515625,-0.06103515625,0.065185546875,-0.08056640625,1.0013427734375,-235.0,193.0,34.0,101917.0,-4.921000003814697,0,0
1668.560997,-0.9029541015625,0.049591064453125,0.011962890625,0.4266357421875,0.06103515625,0.244140625,0.06103515625,0.0665283203125,-0.0809326171875,0.99951171875,-235.0,193.0,34.0,101917.0,-4.921000003814697,0,0
1668.567996,-0.9029541015625,0.04962158203125,0.011962890625,0.4266357421875,0.06103515625,0.18310546875,-0.244140625,0.0672607421875,-0.080078125,0.999755859375,-235.0,193.0,34.0,101917.0,-4.921000003814697,0,0
1668.575016,-0.9029541015625,0.04962158203125,0.011993408203125,0.4266357421875,0.1220703125,0.1220703125,-0.06103515625,0.0670166015625,-0.0797119140625,0.999755859375,-235.0,193.0,34.0,101917.0,-4.921000003814697,0,0
1668.582001,-0.9029541015625,0.04962158203125,0.011993408203125,0.4266357421875,-0.06103515625,0.1220703125,0.06103515625,0.067138671875,-0.082275390625,1.0009765625,-235.0,193.0,34.0,101917.0,-4.921000003814697,0,0
1668.589018,-0.902923583984375,0.04962158203125,0.011993408203125,0.426727294921875,0.06103515625,0.06103515625,0.18310546875,0.0672607421875,-0.080810546875,1.0008544921875,-235.0,193.0,34.0,101917.0,-4.921000003814697,0,0
1668.595995,-0.902923583984375,0.04962158203125,0.01202392578125,0.426727294921875,0.244140625,0.18310546875,-0.06103515625,0.067138671875,-0.078369140625,1.00146484375,-235.0,193.0,34.0,101917.0,-4.921000003814697,0,0
1668.602994,-0.902923583984375,0.049652099609375,0.01202392578125,0.426727294921875,0.244140625,0.42724609375,-0.1220703125,0.067138671875,-0.0782470703125,1.001708984375,-235.0,193.0,34.0,101917.0,-4.921000003814697,0,0
1668.624018,-0.902923583984375,0.049652099609375,0.012054443359375,0.426727294921875,0.06103515625,0.30517578125,-0.1220703125,0.065185546875,-0.0810546875,1.0010986328125,-235.0,193.0,34.0,101917.0,-4.921000003814697,0,0
1668.630996,-0.902923583984375,0.049652099609375,0.01202392578125,0.426727294921875,-0.06103515625,0.3662109375,-0.1220703125,0.06396484375,-0.0811767578125,1.000244140625,-235.0,193.0,34.0,101917.0,-4.922000408172607,0,0
1668.637996,-0.902923583984375,0.04962158203125,0.01202392578125,0.426727294921875,-0.06103515625,0.48828125,-0.18310546875,0.062255859375,-0.079345703125,1.001953125,-235.0,193.0,34.0,101917.0,-4.922000408172607,0,0
1668.644028,-0.902923583984375,0.04962158203125,0.01202392578125,0.426727294921875,-0.06103515625,0.48828125,-0.18310546875,0.062255859375,-0.079345703125,1.001953125,-235.0,193.0,34.0,101917.0,-4.922000408172607,0,0
1668.650997,-0.902923583984375,0.04962158203125,0.01202392578125,0.426727294921875,-0.06103515625,0.18310546875,0.06103515625,0.0621337890625,-0.07958984375,1.0018310546875,-235.0,193.0,34.0,101917.0,-4.922000408172607,0,0
1668.657996,-0.902923583984375,0.049591064453125,0.011993408203125,0.426727294921875,0.0,0.1220703125,0.18310546875,0.0614013671875,-0.0792236328125,0.999755859375,-235.0,193.0,34.0,101917.0,-4.922000408172607,0,0
1668.665016,-0.902923583984375,0.049591064453125,0.011993408203125,0.426727294921875,0.18310546875,0.30517578125,0.06103515625,0.06005859375,-0.07861328125,1.0003662109375,-235.0,193.0,34.0,101917.0,-4.922000408172607,0,0
1668.672001,-0.902923583984375,0.049591064453125,0.011962890625,0.426727294921875,0.18310546875,0.244140625,-0.06103515625,0.0604248046875,-0.08203125,1.0020751953125,-235.0,193.0,34.0,101917.0,-4.922000408172607,0,0
1668.679018,-0.902923583984375,0.049591064453125,0.011962890625,0.426727294921875,0.06103515625,0.1220703125,-0.06103515625,0.0623779296875,-0.0819091796875,1.000244140625,-236.0,193.0,35.0,101917.0,-4.922000408172607,0,0
1668.685995,-0.902923583984375,0.049591064453125,0.011962890625,0.426727294921875,-0.6103515625,0.67138671875,0.06103515625,0.0665283203125,-0.08056640625,1.001220703125,-236.0,193.0,35.0,101917.0,-4.922000408172607,0,0
1668.692994,-0.902923583984375,0.04962158203125,0.011962890625,0.426727294921875,0.3662109375,0.0,0.06103515625,0.063232421875,-0.0806884765625,1.0010986328125,-236.0,193.0,35.0,101917.0,-4.922000408172607,0,0
1668.700019,-0.902923583984375,0.04962158203125,0.011962890625,0.426727294921875,0.0,-0.18310546875,0.0,0.06494140625,-0.080322265625,1.0006103515625,-236.0,193.0,35.0,101917.0,-4.922000408172607,0,0
1668.706998,-0.902923583984375,0.04962158203125,0.011962890625,0.426727294921875,0.18310546875,0.1220703125,-0.18310546875,0.063232421875,-0.0771484375,1.0006103515625,-236.0,193.0,35.0,101917.0,-4.922000408172607,0,0
1668.714018,-0.902923583984375,0.04962158203125,0.011962890625,0.426727294921875,0.244140625,0.06103515625,0.06103515625,0.067138671875,-0.0814208984375,1.0028076171875,-236.0,193.0,35.0,101917.0,-4.922000408172607,0,0
1668.720996,-0.902923583984375,0.04962158203125,0.011962890625,0.426727294921875,0.06103515625,0.18310546875,0.244140625,0.06640625,-0.0806884765625,1.0001220703125,-236.0,193.0,35.0,101917.0,-4.922000408172607,0,0
1668.727996,-0.902923583984375,0.04962158203125,0.011993408203125,0.426727294921875,-0.1220703125,0.244140625,0.0,0.0650634765625,-0.07958984375,0.9989013671875,-236.0,193.0,35.0,101917.0,-4.923000335693359,0,0
1668.734029,-0.902923583984375,0.04962158203125,0.011993408203125,0.426727294921875,-0.1220703125,0.244140625,0.0,0.0650634765625,-0.07958984375,0.9989013671875,-236.0,193.0,35.0,101917.0,-4.923000335693359,0,0
1668.740997,-0.902923583984375,0.04962158203125,0.011993408203125,0.426727294921875,-0.1220703125,0.0,0.06103515625,0.065673828125,-0.0770263671875,1.002197265625,-236.0,193.0,35.0,101917.0,-4.923000335693359,0,0
1668.747996,-0.902923583984375,0.04962158203125,0.01202392578125,0.426727294921875,-0.06103515625,0.30517578125,0.0,0.0693359375,-0.0792236328125,1.0030517578125,-236.0,193.0,35.0,101917.0,-4.923000335693359,0,0
1668.755017,-0.902923583984375,0.049652099609375,0.01202392578125,0.426727294921875,0.18310546875,0.67138671875,0.0,0.066162109375,-0.079833984375,1.0028076171875,-236.0,193.0,35.0,101917.0,-4.923000335693359,0,0
1668.762001,-0.902923583984375,0.049652099609375,0.012054443359375,0.426727294921875,-0.1220703125,0.244140625,-0.1220703125,0.06591796875,-0.0789794921875,1.0015869140625,-236.0,193.0,35.0,101917.0,-4.923000335693359,0,0
1668.769019,-0.902923583984375,0.04962158203125,0.012054443359375,0.426727294921875,-0.18310546875,0.42724609375,-0.1220703125,0.0640869140625,-0.0777587890625,1.0025634765625,-236.0,193.0,35.0,101917.0,-4.923000335693359,0,0
1668.775999,-0.902923583984375,0.04962158203125,0.012054443359375,0.426727294921875,0.06103515625,0.18310546875,0.06103515625,0.0643310546875,-0.07763671875,1.002197265625,-236.0,193.0,35.0,101917.0,-4.923000335693359,0,0
1668.782999,-0.902923583984375,0.04962158203125,0.012054443359375,0.426727294921875,0.0,0.06103515625,-0.3662109375,0.0654296875,-0.0792236328125,1.0009765625,-236.0,192.0,34.0,101917.0,-4.923000335693359,0,0
1668.796998,-0.902923583984375,0.04962158203125,0.01202392578125,0.426727294921875,-0.06103515625,0.244140625,0.1220703125,0.0599365234375,-0.079345703125,1.002685546875,-236.0,192.0,34.0,101917.0,-4.923000335693359,0,0
1668.804018,-0.902923583984375,0.04962158203125,0.01202392578125,0.426727294921875,-0.06103515625,0.30517578125,0.06103515625,0.0626220703125,-0.079833984375,1.0008544921875,-236.0,192.0,34.0,101917.0,-4.923000335693359,0,0
1668.810996,-0.902923583984375,0.04962158203125,0.01202392578125,0.426727294921875,-0.1220703125,0.244140625,0.0,0.0626220703125,-0.0806884765625,1.0008544921875,-236.0,192.0,34.0,101917.0,-4.923000335693359,0,0
1668.817996,-0.902923583984375,0.049591064453125,0.011993408203125,0.426727294921875,0.06103515625,0.48828125,0.1220703125,0.0611572265625,-0.08056640625,1.0013427734375,-236.0,192.0,34.0,101917.0,-4.923000335693359,0,0
1668.825021,-0.902923583984375,0.049591064453125,0.011993408203125,0.426727294921875,0.0,0.30517578125,0.06103515625,0.0633544921875,-0.08203125,1.0008544921875,-236.0,192.0,34.0,101917.0,-4.923000335693359,0,0
1668.831053,-0.902923583984375,0.049591064453125,0.011993408203125,0.426727294921875,0.0,0.30517578125,0.06103515625,0.0633544921875,-0.08203125,1.0008544921875,-236.0,192.0,34.0,101917.0,-4.923000335693359,0,0
1668.837996,-0.902923583984375,0.049591064453125,0.011962890625,0.426727294921875,0.18310546875,0.30517578125,0.18310546875,0.0633544921875,-0.081298828125,1.0013427734375,-236.0,192.0,34.0,101917.0,-4.921000003814697,0,0
1668.845016,-0.902923583984375,0.049591064453125,0.011962890625,0.426727294921875,0.18310546875,0.3662109375,0.06103515625,0.0611572265625,-0.080322265625,1.0009765625,-236.0,192.0,34.0,101917.0,-4.921000003814697,0,0
1668.852001,-0.902923583984375,0.04962158203125,0.011962890625,0.426727294921875,-0.18310546875,0.3662109375,0.06103515625,0.0638427734375,-0.0810546875,1.002685546875,-236.0,192.0,34.0,101917.0,-4.921000003814697,0,0
1668.859018,-0.902923583984375,0.04962158203125,0.011962890625,0.426727294921875,0.06103515625,0.244140625,0.0,0.0640869140625,-0.0828857421875,1.0003662109375,-236.0,192.0,34.0,101917.0,-4.921000003814697,0,0
1668.865995,-0.902923583984375,0.04962158203125,0.011962890625,0.426727294921875,0.0,0.18310546875,0.06103515625,0.0662841796875,-0.0792236328125,1.0015869140625,-236.0,192.0,34.0,101917.0,-4.921000003814697,0,0
1668.886998,-0.90289306640625,0.049591064453125,0.011962890625,0.426788330078125,0.06103515625,0.244140625,0.0,0.06494140625,-0.0771484375,1.0008544921875,-235.0,192.0,34.0,101917.0,-4.921000003814697,0,0
1668.894018,-0.90289306640625,0.049591064453125,0.011993408203125,0.426788330078125,0.18310546875,0.30517578125,-0.1220703125,0.066650390625,-0.07763671875,1.00048828125,-235.0,192.0,34.0,101917.0,-4.921000003814697,0,0
1668.900996,-0.90289306640625,0.049591064453125,0.011993408203125,0.426788330078125,-0.06103515625,0.3662109375,-0.1220703125,0.06494140625,-0.0784912109375,1.002197265625,-235.0,192.0,34.0,101917.0,-4.921000003814697,0,0
1668.907996,-0.90289306640625,0.049591064453125,0.011993408203125,0.426788330078125,0.0,0.244140625,0.18310546875,0.06494140625,-0.080078125,1.0028076171875,-235.0,192.0,34.0,101917.0,-4.921000003814697,0,0
1668.915021,-0.90289306640625,0.049591064453125,0.011993408203125,0.426788330078125,-0.1220703125,0.54931640625,0.18310546875,0.0657958984375,-0.0804443359375,1.0025634765625,-235.0,192.0,34.0,101917.0,-4.921000003814697,0,0
1668.921049,-0.90289306640625,0.049591064453125,0.011993408203125,0.426788330078125,-0.1220703125,0.54931640625,0.18310546875,0.0657958984375,-0.0804443359375,1.0025634765625,-235.0,192.0,34.0,101917.0,-4.921000003814697,0,0
1668.927996,-0.90289306640625,0.049591064453125,0.011993408203125,0.426788330078125,-0.18310546875,0.54931640625,0.06103515625,0.0643310546875,-0.08056640625,1.0015869140625,-235.0,192.0,34.0,101917.0,-4.922000408172607,0,0
1668.935016,-0.90289306640625,0.049591064453125,0.011993408203125,0.426788330078125,-0.06103515625,0.42724609375,-0.1220703125,0.06396484375,-0.078857421875,1.0023193359375,-235.0,192.0,34.0,101917.0,-4.922000408172607,0,0
1668.942001,-0.90289306640625,0.049591064453125,0.011993408203125,0.426788330078125,0.1220703125,0.18310546875,-0.1220703125,0.064208984375,-0.0810546875,1.0,-235.0,192.0,34.0,101917.0,-4.922000408172607,0,0
1668.949018,-0.90289306640625,0.049591064453125,0.011993408203125,0.426788330078125,0.0,0.18310546875,0.1220703125,0.0615234375,-0.0806884765625,1.0018310546875,-235.0,192.0,34.0,101917.0,-4.922000408172607,0,0
1668.955995,-0.90289306640625,0.049591064453125,0.011993408203125,0.426788330078125,-0.1220703125,0.1220703125,-0.06103515625,0.0625,-0.0823974609375,1.0003662109375,-235.0,192.0,34.0,101917.0,-4.922000408172607,0,0
1668.962994,-0.90289306640625,0.049591064453125,0.011962890625,0.426788330078125,-0.18310546875,0.1220703125,0.18310546875,0.062255859375,-0.0806884765625,1.0001220703125,-235.0,192.0,34.0,101917.0,-4.922000408172607,0,0
1668.970019,-0.90289306640625,0.049591064453125,0.011962890625,0.426788330078125,0.3662109375,0.30517578125,0.06103515625,0.0625,-0.07861328125,1.0020751953125,-235.0,192.0,34.0,101917.0,-4.922000408172607,0,0
1668.976998,-0.90289306640625,0.049591064453125,0.011962890625,0.426788330078125,0.18310546875,0.18310546875,-0.06103515625,0.0626220703125,-0.0789794921875,1.002685546875,-235.0,191.0,34.0,101917.0,-4.922000408172607,0,0
1668.984018,-0.902862548828125,0.049591064453125,0.011962890625,0.426849365234375,-0.06103515625,0.1220703125,0.1220703125,0.0654296875,-0.08056640625,1.000732421875,-235.0,191.0,34.0,101917.0,-4.922000408172607,0,0
1668.990996,-0.902862548828125,0.049591064453125,0.011962890625,0.426849365234375,-0.30517578125,0.1220703125,0.0,0.066162109375,-0.078369140625,1.0010986328125,-235.0,191.0,34.0,101917.0,-4.922000408172607,0,0
1668.997996,-0.902862548828125,0.049560546875,0.011993408203125,0.426849365234375,-0.06103515625,0.18310546875,-0.1220703125,0.064697265625,-0.0780029296875,1.0009765625,-235.0,191.0,34.0,101917.0,-4.922000408172607,0,0
1669.005021,-0.902862548828125,0.049560546875,0.011993408203125,0.426849365234375,0.18310546875,0.244140625,-0.06103515625,0.063232421875,-0.080078125,1.001220703125,-235.0,191.0,34.0,101917.0,-4.922000408172607,0,0
1669.012001,-0.902862548828125,0.049560546875,0.011993408203125,0.426849365234375,-0.1220703125,0.0,0.0,0.066162109375,-0.078857421875,1.0013427734375,-235.0,191.0,34.0,101917.0,-4.922000408172607,0,0
1669.018032,-0.902862548828125,0.049560546875,0.011993408203125,0.426849365234375,-0.1220703125,0.0,0.0,0.066162109375,-0.078857421875,1.0013427734375,-235.0,191.0,34.0,101917.0,-4.922000408172607,0,0
1669.025016,-0.902862548828125,0.049560546875,0.011993408203125,0.426849365234375,0.0,0.244140625,-0.1220703125,0.06689453125,-0.0792236328125,1.0018310546875,-235.0,191.0,34.0,101917.0,-4.922000408172607,0,0
1669.032001,-0.902862548828125,0.049560546875,0.011993408203125,0.426849365234375,-0.3662109375,0.18310546875,0.06103515625,0.0650634765625,-0.0806884765625,1.0029296875,-235.0,191.0,34.0,101917.0,-4.923000335693359,0,0
1669.039018,-0.902862548828125,0.049560546875,0.011993408203125,0.426849365234375,0.0,0.3662109375,0.0,0.0640869140625,-0.07861328125,1.0010986328125,-235.0,191.0,34.0,101917.0,-4.923000335693359,0,0
1669.06002,-0.902862548828125,0.049560546875,0.011993408203125,0.426849365234375,0.0,0.42724609375,0.06103515625,0.0650634765625,-0.0797119140625,1.002685546875,-235.0,191.0,34.0,101917.0,-4.923000335693359,0,0
1669.066998,-0.902862548828125,0.049560546875,0.011993408203125,0.426849365234375,-0.18310546875,0.54931640625,-0.06103515625,0.064208984375,-0.0792236328125,1.0018310546875,-235.0,191.0,34.0,101917.0,-4.923000335693359,0,0
1669.074018,-0.902862548828125,0.049560546875,0.011993408203125,0.426849365234375,0.06103515625,0.18310546875,0.06103515625,0.06396484375,-0.080078125,1.0003662109375,-235.0,191.0,34.0,101917.0,-4.923000335693359,0,0
1669.080996,-0.902862548828125,0.049560546875,0.011993408203125,0.426849365234375,0.244140625,0.06103515625,0.1220703125,0.0626220703125,-0.083251953125,0.9998779296875,-236.0,192.0,34.0,101917.0,-4.923000335693359,0,0
1669.087996,-0.902862548828125,0.049560546875,0.011993408203125,0.426849365234375,-0.244140625,0.1220703125,0.06103515625,0.066162109375,-0.0806884765625,1.0,-236.0,192.0,34.0,101917.0,-4.923000335693359,0,0
1669.095021,-0.902862548828125,0.049591064453125,0.011962890625,0.426849365234375,0.1220703125,0.30517578125,-0.18310546875,0.06494140625,-0.0810546875,1.000732421875,-236.0,192.0,34.0,101917.0,-4.923000335693359,0,0
1669.102001,-0.902862548828125,0.049591064453125,0.011962890625,0.426849365234375,0.06103515625,0.244140625,0.18310546875,0.0645751953125,-0.0797119140625,1.0015869140625,-236.0,192.0,34.0,101917.0,-4.923000335693359,0,0
1669.108037,-0.902862548828125,0.049591064453125,0.011962890625,0.426849365234375,0.06103515625,0.244140625,0.18310546875,0.0645751953125,-0.0797119140625,1.0015869140625,-236.0,192.0,34.0,101917.0,-4.923000335693359,0,0
1669.115017,-0.902862548828125,0.049591064453125,0.011962890625,0.426849365234375,0.0,0.42724609375,0.0,0.0665283203125,-0.079833984375,1.0009765625,-236.0,192.0,34.0,101917.0,-4.923000335693359,0,0
1669.122001,-0.902862548828125,0.049591064453125,0.011962890625,0.426849365234375,-0.06103515625,0.1220703125,-0.1220703125,0.06494140625,-0.0804443359375,1.0008544921875,-236.0,192.0,34.0,101917.0,-4.923000335693359,0,0
1669.129019,-0.902862548828125,0.049591064453125,0.011962890625,0.426849365234375,-0.18310546875,0.244140625,-0.06103515625,0.0653076171875,-0.079345703125,1.0025634765625,-236.0,192.0,34.0,101917.0,-4.923000335693359,0,0
1669.150019,-0.902862548828125,0.049560546875,0.011993408203125,0.426849365234375,0.06103515625,0.42724609375,0.18310546875,0.06396484375,-0.078857421875,1.0009765625,-236.0,192.0,34.0,101917.0,-4.923000335693359,0,0
1669.156998,-0.902862548828125,0.049560546875,0.011993408203125,0.426849365234375,0.06103515625,0.3662109375,-0.1220703125,0.06591796875,-0.0784912109375,1.0025634765625,-236.0,192.0,34.0,101917.0,-4.923000335693359,0,0
1669.164018,-0.902862548828125,0.049560546875,0.011993408203125,0.426849365234375,-0.06103515625,0.06103515625,0.06103515625,0.0631103515625,-0.079833984375,1.0028076171875,-236.0,192.0,34.0,101917.0,-4.923000335693359,0,0
1669.170996,-0.902862548828125,0.049560546875,0.011993408203125,0.426849365234375,0.06103515625,0.244140625,-0.1220703125,0.0650634765625,-0.080078125,1.000244140625,-236.0,192.0,34.0,101917.0,-4.923000335693359,0,0
1669.177996,-0.902862548828125,0.049560546875,0.011962890625,0.426849365234375,0.1220703125,0.244140625,-0.06103515625,0.0609130859375,-0.08056640625,1.001708984375,-234.0,193.0,34.0,101917.0,-4.923000335693359,0,0
1669.185021,-0.902862548828125,0.049560546875,0.011962890625,0.426849365234375,-0.06103515625,0.244140625,-0.06103515625,0.0626220703125,-0.080322265625,1.00048828125,-234.0,193.0,34.0,101917.0,-4.923000335693359,0,0
1669.192001,-0.902862548828125,0.049560546875,0.011962890625,0.426849365234375,-0.1220703125,0.30517578125,0.06103515625,0.065673828125,-0.079833984375,1.001220703125,-234.0,193.0,34.0,101917.0,-4.923000335693359,0,0
1669.199015,-0.902862548828125,0.049560546875,0.011962890625,0.426849365234375,-0.1220703125,0.244140625,-0.1220703125,0.0633544921875,-0.08154296875,1.001220703125,-234.0,193.0,34.0,101917.0,-4.923000335693359,0,0
1669.205047,-0.902862548828125,0.049560546875,0.011962890625,0.426849365234375,-0.1220703125,0.244140625,-0.1220703125,0.0633544921875,-0.08154296875,1.001220703125,-234.0,193.0,34.0,101917.0,-4.923000335693359,0,0
1669.212001,-0.902862548828125,0.049560546875,0.011962890625,0.426849365234375,0.244140625,0.18310546875,0.0,0.0640869140625,-0.079833984375,1.0023193359375,-234.0,193.0,34.0,101917.0,-4.923000335693359,0,0
1669.219018,-0.902862548828125,0.049560546875,0.011932373046875,0.426849365234375,-0.06103515625,0.1220703125,0.0,0.0625,-0.0828857421875,1.0013427734375,-234.0,193.0,34.0,101917.0,-4.923000335693359,0,0
1669.225995,-0.902862548828125,0.049560546875,0.011932373046875,0.426849365234375,-0.06103515625,0.18310546875,0.06103515625,0.0623779296875,-0.080322265625,1.0,-234.0,193.0,34.0,101917.0,-4.923000335693359,0,0
1669.232994,-0.902862548828125,0.049560546875,0.011932373046875,0.426849365234375,-0.30517578125,0.3662109375,-0.06103515625,0.0640869140625,-0.08203125,1.0003662109375,-234.0,193.0,34.0,101917.0,-4.923000335693359,0,0
1669.240019,-0.902862548828125,0.049560546875,0.011932373046875,0.426849365234375,0.06103515625,0.30517578125,0.06103515625,0.064453125,-0.079833984375,1.0008544921875,-234.0,193.0,34.0,101917.0,-4.923000335693359,0,0
1669.246998,-0.902862548828125,0.049560546875,0.011932373046875,0.426849365234375,-0.18310546875,0.3662109375,-0.18310546875,0.061279296875,-0.079833984375,1.0003662109375,-234.0,193.0,34.0,101917.0,-4.923000335693359,0,0
1669.254018,-0.902862548828125,0.049560546875,0.011932373046875,0.426849365234375,0.06103515625,0.30517578125,0.06103515625,0.0654296875,-0.0794677734375,1.0010986328125,-234.0,193.0,34.0,101917.0,-4.923000335693359,0,0
1669.260996,-0.902862548828125,0.049560546875,0.011932373046875,0.426849365234375,-0.06103515625,0.18310546875,0.06103515625,0.0645751953125,-0.0777587890625,1.0028076171875,-234.0,193.0,34.0,101917.0,-4.923000335693359,0,0
1669.267996,-0.902862548828125,0.049560546875,0.011932373046875,0.426849365234375,-0.1220703125,0.3662109375,0.0,0.0625,-0.0804443359375,0.999755859375,-234.0,193.0,34.0,101917.0,-4.923000335693359,0,0
1669.275021,-0.902862548828125,0.049560546875,0.011932373046875,0.426849365234375,0.06103515625,0.30517578125,-0.1220703125,0.069091796875,-0.0792236328125,1.0013427734375,-234.0,193.0,34.0,101917.0,-4.923000335693359,0,0
1669.282001,-0.902862548828125,0.049560546875,0.011932373046875,0.426849365234375,-0.244140625,0.48828125,-0.1220703125,0.065185546875,-0.079345703125,1.000732421875,-234.0,192.0,35.0,101917.0,-4.923000335693359,0,0
1669.289015,-0.902862548828125,0.049560546875,0.011962890625,0.426849365234375,0.244140625,0.1220703125,0.0,0.0670166015625,-0.0784912109375,1.0018310546875,-234.0,192.0,35.0,101917.0,-4.923000335693359,0,0
1669.295047,-0.902862548828125,0.049560546875,0.011962890625,0.426849365234375,0.244140625,0.1220703125,0.0,0.0670166015625,-0.0784912109375,1.0018310546875,-234.0,192.0,35.0,101917.0,-4.923000335693359,0,0
1669.302001,-0.902862548828125,0.049560546875,0.011962890625,0.426849365234375,-0.1220703125,0.244140625,-0.244140625,0.062255859375,-0.080322265625,1.0006103515625,-234.0,192.0,35.0,101917.0,-4.923000335693359,0,0
1669.322994,-0.902862548828125,0.049591064453125,0.011962890625,0.426849365234375,-0.244140625,0.3662109375,0.1220703125,0.0653076171875,-0.080810546875,1.0015869140625,-234.0,192.0,35.0,101917.0,-4.923000335693359,0,0
1669.33002,-0.902862548828125,0.049591064453125,0.011962890625,0.426849365234375,-0.1220703125,0.42724609375,0.1220703125,0.0645751953125,-0.0819091796875,1.0008544921875,-234.0,192.0,35.0,101917.0,-4.923000335693359,0,0
1669.336998,-0.902862548828125,0.049591064453125,0.011962890625,0.426849365234375,0.1220703125,0.30517578125,0.18310546875,0.064697265625,-0.0802001953125,1.0013427734375,-234.0,192.0,35.0,101917.0,-4.923000335693359,0,0
1669.344018,-0.902862548828125,0.049591064453125,0.011962890625,0.426849365234375,0.0,0.244140625,-0.244140625,0.0638427734375,-0.0794677734375,1.0001220703125,-234.0,192.0,35.0,101917.0,-4.923000335693359,0,0
1669.350996,-0.902862548828125,0.049591064453125,0.011932373046875,0.426849365234375,0.244140625,0.244140625,-0.18310546875,0.0615234375,-0.07958984375,1.002197265625,-234.0,192.0,35.0,101917.0,-4.923000335693359,0,0
1669.357996,-0.902862548828125,0.049591064453125,0.011962890625,0.426849365234375,0.0,0.42724609375,0.06103515625,0.063720703125,-0.0797119140625,1.00048828125,-234.0,192.0,35.0,101917.0,-4.923000335693359,0,0
1669.365021,-0.902862548828125,0.049591064453125,0.011962890625,0.426849365234375,-0.18310546875,0.244140625,-0.18310546875,0.0657958984375,-0.0780029296875,1.0006103515625,-234.0,192.0,35.0,101917.0,-4.923000335693359,0,0
1669.372001,-0.902862548828125,0.049591064453125,0.011962890625,0.426849365234375,0.18310546875,0.42724609375,-0.1220703125,0.062744140625,-0.079345703125,1.002685546875,-234.0,192.0,35.0,101917.0,-4.923000335693359,0,0
1669.379015,-0.902862548828125,0.049560546875,0.011932373046875,0.426849365234375,0.06103515625,0.30517578125,0.0,0.0635986328125,-0.0791015625,1.001708984375,-234.0,194.0,34.0,101917.0,-4.923000335693359,0,0
1669.385999,-0.902923583984375,0.049560546875,0.011962890625,0.426727294921875,-0.18310546875,0.42724609375,0.1220703125,0.064208984375,-0.0787353515625,1.002685546875,-234.0,194.0,34.0,101917.0,-4.923000335693359,0,0
1669.392032,-0.902923583984375,0.049560546875,0.011962890625,0.426727294921875,-0.18310546875,0.42724609375,0.1220703125,0.064208984375,-0.0787353515625,1.002685546875,-234.0,194.0,34.0,101917.0,-4.923000335693359,0,0
1669.412999,-0.902923583984375,0.049560546875,0.011962890625,0.426727294921875,0.06103515625,0.1220703125,0.1220703125,0.0645751953125,-0.0810546875,1.0018310546875,-234.0,194.0,34.0,101917.0,-4.923000335693359,0,0
1669.42002,-0.902923583984375,0.049560546875,0.011962890625,0.426727294921875,0.06103515625,0.06103515625,-0.244140625,0.0626220703125,-0.0811767578125,1.0020751953125,-234.0,194.0,34.0,101917.0,-4.923000335693359,0,0
1669.426998,-0.902923583984375,0.049560546875,0.011962890625,0.426727294921875,0.0,0.3662109375,0.1220703125,0.0648193359375,-0.0789794921875,1.002197265625,-234.0,194.0,34.0,101917.0,-4.923000335693359,0,0
1669.434018,-0.902923583984375,0.049560546875,0.011962890625,0.426727294921875,0.06103515625,0.06103515625,0.18310546875,0.0670166015625,-0.0794677734375,1.001708984375,-234.0,194.0,34.0,101917.0,-4.923000335693359,0,0
1669.440996,-0.902923583984375,0.049560546875,0.011962890625,0.426727294921875,0.244140625,0.30517578125,0.244140625,0.0650634765625,-0.0816650390625,0.99951171875,-234.0,194.0,34.0,101917.0,-4.923000335693359,0,0
1669.447996,-0.902923583984375,0.049560546875,0.011962890625,0.426727294921875,0.18310546875,0.30517578125,0.1220703125,0.0654296875,-0.0789794921875,1.0,-234.0,194.0,34.0,101917.0,-4.923000335693359,0,0
1669.455021,-0.902923583984375,0.049560546875,0.011993408203125,0.426727294921875,0.0,0.42724609375,0.1220703125,0.0648193359375,-0.0789794921875,0.9998779296875,-234.0,194.0,34.0,101917.0,-4.923000335693359,0,0
1669.462001,-0.902923583984375,0.049560546875,0.011962890625,0.426727294921875,0.1220703125,0.1220703125,-0.06103515625,0.0631103515625,-0.0794677734375,1.000732421875,-234.0,194.0,34.0,101917.0,-4.923000335693359,0,0
1669.469015,-0.902923583984375,0.049560546875,0.011962890625,0.426727294921875,0.06103515625,0.244140625,0.0,0.0635986328125,-0.0816650390625,1.00048828125,-234.0,194.0,34.0,101917.0,-4.923000335693359,0,0
1669.475994,-0.902923583984375,0.049560546875,0.011962890625,0.426727294921875,-0.30517578125,0.18310546875,0.1220703125,0.0643310546875,-0.0804443359375,0.999755859375,-234.0,194.0,34.0,101917.0,-4.923000335693359,0,0
1669.482026,-0.902923583984375,0.049560546875,0.011962890625,0.426727294921875,-0.30517578125,0.18310546875,0.1220703125,0.0643310546875,-0.0804443359375,0.999755859375,-234.0,194.0,34.0,101917.0,-4.923000335693359,0,0
1669.489018,-0.902923583984375,0.049560546875,0.011962890625,0.426727294921875,-0.06103515625,0.30517578125,0.244140625,0.0650634765625,-0.08056640625,1.00244140625,-234.0,193.0,34.0,101917.0,-4.923000335693359,0,0
1669.495995,-0.902923583984375,0.049560546875,0.011962890625,0.426727294921875,-0.1220703125,0.3662109375,-0.06103515625,0.064453125,-0.0799560546875,1.0047607421875,-234.0,193.0,34.0,101917.0,-4.923000335693359,0,0
1669.502994,-0.902923583984375,0.049560546875,0.011962890625,0.426727294921875,0.1220703125,0.30517578125,0.06103515625,0.06494140625,-0.0784912109375,1.002685546875,-234.0,193.0,34.0,101917.0,-4.923000335693359,0,0
1669.510019,-0.902923583984375,0.049560546875,0.011962890625,0.426727294921875,0.1220703125,0.3662109375,0.06103515625,0.064453125,-0.080322265625,1.001953125,-234.0,193.0,34.0,101917.0,-4.923000335693359,0,0
1669.516998,-0.902923583984375,0.049560546875,0.011962890625,0.426727294921875,-0.06103515625,0.244140625,-0.06103515625,0.064453125,-0.0810546875,1.0009765625,-234.0,193.0,34.0,101917.0,-4.923000335693359,0,0
1669.524018,-0.902923583984375,0.049560546875,0.011962890625,0.426727294921875,0.1220703125,0.244140625,0.0,0.0640869140625,-0.0794677734375,1.0,-234.0,193.0,34.0,101917.0,-4.923000335693359,0,0
1669.530996,-0.902923583984375,0.049560546875,0.011962890625,0.426727294921875,-0.18310546875,0.244140625,0.1220703125,0.0657958984375,-0.0802001953125,1.000244140625,-234.0,193.0,34.0,101917.0,-4.923000335693359,0,0
1669.537996,-0.902923583984375,0.049560546875,0.011993408203125,0.426727294921875,-0.06103515625,0.30517578125,-0.06103515625,0.064208984375,-0.0791015625,0.9989013671875,-234.0,193.0,34.0,101917.0,-4.923000335693359,0,0
1669.545021,-0.902923583984375,0.049560546875,0.011993408203125,0.426727294921875,0.0,0.1220703125,0.0,0.06396484375,-0.0802001953125,1.0020751953125,-234.0,193.0,34.0,101917.0,-4.923000335693359,0,0
1669.552001,-0.902923583984375,0.049560546875,0.011993408203125,0.426727294921875,-0.06103515625,0.244140625,0.06103515625,0.0634765625,-0.080078125,1.0020751953125,-234.0,193.0,34.0,101917.0,-4.923000335693359,0,0
1669.559015,-0.902923583984375,0.049591064453125,0.011962890625,0.426727294921875,0.1220703125,0.0,-0.06103515625,0.064208984375,-0.0802001953125,1.00048828125,-234.0,193.0,34.0,101917.0,-4.923000335693359,0,0
1669.565994,-0.902923583984375,0.049560546875,0.011993408203125,0.426727294921875,0.06103515625,0.30517578125,0.06103515625,0.065185546875,-0.07666015625,1.001220703125,-234.0,193.0,34.0,101917.0,-4.923000335693359,0,0
1669.585995,-0.902984619140625,0.049591064453125,0.011993408203125,0.42657470703125,0.1220703125,0.42724609375,0.1220703125,0.063720703125,-0.0775146484375,1.000732421875,-234.0,194.0,33.0,101917.0,-4.923000335693359,0,0
1669.592994,-0.902984619140625,0.049560546875,0.011993408203125,0.42657470703125,0.1220703125,0.18310546875,0.0,0.065185546875,-0.0758056640625,1.001953125,-234.0,194.0,33.0,101917.0,-4.923000335693359,0,0
1669.600019,-0.902984619140625,0.049560546875,0.011993408203125,0.42657470703125,0.06103515625,0.3662109375,0.1220703125,0.065673828125,-0.0784912109375,1.0045166015625,-234.0,194.0,33.0,101917.0,-4.923000335693359,0,0
1669.606998,-0.902984619140625,0.049560546875,0.011993408203125,0.42657470703125,0.0,0.18310546875,-0.1220703125,0.0640869140625,-0.0814208984375,1.00244140625,-234.0,194.0,33.0,101917.0,-4.923000335693359,0,0
1669.614018,-0.902984619140625,0.049560546875,0.011993408203125,0.42657470703125,-0.1220703125,0.18310546875,0.0,0.064453125,-0.0767822265625,1.0028076171875,-234.0,194.0,33.0,101917.0,-4.923000335693359,0,0
1669.620996,-0.902984619140625,0.049560546875,0.01202392578125,0.42657470703125,0.0,0.06103515625,-0.06103515625,0.0684814453125,-0.08056640625,1.002685546875,-234.0,194.0,33.0,101917.0,-4.923000335693359,0,0
1669.627996,-0.902984619140625,0.049560546875,0.012054443359375,0.42657470703125,-0.06103515625,0.3662109375,0.0,0.06787109375,-0.0784912109375,1.001220703125,-234.0,194.0,33.0,101917.0,-4.923000335693359,0,0
1669.635021,-0.902984619140625,0.049560546875,0.012054443359375,0.42657470703125,0.06103515625,0.244140625,0.1220703125,0.064697265625,-0.0789794921875,1.000732421875,-234.0,194.0,33.0,101917.0,-4.923000335693359,0,0
1669.642001,-0.902984619140625,0.049560546875,0.012054443359375,0.42657470703125,0.06103515625,0.48828125,-0.1220703125,0.0660400390625,-0.079833984375,1.0013427734375,-234.0,194.0,33.0,101917.0,-4.923000335693359,0,0
1669.649015,-0.902984619140625,0.049560546875,0.012054443359375,0.42657470703125,0.06103515625,0.3662109375,0.06103515625,0.0648193359375,-0.0771484375,1.0035400390625,-234.0,194.0,33.0,101917.0,-4.923000335693359,0,0
1669.655999,-0.902984619140625,0.049560546875,0.012054443359375,0.42657470703125,-0.3662109375,0.1220703125,0.18310546875,0.064697265625,-0.0810546875,1.0025634765625,-234.0,194.0,33.0,101917.0,-4.923000335693359,0,0
1669.675999,-0.902984619140625,0.049560546875,0.012054443359375,0.42657470703125,0.06103515625,0.244140625,0.0,0.0606689453125,-0.0777587890625,1.0015869140625,-234.0,194.0,33.0,101917.0,-4.923000335693359,0,0
1669.682999,-0.903076171875,0.049591064453125,0.012054443359375,0.426422119140625,-0.06103515625,0.1220703125,0.0,0.063720703125,-0.0814208984375,1.00244140625,-233.0,195.0,32.0,101917.0,-4.923000335693359,0,0
1669.69002,-0.903076171875,0.049560546875,0.01202392578125,0.426422119140625,0.1220703125,0.3662109375,-0.1220703125,0.064453125,-0.0816650390625,1.0006103515625,-233.0,195.0,32.0,101917.0,-4.923000335693359,0,0
1669.696998,-0.903076171875,0.049560546875,0.011993408203125,0.426422119140625,0.244140625,0.18310546875,0.1220703125,0.0614013671875,-0.081787109375,0.9990234375,-233.0,195.0,32.0,101917.0,-4.923000335693359,0,0
1669.704018,-0.903076171875,0.049560546875,0.011993408203125,0.426422119140625,0.06103515625,0.244140625,-0.06103515625,0.061767578125,-0.077392578125,1.00048828125,-233.0,195.0,32.0,101917.0,-4.923000335693359,0,0
1669.710996,-0.903076171875,0.049530029296875,0.011993408203125,0.426422119140625,0.1220703125,0.30517578125,0.1220703125,0.0596923828125,-0.080810546875,1.0008544921875,-233.0,195.0,32.0,101917.0,-4.923000335693359,0,0
1669.717996,-0.903076171875,0.049560546875,0.011993408203125,0.426422119140625,0.18310546875,0.42724609375,-0.18310546875,0.064697265625,-0.0826416015625,1.0003662109375,-233.0,195.0,32.0,101917.0,-4.923000335693359,0,0
1669.725021,-0.903076171875,0.049560546875,0.011993408203125,0.426422119140625,-0.06103515625,0.244140625,0.06103515625,0.067138671875,-0.0787353515625,1.0018310546875,-233.0,195.0,32.0,101917.0,-4.923000335693359,0,0
1669.732001,-0.903076171875,0.049560546875,0.011993408203125,0.426422119140625,0.06103515625,0.3662109375,0.1220703125,0.061279296875,-0.07763671875,1.0035400390625,-233.0,195.0,32.0,101917.0,-4.923000335693359,0,0
1669.739015,-0.903076171875,0.049560546875,0.011993408203125,0.426422119140625,-0.1220703125,0.244140625,0.0,0.0640869140625,-0.0777587890625,1.003662109375,-233.0,195.0,32.0,101917.0,-4.923000335693359,0,0
1669.745994,-0.903076171875,0.049560546875,0.011993408203125,0.426422119140625,0.06103515625,0.0,-0.06103515625,0.0675048828125,-0.0799560546875,1.002685546875,-233.0,195.0,32.0,101917.0,-4.923000335693359,0,0
1669.752998,-0.903076171875,0.049560546875,0.011993408203125,0.426422119140625,-0.1220703125,0.06103515625,-0.30517578125,0.066162109375,-0.078369140625,1.0030517578125,-233.0,195.0,32.0,101917.0,-4.923000335693359,0,0
1669.760018,-0.903076171875,0.049530029296875,0.012054443359375,0.426422119140625,0.06103515625,0.18310546875,0.244140625,0.0662841796875,-0.0762939453125,1.0013427734375,-233.0,195.0,32.0,101917.0,-4.923000335693359,0,0
1669.766046,-0.903076171875,0.049530029296875,0.012054443359375,0.426422119140625,0.06103515625,0.18310546875,0.244140625,0.0662841796875,-0.0762939453125,1.0013427734375,-233.0,195.0,32.0,101917.0,-4.923000335693359,0,0
1669.772994,-0.903076171875,0.049530029296875,0.012054443359375,0.426422119140625,0.0,0.48828125,0.06103515625,0.0654296875,-0.0782470703125,0.99951171875,-233.0,195.0,32.0,101917.0,-4.923000335693359,0,0
1669.780019,-0.903076171875,0.049530029296875,0.012054443359375,0.426422119140625,-0.18310546875,0.30517578125,-0.06103515625,0.066162109375,-0.0806884765625,0.9998779296875,-234.0,196.0,32.0,101917.0,-4.924000263214111,0,0
1669.786998,-0.903167724609375,0.049530029296875,0.012054443359375,0.42620849609375,0.18310546875,0.3662109375,0.1220703125,0.0643310546875,-0.079833984375,1.001220703125,-234.0,196.0,32.0,101917.0,-4.924000263214111,0,0
1669.794018,-0.903167724609375,0.049530029296875,0.0120849609375,0.42620849609375,0.18310546875,0.244140625,0.18310546875,0.0648193359375,-0.075927734375,1.0023193359375,-234.0,196.0,32.0,101917.0,-4.924000263214111,0,0
1669.800996,-0.903167724609375,0.049530029296875,0.0120849609375,0.42620849609375,-0.06103515625,0.6103515625,0.0,0.067138671875,-0.0802001953125,1.0023193359375,-234.0,196.0,32.0,101917.0,-4.924000263214111,0,0
1669.807996,-0.903167724609375,0.049530029296875,0.0120849609375,0.42620849609375,-0.18310546875,0.42724609375,-0.06103515625,0.06787109375,-0.079833984375,1.0045166015625,-234.0,196.0,32.0,101917.0,-4.924000263214111,0,0
1669.815021,-0.903167724609375,0.049530029296875,0.0120849609375,0.42620849609375,-0.06103515625,0.30517578125,-0.1220703125,0.0657958984375,-0.07958984375,1.001708984375,-234.0,196.0,32.0,101917.0,-4.924000263214111,0,0
1669.822001,-0.903167724609375,0.049530029296875,0.0120849609375,0.42620849609375,-0.1220703125,0.42724609375,0.0,0.06494140625,-0.08056640625,1.0015869140625,-234.0,196.0,32.0,101917.0,-4.924000263214111,0,0
1669.829015,-0.903167724609375,0.049530029296875,0.0120849609375,0.42620849609375,0.1220703125,0.48828125,-0.18310546875,0.0650634765625,-0.081787109375,1.0025634765625,-234.0,196.0,32.0,101917.0,-4.924000263214111,0,0
1669.850018,-0.903167724609375,0.049530029296875,0.012054443359375,0.42620849609375,0.0,0.42724609375,0.0,0.0628662109375,-0.0799560546875,1.000244140625,-234.0,196.0,32.0,101917.0,-4.924000263214111,0,0
1669.856046,-0.903167724609375,0.049530029296875,0.012054443359375,0.42620849609375,0.0,0.42724609375,0.0,0.0628662109375,-0.0799560546875,1.000244140625,-234.0,196.0,32.0,101917.0,-4.924000263214111,0,0
1669.862994,-0.903167724609375,0.049530029296875,0.012054443359375,0.42620849609375,0.1220703125,0.48828125,-0.1220703125,0.060791015625,-0.07958984375,1.0025634765625,-234.0,196.0,32.0,101917.0,-4.924000263214111,0,0
1669.870019,-0.903167724609375,0.049530029296875,0.01202392578125,0.42620849609375,-0.06103515625,0.3662109375,0.06103515625,0.0628662109375,-0.078857421875,1.0006103515625,-234.0,196.0,32.0,101917.0,-4.924000263214111,0,0
1669.876998,-0.903167724609375,0.04949951171875,0.012054443359375,0.42620849609375,0.0,0.3662109375,-0.1220703125,0.0657958984375,-0.0782470703125,1.0048828125,-234.0,196.0,32.0,101917.0,-4.923000335693359,0,0
1669.884018,-0.90325927734375,0.049530029296875,0.012054443359375,0.425994873046875,-0.06103515625,0.3662109375,-0.06103515625,0.065673828125,-0.0809326171875,1.0015869140625,-235.0,197.0,31.0,101917.0,-4.923000335693359,0,0
1669.890996,-0.90325927734375,0.04949951171875,0.012054443359375,0.425994873046875,-0.42724609375,0.42724609375,0.244140625,0.0638427734375,-0.07861328125,1.00390625,-235.0,197.0,31.0,101917.0,-4.923000335693359,0,0
1669.897996,-0.90325927734375,0.04949951171875,0.012054443359375,0.425994873046875,-0.1220703125,0.42724609375,-0.06103515625,0.064208984375,-0.080810546875,1.0020751953125,-235.0,197.0,31.0,101917.0,-4.923000335693359,0,0
1669.905021,-0.90325927734375,0.04949951171875,0.012054443359375,0.425994873046875,-0.244140625,0.06103515625,0.0,0.0635986328125,-0.0797119140625,1.001220703125,-235.0,197.0,31.0,101917.0,-4.923000335693359,0,0
1669.912001,-0.90325927734375,0.04949951171875,0.012054443359375,0.425994873046875,0.0,0.0,-0.3662109375,0.0667724609375,-0.07958984375,1.0001220703125,-235.0,197.0,31.0,101917.0,-4.923000335693359,0,0
1669.932998,-0.90325927734375,0.04949951171875,0.012054443359375,0.425994873046875,0.244140625,0.1220703125,0.18310546875,0.064697265625,-0.0770263671875,1.0008544921875,-235.0,197.0,31.0,101917.0,-4.923000335693359,0,0
1669.940023,-0.90325927734375,0.04949951171875,0.012054443359375,0.425994873046875,0.18310546875,0.1220703125,0.1220703125,0.0655517578125,-0.0804443359375,1.0032958984375,-235.0,197.0,31.0,101917.0,-4.923000335693359,0,0
1669.947002,-0.90325927734375,0.04949951171875,0.012054443359375,0.425994873046875,0.0,0.18310546875,0.30517578125,0.065185546875,-0.0794677734375,1.0020751953125,-235.0,197.0,31.0,101917.0,-4.923000335693359,0,0
1669.953035,-0.90325927734375,0.04949951171875,0.012054443359375,0.425994873046875,0.0,0.18310546875,0.30517578125,0.065185546875,-0.0794677734375,1.0020751953125,-235.0,197.0,31.0,101917.0,-4.923000335693359,0,0
1669.96002,-0.90325927734375,0.04949951171875,0.012054443359375,0.425994873046875,-0.1220703125,0.244140625,-0.06103515625,0.065673828125,-0.078369140625,1.0028076171875,-235.0,197.0,31.0,101917.0,-4.923000335693359,0,0
1669.966998,-0.90325927734375,0.04949951171875,0.012054443359375,0.425994873046875,0.06103515625,0.1220703125,0.06103515625,0.0650634765625,-0.079833984375,1.001953125,-235.0,197.0,31.0,101917.0,-4.923000335693359,0,0
1669.974018,-0.90325927734375,0.04949951171875,0.012054443359375,0.425994873046875,-0.1220703125,0.18310546875,-0.1220703125,0.062744140625,-0.080078125,1.0028076171875,-235.0,197.0,31.0,101917.0,-4.923000335693359,0,0
1669.980996,-0.90325927734375,0.04949951171875,0.012054443359375,0.425994873046875,0.30517578125,0.244140625,0.0,0.06640625,-0.080322265625,1.00048828125,-234.0,197.0,31.0,101917.0,-4.923000335693359,0,0
1669.987996,-0.903411865234375,0.04949951171875,0.0120849609375,0.425689697265625,-0.30517578125,0.30517578125,-0.1220703125,0.0650634765625,-0.0794677734375,1.0008544921875,-234.0,197.0,31.0,101917.0,-4.923000335693359,0,0
1669.995021,-0.903411865234375,0.04949951171875,0.0120849609375,0.425689697265625,0.0,0.30517578125,0.1220703125,0.0625,-0.080322265625,1.0003662109375,-234.0,197.0,31.0,101917.0,-4.923000335693359,0,0
1670.002001,-0.903411865234375,0.049530029296875,0.0120849609375,0.425689697265625,0.1220703125,0.1220703125,0.0,0.06396484375,-0.0806884765625,0.999267578125,-234.0,197.0,31.0,101917.0,-4.923000335693359,0,0
1670.009015,-0.903411865234375,0.049530029296875,0.0120849609375,0.425689697265625,-0.18310546875,0.3662109375,0.06103515625,0.06640625,-0.0804443359375,0.9998779296875,-234.0,197.0,31.0,101917.0,-4.923000335693359,0,0
1670.015999,-0.903411865234375,0.049530029296875,0.0120849609375,0.425689697265625,0.18310546875,0.30517578125,-0.30517578125,0.0660400390625,-0.08056640625,1.001953125,-234.0,197.0,31.0,101917.0,-4.923000335693359,0,0
1670.022998,-0.903411865234375,0.049530029296875,0.0120849609375,0.425689697265625,0.0,0.30517578125,0.0,0.0643310546875,-0.08056640625,1.0018310546875,-234.0,197.0,31.0,101917.0,-4.923000335693359,0,0
1670.030019,-0.903411865234375,0.049530029296875,0.0120849609375,0.425689697265625,-0.1220703125,0.3662109375,0.0,0.065185546875,-0.0819091796875,1.0015869140625,-234.0,197.0,31.0,101917.0,-4.923000335693359,0,0
1670.037002,-0.903411865234375,0.049530029296875,0.012054443359375,0.425689697265625,-0.244140625,0.244140625,0.0,0.0633544921875,-0.078125,1.0015869140625,-234.0,197.0,31.0,101917.0,-4.923000335693359,0,0
1670.04303,-0.903411865234375,0.049530029296875,0.012054443359375,0.425689697265625,-0.244140625,0.244140625,0.0,0.0633544921875,-0.078125,1.0015869140625,-234.0,197.0,31.0,101917.0,-4.923000335693359,0,0
1670.050019,-0.903411865234375,0.049530029296875,0.012054443359375,0.425689697265625,0.30517578125,0.1220703125,-0.06103515625,0.065185546875,-0.08056640625,1.002685546875,-234.0,197.0,31.0,101917.0,-4.923000335693359,0,0
1670.056998,-0.903411865234375,0.049530029296875,0.012054443359375,0.425689697265625,0.1220703125,0.0,0.0,0.063232421875,-0.077392578125,1.0015869140625,-234.0,197.0,31.0,101917.0,-4.923000335693359,0,0
1670.064018,-0.903411865234375,0.04949951171875,0.012054443359375,0.425689697265625,-0.1220703125,0.244140625,0.244140625,0.062255859375,-0.0787353515625,1.00146484375,-234.0,197.0,31.0,101917.0,-4.923000335693359,0,0
1670.070996,-0.903411865234375,0.04949951171875,0.01202392578125,0.425689697265625,0.0,0.18310546875,-0.1220703125,0.062744140625,-0.0810546875,1.000732421875,-234.0,197.0,31.0,101917.0,-4.923000335693359,0,0
1670.077996,-0.903411865234375,0.04949951171875,0.012054443359375,0.425689697265625,0.06103515625,0.42724609375,0.18310546875,0.0614013671875,-0.0806884765625,1.0023193359375,-235.0,196.0,32.0,101917.0,-4.923000335693359,0,0
1670.085021,-0.9034423828125,0.04949951171875,0.012054443359375,0.42559814453125,0.0,0.3662109375,0.1220703125,0.0657958984375,-0.0765380859375,1.0015869140625,-235.0,196.0,32.0,101917.0,-4.923000335693359,0,0
1670.092001,-0.9034423828125,0.04949951171875,0.012054443359375,0.42559814453125,-0.244140625,0.30517578125,0.0,0.0634765625,-0.080078125,1.0015869140625,-235.0,196.0,32.0,101917.0,-4.923000335693359,0,0
1670.112998,-0.9034423828125,0.04949951171875,0.012054443359375,0.42559814453125,-0.18310546875,0.18310546875,0.1220703125,0.0645751953125,-0.0804443359375,0.9991455078125,-235.0,196.0,32.0,101917.0,-4.923000335693359,0,0
1670.120018,-0.9034423828125,0.049530029296875,0.012054443359375,0.42559814453125,0.0,0.0,0.18310546875,0.0638427734375,-0.0814208984375,1.0009765625,-235.0,196.0,32.0,101917.0,-4.923000335693359,0,0
1670.127002,-0.9034423828125,0.049530029296875,0.012054443359375,0.42559814453125,0.18310546875,0.30517578125,-0.1220703125,0.06494140625,-0.080322265625,1.00146484375,-235.0,196.0,32.0,101917.0,-4.923000335693359,0,0
1670.13303,-0.9034423828125,0.049530029296875,0.012054443359375,0.42559814453125,0.18310546875,0.30517578125,-0.1220703125,0.06494140625,-0.080322265625,1.00146484375,-235.0,196.0,32.0,101917.0,-4.923000335693359,0,0
1670.140019,-0.9034423828125,0.049530029296875,0.012054443359375,0.42559814453125,0.06103515625,0.18310546875,0.0,0.067138671875,-0.0792236328125,1.001220703125,-235.0,196.0,32.0,101917.0,-4.923000335693359,0,0
1670.146998,-0.9034423828125,0.049530029296875,0.012054443359375,0.42559814453125,0.0,0.244140625,-0.06103515625,0.0643310546875,-0.0792236328125,1.0025634765625,-235.0,196.0,32.0,101917.0,-4.923000335693359,0,0
1670.154018,-0.9034423828125,0.049530029296875,0.012054443359375,0.42559814453125,0.0,0.244140625,0.3662109375,0.064697265625,-0.079345703125,1.001953125,-235.0,196.0,32.0,101917.0,-4.923000335693359,0,0
1670.160996,-0.9034423828125,0.049530029296875,0.012054443359375,0.42559814453125,0.0,0.1220703125,0.06103515625,0.065673828125,-0.0811767578125,1.001220703125,-235.0,196.0,32.0,101917.0,-4.923000335693359,0,0
1670.167996,-0.9034423828125,0.049530029296875,0.012054443359375,0.42559814453125,-0.06103515625,0.30517578125,0.06103515625,0.0645751953125,-0.0814208984375,1.001708984375,-235.0,196.0,32.0,101917.0,-4.923000335693359,0,0
1670.175021,-0.9034423828125,0.049530029296875,0.012054443359375,0.42559814453125,0.30517578125,0.1220703125,-0.06103515625,0.0643310546875,-0.0771484375,1.0013427734375,-235.0,196.0,32.0,101917.0,-4.924000263214111,0,0
1670.195994,-0.9034423828125,0.049530029296875,0.0120849609375,0.42559814453125,0.30517578125,0.42724609375,-0.06103515625,0.0662841796875,-0.08203125,1.001220703125,-236.0,195.0,32.0,101917.0,-4.924000263214111,0,0
1670.202998,-0.9034423828125,0.049530029296875,0.0120849609375,0.42559814453125,0.244140625,0.48828125,0.0,0.06494140625,-0.0784912109375,1.0006103515625,-236.0,195.0,32.0,101917.0,-4.924000263214111,0,0
1670.210018,-0.9034423828125,0.049530029296875,0.0120849609375,0.42559814453125,0.06103515625,0.244140625,-0.18310546875,0.0655517578125,-0.0804443359375,1.000732421875,-236.0,195.0,32.0,101917.0,-4.924000263214111,0,0
1670.217002,-0.9034423828125,0.049530029296875,0.0120849609375,0.42559814453125,0.0,0.244140625,-0.06103515625,0.06298828125,-0.0767822265625,1.001220703125,-236.0,195.0,32.0,101917.0,-4.924000263214111,0,0
1670.224018,-0.9034423828125,0.049530029296875,0.0120849609375,0.42559814453125,0.0,0.244140625,0.3662109375,0.0645751953125,-0.0792236328125,1.001220703125,-236.0,195.0,32.0,101917.0,-4.924000263214111,0,0
1670.230049,-0.9034423828125,0.049530029296875,0.0120849609375,0.42559814453125,0.0,0.244140625,0.3662109375,0.0645751953125,-0.0792236328125,1.001220703125,-236.0,195.0,32.0,101917.0,-4.924000263214111,0,0
1670.236998,-0.9034423828125,0.049530029296875,0.0120849609375,0.42559814453125,-0.1220703125,0.18310546875,0.06103515625,0.0626220703125,-0.080322265625,1.0010986328125,-236.0,195.0,32.0,101917.0,-4.924000263214111,0,0
1670.244018,-0.9034423828125,0.049530029296875,0.012054443359375,0.42559814453125,0.06103515625,0.244140625,0.1220703125,0.063232421875,-0.0810546875,1.0020751953125,-236.0,195.0,32.0,101917.0,-4.924000263214111,0,0
1670.250996,-0.9034423828125,0.049530029296875,0.0120849609375,0.42559814453125,-0.1220703125,0.48828125,0.1220703125,0.0650634765625,-0.0792236328125,1.0006103515625,-236.0,195.0,32.0,101917.0,-4.924000263214111,0,0
1670.257996,-0.9034423828125,0.04949951171875,0.0120849609375,0.42559814453125,-0.244140625,0.30517578125,0.06103515625,0.06396484375,-0.07763671875,1.0048828125,-236.0,195.0,32.0,101917.0,-4.924000263214111,0,0
1670.265021,-0.9034423828125,0.04949951171875,0.0120849609375,0.42559814453125,-0.1220703125,0.3662109375,-0.18310546875,0.064453125,-0.0799560546875,1.0032958984375,-236.0,195.0,32.0,101917.0,-4.924000263214111,0,0
1670.272001,-0.9034423828125,0.049530029296875,0.012054443359375,0.42559814453125,-0.1220703125,0.42724609375,-0.06103515625,0.0631103515625,-0.08154296875,1.0006103515625,-236.0,195.0,32.0,101917.0,-4.924000263214111,0,0
1670.279015,-0.9034423828125,0.049530029296875,0.012054443359375,0.42559814453125,0.3662109375,0.18310546875,0.1220703125,0.064453125,-0.0791015625,0.9996337890625,-235.0,195.0,31.0,101917.0,-4.923000335693359,0,0
1670.285999,-0.90350341796875,0.049530029296875,0.0120849609375,0.42547607421875,0.0,0.3662109375,0.0,0.065673828125,-0.080322265625,1.002685546875,-235.0,195.0,31.0,101917.0,-4.923000335693359,0,0
1670.292998,-0.90350341796875,0.049530029296875,0.0120849609375,0.42547607421875,0.18310546875,0.18310546875,-0.1220703125,0.0640869140625,-0.0804443359375,1.001953125,-235.0,195.0,31.0,101917.0,-4.923000335693359,0,0
1670.300023,-0.90350341796875,0.049530029296875,0.0120849609375,0.42547607421875,0.244140625,0.42724609375,-0.1220703125,0.064697265625,-0.081787109375,1.00048828125,-235.0,195.0,31.0,101917.0,-4.923000335693359,0,0
1670.307002,-0.90350341796875,0.049530029296875,0.0120849609375,0.42547607421875,-0.30517578125,0.3662109375,0.244140625,0.0653076171875,-0.0794677734375,1.00048828125,-235.0,195.0,31.0,101917.0,-4.923000335693359,0,0
1670.314018,-0.90350341796875,0.049530029296875,0.0120849609375,0.42547607421875,0.06103515625,0.42724609375,0.244140625,0.0618896484375,-0.080810546875,1.0006103515625,-235.0,195.0,31.0,101917.0,-4.923000335693359,0,0
1670.320049,-0.90350341796875,0.049530029296875,0.0120849609375,0.42547607421875,0.06103515625,0.42724609375,0.244140625,0.0618896484375,-0.080810546875,1.0006103515625,-235.0,195.0,31.0,101917.0,-4.923000335693359,0,0
1670.326998,-0.90350341796875,0.049530029296875,0.0120849609375,0.42547607421875,0.30517578125,0.42724609375,0.0,0.0650634765625,-0.078369140625,1.002685546875,-235.0,195.0,31.0,101917.0,-4.923000335693359,0,0
1670.334018,-0.90350341796875,0.049560546875,0.0120849609375,0.42547607421875,0.1220703125,0.48828125,0.06103515625,0.0650634765625,-0.0811767578125,1.001953125,-235.0,195.0,31.0,101917.0,-4.923000335693359,0,0
1670.340996,-0.90350341796875,0.049560546875,0.012054443359375,0.42547607421875,0.06103515625,0.3662109375,0.1220703125,0.0648193359375,-0.082763671875,1.000732421875,-235.0,195.0,31.0,101917.0,-4.923000335693359,0,0
1670.347996,-0.90350341796875,0.049560546875,0.0120849609375,0.42547607421875,0.06103515625,0.244140625,0.18310546875,0.06591796875,-0.0816650390625,1.0018310546875,-235.0,195.0,31.0,101917.0,-4.923000335693359,0,0
1670.369015,-0.90350341796875,0.049560546875,0.012054443359375,0.42547607421875,0.1220703125,0.18310546875,0.06103515625,0.0657958984375,-0.080810546875,1.00048828125,-235.0,195.0,31.0,101917.0,-4.923000335693359,0,0
1670.375994,-0.90350341796875,0.049560546875,0.0120849609375,0.42547607421875,0.1220703125,0.3662109375,0.18310546875,0.0645751953125,-0.0799560546875,1.0009765625,-235.0,195.0,31.0,101917.0,-4.923000335693359,0,0
1670.382998,-0.903533935546875,0.049560546875,0.012054443359375,0.425384521484375,0.06103515625,0.42724609375,-0.06103515625,0.064697265625,-0.0787353515625,1.002197265625,-235.0,195.0,31.0,101917.0,-4.923000335693359,0,0
1670.390018,-0.903533935546875,0.049560546875,0.012054443359375,0.425384521484375,-0.244140625,0.244140625,0.1220703125,0.06298828125,-0.0799560546875,1.001708984375,-235.0,195.0,31.0,101917.0,-4.923000335693359,0,0
1670.397002,-0.903533935546875,0.049560546875,0.0120849609375,0.425384521484375,-0.244140625,0.244140625,0.18310546875,0.0648193359375,-0.0799560546875,1.0010986328125,-235.0,195.0,31.0,101917.0,-4.923000335693359,0,0
1670.404018,-0.903533935546875,0.049560546875,0.012054443359375,0.425384521484375,0.06103515625,0.42724609375,-0.06103515625,0.0635986328125,-0.079833984375,0.999755859375,-235.0,195.0,31.0,101917.0,-4.923000335693359,0,0
1670.410996,-0.903564453125,0.049560546875,0.012054443359375,0.425384521484375,0.1220703125,0.244140625,0.18310546875,0.0628662109375,-0.07861328125,1.0032958984375,-235.0,195.0,31.0,101917.0,-4.923000335693359,0,0
1670.417028,-0.903564453125,0.049560546875,0.012054443359375,0.425384521484375,0.1220703125,0.244140625,0.18310546875,0.0628662109375,-0.07861328125,1.0032958984375,-235.0,195.0,31.0,101917.0,-4.923000335693359,0,0
1670.424018,-0.903564453125,0.049530029296875,0.0120849609375,0.425384521484375,-0.18310546875,0.30517578125,0.06103515625,0.066162109375,-0.0772705078125,1.001953125,-235.0,195.0,31.0,101917.0,-4.923000335693359,0,0
1670.430996,-0.903564453125,0.049530029296875,0.0120849609375,0.425384521484375,0.06103515625,0.244140625,0.0,0.063720703125,-0.0804443359375,1.0001220703125,-235.0,195.0,31.0,101917.0,-4.923000335693359,0,0
1670.437996,-0.903564453125,0.049530029296875,0.012054443359375,0.425384521484375,-0.18310546875,0.244140625,-0.06103515625,0.064453125,-0.078857421875,1.0010986328125,-235.0,195.0,31.0,101917.0,-4.923000335693359,0,0
1670.459015,-0.903564453125,0.049530029296875,0.012054443359375,0.425384521484375,-0.1220703125,0.30517578125,0.0,0.0643310546875,-0.0797119140625,1.0025634765625,-235.0,195.0,31.0,101917.0,-4.923000335693359,0,0
1670.465994,-0.903564453125,0.049530029296875,0.012054443359375,0.425384521484375,0.0,0.1220703125,0.18310546875,0.0640869140625,-0.080078125,1.003173828125,-235.0,195.0,31.0,101917.0,-4.923000335693359,0,0
1670.472998,-0.903564453125,0.049530029296875,0.012054443359375,0.425384521484375,0.1220703125,0.30517578125,0.06103515625,0.0643310546875,-0.0791015625,1.0006103515625,-235.0,195.0,31.0,101917.0,-4.923000335693359,0,0
1670.480018,-0.903564453125,0.049530029296875,0.012054443359375,0.425384521484375,-0.244140625,0.1220703125,-0.06103515625,0.06396484375,-0.0806884765625,1.0023193359375,-235.0,194.0,31.0,101917.0,-4.923000335693359,0,0
1670.487002,-0.903564453125,0.049560546875,0.012054443359375,0.425384521484375,0.18310546875,0.244140625,0.06103515625,0.067138671875,-0.082275390625,1.0013427734375,-235.0,194.0,31.0,101917.0,-4.923000335693359,0,0
1670.494018,-0.903533935546875,0.049560546875,0.012054443359375,0.425384521484375,-0.1220703125,0.3662109375,0.18310546875,0.064208984375,-0.080322265625,0.999267578125,-235.0,194.0,31.0,101917.0,-4.923000335693359,0,0
1670.500996,-0.903564453125,0.049560546875,0.012054443359375,0.425384521484375,-0.06103515625,0.3662109375,-0.18310546875,0.061279296875,-0.07958984375,1.0013427734375,-235.0,194.0,31.0,101917.0,-4.923000335693359,0,0
1670.507028,-0.903564453125,0.049560546875,0.012054443359375,0.425384521484375,-0.06103515625,0.3662109375,-0.18310546875,0.061279296875,-0.07958984375,1.0013427734375,-235.0,194.0,31.0,101917.0,-4.923000335693359,0,0
1670.514018,-0.903564453125,0.049560546875,0.012054443359375,0.425384521484375,-0.06103515625,0.42724609375,-0.244140625,0.0643310546875,-0.080322265625,1.0013427734375,-235.0,194.0,31.0,101917.0,-4.923000335693359,0,0
1670.520996,-0.903564453125,0.049560546875,0.012054443359375,0.425384521484375,0.06103515625,0.3662109375,-0.1220703125,0.064208984375,-0.0809326171875,1.0008544921875,-235.0,194.0,31.0,101917.0,-4.923000335693359,0,0
1670.527996,-0.903564453125,0.049530029296875,0.01202392578125,0.425384521484375,0.06103515625,0.18310546875,0.1220703125,0.0614013671875,-0.0777587890625,1.000732421875,-235.0,194.0,31.0,101917.0,-4.923000335693359,0,0
1670.535021,-0.903564453125,0.049530029296875,0.01202392578125,0.425384521484375,0.1220703125,0.30517578125,0.0,0.0643310546875,-0.0802001953125,1.0013427734375,-235.0,194.0,31.0,101917.0,-4.923000335693359,0,0
1670.542001,-0.903564453125,0.049530029296875,0.01202392578125,0.425384521484375,-0.1220703125,0.30517578125,0.1220703125,0.06298828125,-0.0809326171875,1.0009765625,-235.0,194.0,31.0,101917.0,-4.923000335693359,0,0
1670.549015,-0.903564453125,0.049530029296875,0.01202392578125,0.425384521484375,-0.1220703125,0.244140625,-0.244140625,0.063720703125,-0.07666015625,1.0047607421875,-235.0,194.0,31.0,101917.0,-4.923000335693359,0,0
1670.555999,-0.903564453125,0.049530029296875,0.012054443359375,0.425384521484375,0.1220703125,0.3662109375,0.244140625,0.06640625,-0.07861328125,1.0030517578125,-235.0,194.0,31.0,101917.0,-4.923000335693359,0,0
1670.562998,-0.903564453125,0.049530029296875,0.012054443359375,0.425384521484375,-0.06103515625,0.3662109375,0.18310546875,0.0654296875,-0.0791015625,1.00146484375,-235.0,194.0,31.0,101917.0,-4.923000335693359,0,0
1670.570023,-0.903564453125,0.049530029296875,0.012054443359375,0.425384521484375,0.06103515625,0.42724609375,-0.18310546875,0.063720703125,-0.0804443359375,1.000244140625,-235.0,194.0,31.0,101917.0,-4.923000335693359,0,0
1670.577002,-0.903564453125,0.049530029296875,0.01202392578125,0.425384521484375,0.06103515625,0.18310546875,0.0,0.06103515625,-0.0791015625,1.0003662109375,-236.0,193.0,31.0,101917.0,-4.923000335693359,0,0
1670.584018,-0.90350341796875,0.04949951171875,0.01202392578125,0.42547607421875,-0.06103515625,0.1220703125,0.1220703125,0.0635986328125,-0.079833984375,1.0008544921875,-236.0,193.0,31.0,101917.0,-4.923000335693359,0,0
1670.590996,-0.90350341796875,0.04949951171875,0.01202392578125,0.42547607421875,0.30517578125,0.1220703125,0.06103515625,0.0643310546875,-0.080322265625,1.0010986328125,-236.0,193.0,31.0,101917.0,-4.923000335693359,0,0
1670.597996,-0.90350341796875,0.049530029296875,0.01202392578125,0.42547607421875,0.06103515625,0.30517578125,-0.1220703125,0.0640869140625,-0.080078125,1.0006103515625,-236.0,193.0,31.0,101917.0,-4.923000335693359,0,0
1670.604029,-0.90350341796875,0.049530029296875,0.01202392578125,0.42547607421875,0.06103515625,0.30517578125,-0.1220703125,0.0640869140625,-0.080078125,1.0006103515625,-236.0,193.0,31.0,101917.0,-4.923000335693359,0,0
1670.610996,-0.90350341796875,0.049530029296875,0.01202392578125,0.42547607421875,-0.06103515625,0.30517578125,0.0,0.064453125,-0.08154296875,1.0023193359375,-236.0,193.0,31.0,101917.0,-4.923000335693359,0,0
