Time stamp(sec),adc1,adc2,roll_angular_rate,pitch_angular_rate,yaw_angular_rate,acc_X,acc_Y,acc_Z,mag_X,mag_Y,mag_Z,pressure,altitude
0.04982660000678152,0.371551513671875,-0.452117919921875,0.31134033203125,-0.74871826171875,0.18310546875,-0.244140625,-0.30517578125,0.444091796875,-0.7989501953125,0.3980712890625,-297.0,148.0,-147.0,101700.0,-3.122000217437744,0,0
0.04989480000222102,0.371551513671875,-0.452117919921875,0.31134033203125,-0.74871826171875,-0.06103515625,-0.1220703125,-0.3662109375,0.4473876953125,-0.799072265625,0.3995361328125,-297.0,148.0,-147.0,101700.0,-3.122000217437744,0,0
0.049951499997405335,0.371551513671875,-0.452117919921875,0.311309814453125,-0.74871826171875,-0.244140625,-0.06103515625,0.0,0.44580078125,-0.8009033203125,0.3975830078125,-297.0,148.0,-147.0,101700.0,-3.122000217437744,0,0
0.05000550000113435,0.37152099609375,-0.452117919921875,0.311309814453125,-0.74871826171875,0.1220703125,0.18310546875,-0.244140625,0.445068359375,-0.8006591796875,0.396484375,-297.0,148.0,-147.0,101700.0,-3.122000217437744,0,0
0.05006189999403432,0.37152099609375,-0.452117919921875,0.311309814453125,-0.74871826171875,0.18310546875,0.18310546875,0.06103515625,0.443603515625,-0.7991943359375,0.3973388671875,-297.0,148.0,-147.0,101700.0,-3.122000217437744,0,0
0.05011769999691751,0.37152099609375,-0.452117919921875,0.311309814453125,-0.74871826171875,0.18310546875,0.18310546875,0.06103515625,0.443603515625,-0.7991943359375,0.3973388671875,-296.0,148.0,-147.0,101700.0,-3.122000217437744,0,0
0.05018920000293292,0.371734619140625,-0.452178955078125,0.311187744140625,-0.748626708984375,-0.30517578125,0.0,0.18310546875,0.4454345703125,-0.7978515625,0.398193359375,-296.0,148.0,-147.0,101700.0,-3.122000217437744,0,0
0.050259199997526594,0.371734619140625,-0.452178955078125,0.311187744140625,-0.748626708984375,-0.30517578125,0.0,0.18310546875,0.4454345703125,-0.7978515625,0.398193359375,-296.0,148.0,-147.0,101700.0,-3.122000217437744,0,0
0.05116160000034142,0.371734619140625,-0.452178955078125,0.311187744140625,-0.748626708984375,0.1220703125,0.1220703125,0.1220703125,0.4434814453125,-0.7999267578125,0.3997802734375,-296.0,148.0,-147.0,101700.0,-3.122000217437744,0,0
0.05124489999434445,0.371734619140625,-0.4521484375,0.311187744140625,-0.7486572265625,0.3662109375,-0.06103515625,0.1220703125,0.4459228515625,-0.8023681640625,0.401611328125,-296.0,148.0,-147.0,101700.0,-3.122000217437744,0,0
0.05130609999469016,0.371734619140625,-0.4521484375,0.311187744140625,-0.7486572265625,-0.244140625,-0.06103515625,0.3662109375,0.447265625,-0.80419921875,0.3997802734375,-296.0,148.0,-147.0,101700.0,-3.122000217437744,0,0
0.0516728999937186,0.371734619140625,-0.4521484375,0.311187744140625,-0.748626708984375,-0.1220703125,0.1220703125,0.42724609375,0.4454345703125,-0.8046875,0.3974609375,-296.0,148.0,-147.0,101700.0,-3.122000217437744,0,0
0.05174369999440387,0.371734619140625,-0.4521484375,0.311187744140625,-0.7486572265625,-0.18310546875,-0.06103515625,0.1220703125,0.4437255859375,-0.804443359375,0.39697265625,-296.0,148.0,-147.0,101700.0,-3.122000217437744,0,0
0.10377020000305492,0.371734619140625,-0.4521484375,0.3111572265625,-0.7486572265625,0.06103515625,-0.30517578125,-0.18310546875,0.4456787109375,-0.79931640625,0.3955078125,-296.0,148.0,-147.0,101700.0,-3.123000144958496,0,0
0.10383550000551622,0.371734619140625,-0.4521484375,0.3111572265625,-0.7486572265625,0.06103515625,-0.30517578125,-0.18310546875,0.4456787109375,-0.79931640625,0.3955078125,-296.0,148.0,-147.0,101700.0,-3.123000144958496,0,0
0.10389009999926202,0.371734619140625,-0.4521484375,0.3111572265625,-0.7486572265625,0.1220703125,-0.1220703125,-0.06103515625,0.447998046875,-0.802734375,0.399658203125,-296.0,148.0,-147.0,101700.0,-3.123000144958496,0,0
0.10394309999537654,0.371734619140625,-0.4521484375,0.3111572265625,-0.7486572265625,-0.1220703125,0.06103515625,0.1220703125,0.4473876953125,-0.8013916015625,0.3990478515625,-296.0,148.0,-147.0,101700.0,-3.123000144958496,0,0
0.10401179999462329,0.371734619140625,-0.4521484375,0.3111572265625,-0.7486572265625,0.30517578125,0.1220703125,0.3662109375,0.4461669921875,-0.8006591796875,0.3973388671875,-296.0,148.0,-147.0,101700.0,-3.123000144958496,0,0
0.10406440000224393,0.371734619140625,-0.4521484375,0.3111572265625,-0.7486572265625,-0.54931640625,-0.06103515625,0.18310546875,0.4443359375,-0.8004150390625,0.3988037109375,-296.0,148.0,-147.0,101700.0,-3.123000144958496,0,0
0.10411699999531265,0.371734619140625,-0.4521484375,0.3111572265625,-0.7486572265625,0.244140625,-0.244140625,0.06103515625,0.4459228515625,-0.8006591796875,0.4010009765625,-296.0,148.0,-147.0,101700.0,-3.123000144958496,0,0
0.10417069999675732,0.371734619140625,-0.4521484375,0.311126708984375,-0.7486572265625,-0.06103515625,-0.1220703125,0.06103515625,0.4473876953125,-0.80322265625,0.3995361328125,-296.0,148.0,-147.0,101700.0,-3.123000144958496,0,0
0.10422360000666231,0.371734619140625,-0.4521484375,0.311126708984375,-0.748687744140625,-0.06103515625,0.0,0.06103515625,0.443359375,-0.8004150390625,0.399169921875,-296.0,148.0,-147.0,101700.0,-3.123000144958496,0,0
0.10428119999414776,0.371734619140625,-0.452117919921875,0.311126708984375,-0.748687744140625,0.1220703125,-0.30517578125,-0.30517578125,0.444580078125,-0.8001708984375,0.398681640625,-296.0,148.0,-147.0,101700.0,-3.123000144958496,0,0
0.10433250000642147,0.37176513671875,-0.452117919921875,0.311126708984375,-0.748687744140625,-0.30517578125,-0.1220703125,-0.244140625,0.4442138671875,-0.8009033203125,0.3988037109375,-296.0,148.0,-147.0,101700.0,-3.123000144958496,0,0
0.16490210000483785,0.371856689453125,-0.4521484375,0.311065673828125,-0.7486572265625,0.1220703125,-0.06103515625,0.0,0.447265625,-0.8009033203125,0.4014892578125,-297.0,148.0,-148.0,101700.0,-3.123000144958496,0,0
0.164963400005945,0.371856689453125,-0.4521484375,0.311065673828125,-0.7486572265625,-0.244140625,-0.1220703125,0.18310546875,0.444580078125,-0.8023681640625,0.40087890625,-297.0,148.0,-148.0,101700.0,-3.123000144958496,0,0
0.1650757000024896,0.371856689453125,-0.4521484375,0.311065673828125,-0.7486572265625,-0.30517578125,-0.1220703125,-0.1220703125,0.4439697265625,-0.802490234375,0.4002685546875,-297.0,148.0,-148.0,101700.0,-3.123000144958496,0,0
0.1651385000004666,0.371856689453125,-0.452117919921875,0.311065673828125,-0.7486572265625,-0.18310546875,0.0,0.1220703125,0.44482421875,-0.8017578125,0.4000244140625,-297.0,148.0,-148.0,101700.0,-3.123000144958496,0,0
0.16521560000546742,0.371856689453125,-0.452117919921875,0.31103515625,-0.7486572265625,-0.244140625,-0.244140625,-0.1220703125,0.447021484375,-0.8004150390625,0.398193359375,-297.0,148.0,-148.0,101700.0,-3.123000144958496,0,0
0.1671520999952918,0.371856689453125,-0.452117919921875,0.31103515625,-0.7486572265625,0.06103515625,0.0,-0.1220703125,0.4464111328125,-0.8028564453125,0.3988037109375,-297.0,148.0,-148.0,101700.0,-3.123000144958496,0,0
0.16721220000181347,0.371856689453125,-0.4521484375,0.311065673828125,-0.7486572265625,0.1220703125,-0.06103515625,-0.18310546875,0.4453125,-0.8016357421875,0.39501953125,-297.0,148.0,-148.0,101700.0,-3.123000144958496,0,0
0.1672660000040196,0.371856689453125,-0.4521484375,0.311065673828125,-0.7486572265625,0.1220703125,-0.06103515625,-0.18310546875,0.4453125,-0.8016357421875,0.39501953125,-297.0,148.0,-148.0,101700.0,-3.123000144958496,0,0
0.16732170000614133,0.371856689453125,-0.4521484375,0.311065673828125,-0.7486572265625,0.30517578125,-0.06103515625,-0.244140625,0.4459228515625,-0.8035888671875,0.3983154296875,-297.0,148.0,-148.0,101700.0,-3.120000123977661,0,0
0.16737860000284854,0.371856689453125,-0.4521484375,0.311065673828125,-0.7486572265625,0.0,0.18310546875,0.06103515625,0.4456787109375,-0.8038330078125,0.39892578125,-297.0,148.0,-148.0,101700.0,-3.120000123977661,0,0
0.16743460000725463,0.371856689453125,-0.452117919921875,0.311065673828125,-0.7486572265625,0.30517578125,0.1220703125,0.0,0.4442138671875,-0.80322265625,0.3984375,-297.0,148.0,-148.0,101700.0,-3.120000123977661,0,0
0.2309901999979047,0.371856689453125,-0.452117919921875,0.311065673828125,-0.7486572265625,0.1220703125,0.06103515625,0.1220703125,0.4466552734375,-0.80224609375,0.3992919921875,-297.0,148.0,-148.0,101700.0,-3.120000123977661,0,0
0.2310596000024816,0.371856689453125,-0.452117919921875,0.31103515625,-0.7486572265625,0.0,-0.06103515625,0.06103515625,0.4439697265625,-0.80322265625,0.399658203125,-297.0,148.0,-148.0,101700.0,-3.120000123977661,0,0
0.23118180000165012,0.371856689453125,-0.452117919921875,0.31103515625,-0.7486572265625,0.0,-0.1220703125,0.18310546875,0.4447021484375,-0.8018798828125,0.3994140625,-297.0,148.0,-148.0,101700.0,-3.120000123977661,0,0
0.23123560000385623,0.371856689453125,-0.452117919921875,0.31103515625,-0.7486572265625,0.0,0.0,-0.1220703125,0.4464111328125,-0.8026123046875,0.3995361328125,-297.0,148.0,-148.0,101700.0,-3.120000123977661,0,0
0.23128920000453945,0.371856689453125,-0.452117919921875,0.31103515625,-0.7486572265625,-0.18310546875,-0.1220703125,-0.244140625,0.445068359375,-0.7999267578125,0.3988037109375,-297.0,148.0,-148.0,101700.0,-3.120000123977661,0,0
0.2313410000060685,0.371856689453125,-0.452117919921875,0.31103515625,-0.7486572265625,0.42724609375,-0.30517578125,-0.30517578125,0.4464111328125,-0.80224609375,0.3984375,-297.0,148.0,-148.0,101700.0,-3.120000123977661,0,0
0.23445810000703204,0.371856689453125,-0.452117919921875,0.31103515625,-0.7486572265625,0.42724609375,-0.30517578125,-0.30517578125,0.4464111328125,-0.80224609375,0.3984375,-297.0,148.0,-148.0,101700.0,-3.120000123977661,0,0
0.23451850000128616,0.371856689453125,-0.452117919921875,0.31103515625,-0.748687744140625,0.18310546875,-0.1220703125,-0.244140625,0.4454345703125,-0.8011474609375,0.3994140625,-297.0,149.0,-148.0,101700.0,-3.120000123977661,0,0
0.23457119999511633,0.3720703125,-0.452178955078125,0.310882568359375,-0.74859619140625,0.0,0.0,-0.06103515625,0.4459228515625,-0.7987060546875,0.40185546875,-297.0,149.0,-148.0,101700.0,-3.120000123977661,0,0
0.23462250000739004,0.3720703125,-0.452178955078125,0.310882568359375,-0.74859619140625,-0.244140625,-0.18310546875,-0.18310546875,0.444580078125,-0.798583984375,0.3997802734375,-297.0,149.0,-148.0,101700.0,-3.120000123977661,0,0
0.23467400000663474,0.3720703125,-0.452178955078125,0.310882568359375,-0.74859619140625,-0.1220703125,-0.06103515625,-0.06103515625,0.446044921875,-0.8023681640625,0.3992919921875,-297.0,149.0,-148.0,101700.0,-3.120000123977661,0,0
0.23472839999885764,0.3720703125,-0.452178955078125,0.310882568359375,-0.74859619140625,0.0,-0.06103515625,0.18310546875,0.4464111328125,-0.800537109375,0.398681640625,-297.0,149.0,-148.0,101700.0,-3.120000123977661,0,0
0.23478139999497216,0.3720703125,-0.452178955078125,0.310882568359375,-0.74859619140625,0.06103515625,-0.06103515625,0.06103515625,0.4488525390625,-0.802734375,0.4010009765625,-297.0,149.0,-148.0,101700.0,-3.120000123977661,0,0
0.2906153999938397,0.3720703125,-0.452178955078125,0.310882568359375,-0.74859619140625,0.1220703125,0.06103515625,-0.1220703125,0.44384765625,-0.8006591796875,0.3975830078125,-297.0,149.0,-148.0,101700.0,-3.120000123977661,0,0
0.2906775000010384,0.3720703125,-0.452178955078125,0.310882568359375,-0.74859619140625,0.3662109375,-0.18310546875,-0.1220703125,0.4443359375,-0.7996826171875,0.3975830078125,-297.0,149.0,-148.0,101700.0,-3.120000123977661,0,0
0.2907329000008758,0.3720703125,-0.452178955078125,0.310882568359375,-0.74859619140625,0.06103515625,-0.244140625,-0.48828125,0.4464111328125,-0.79833984375,0.396484375,-297.0,149.0,-148.0,101700.0,-3.120000123977661,0,0
0.29078490000392776,0.3720703125,-0.452178955078125,0.31085205078125,-0.748626708984375,0.1220703125,-0.30517578125,-0.48828125,0.443359375,-0.7957763671875,0.3956298828125,-297.0,149.0,-148.0,101700.0,-3.120000123977661,0,0
0.2908376999985194,0.372039794921875,-0.452178955078125,0.31085205078125,-0.748626708984375,0.244140625,-0.18310546875,-0.48828125,0.446044921875,-0.7982177734375,0.3974609375,-297.0,149.0,-148.0,101700.0,-3.120000123977661,0,0
0.29141279999748804,0.372039794921875,-0.452178955078125,0.310821533203125,-0.748626708984375,-0.06103515625,-0.18310546875,-0.30517578125,0.4500732421875,-0.7991943359375,0.4005126953125,-297.0,149.0,-148.0,101700.0,-3.120000123977661,0,0
0.29148450000502635,0.372039794921875,-0.452178955078125,0.310821533203125,-0.748626708984375,0.0,0.06103515625,-0.06103515625,0.4486083984375,-0.80029296875,0.39990234375,-297.0,149.0,-148.0,101700.0,-3.120000123977661,0,0
0.291541500002495,0.372039794921875,-0.452178955078125,0.310821533203125,-0.7486572265625,-0.48828125,0.1220703125,0.30517578125,0.4473876953125,-0.801513671875,0.4005126953125,-297.0,149.0,-148.0,101700.0,-3.120000123977661,0,0
0.29159579999395646,0.372039794921875,-0.4521484375,0.310821533203125,-0.7486572265625,0.732421875,-0.06103515625,0.42724609375,0.4461669921875,-0.8009033203125,0.4022216796875,-297.0,149.0,-148.0,101700.0,-3.120000123977661,0,0
0.2916500999999698,0.3720703125,-0.4521484375,0.310821533203125,-0.7486572265625,-0.1220703125,0.0,0.244140625,0.4453125,-0.8048095703125,0.403564453125,-297.0,149.0,-148.0,101700.0,-3.120000123977661,0,0
0.2917048999952385,0.3720703125,-0.4521484375,0.310821533203125,-0.7486572265625,-0.1220703125,0.0,0.244140625,0.4453125,-0.8048095703125,0.403564453125,-297.0,149.0,-148.0,101700.0,-3.120000123977661,0,0
0.4092088000033982,0.3720703125,-0.452117919921875,0.310791015625,-0.7486572265625,-0.244140625,0.0,0.1220703125,0.4462890625,-0.8028564453125,0.4002685546875,-298.0,149.0,-149.0,101700.0,-3.124000072479248,0,0
0.40926699999545235,0.3720703125,-0.452117919921875,0.310791015625,-0.7486572265625,0.42724609375,-0.30517578125,-0.1220703125,0.4459228515625,-0.8043212890625,0.4005126953125,-298.0,149.0,-149.0,101700.0,-3.124000072479248,0,0
0.40932360000442713,0.3720703125,-0.452117919921875,0.310821533203125,-0.7486572265625,0.1220703125,-0.1220703125,-0.244140625,0.4442138671875,-0.80419921875,0.39990234375,-298.0,149.0,-149.0,101700.0,-3.124000072479248,0,0
0.40937969999504276,0.3720703125,-0.452117919921875,0.310791015625,-0.7486572265625,0.42724609375,-0.244140625,-0.42724609375,0.44580078125,-0.802734375,0.4000244140625,-298.0,149.0,-149.0,101700.0,-3.124000072479248,0,0
0.40943489999335725,0.3720703125,-0.45208740234375,0.310791015625,-0.7486572265625,0.244140625,0.0,-0.244140625,0.4453125,-0.80322265625,0.4000244140625,-298.0,149.0,-149.0,101700.0,-3.124000072479248,0,0
0.41117120000126306,0.3720703125,-0.45208740234375,0.310791015625,-0.748687744140625,-0.06103515625,-0.18310546875,-0.06103515625,0.447509765625,-0.803955078125,0.4022216796875,-298.0,149.0,-149.0,101700.0,-3.124000072479248,0,0
0.4112249000027077,0.3720703125,-0.45208740234375,0.310791015625,-0.748687744140625,-0.06103515625,-0.18310546875,-0.06103515625,0.447509765625,-0.803955078125,0.4022216796875,-298.0,149.0,-149.0,101700.0,-3.124000072479248,0,0
0.41127710000728257,0.3720703125,-0.45208740234375,0.310791015625,-0.748687744140625,0.1220703125,0.06103515625,-0.06103515625,0.44482421875,-0.8048095703125,0.4013671875,-298.0,149.0,-149.0,101700.0,-3.124000072479248,0,0
0.4113288999942597,0.372100830078125,-0.45208740234375,0.310791015625,-0.748687744140625,0.0,-0.06103515625,-0.06103515625,0.44189453125,-0.802490234375,0.400634765625,-298.0,149.0,-149.0,101700.0,-3.124000072479248,0,0
0.41137990000424907,0.372100830078125,-0.452056884765625,0.310791015625,-0.748687744140625,-0.3662109375,-0.06103515625,-0.244140625,0.4434814453125,-0.7982177734375,0.3992919921875,-298.0,149.0,-149.0,101700.0,-3.124000072479248,0,0
0.41143180000653956,0.372100830078125,-0.45208740234375,0.310791015625,-0.748687744140625,-0.1220703125,0.0,-0.18310546875,0.4461669921875,-0.8001708984375,0.39599609375,-298.0,149.0,-149.0,101700.0,-3.124000072479248,0,0
0.42002920000231825,0.372100830078125,-0.45208740234375,0.310791015625,-0.748687744140625,0.18310546875,-0.48828125,-0.30517578125,0.44482421875,-0.798828125,0.3963623046875,-298.0,149.0,-149.0,101700.0,-3.124000072479248,0,0
0.4200873999943724,0.372100830078125,-0.45208740234375,0.310791015625,-0.748687744140625,0.0,-0.244140625,-0.18310546875,0.4451904296875,-0.8011474609375,0.3966064453125,-298.0,149.0,-149.0,101700.0,-3.124000072479248,0,0
0.4201429999957327,0.3720703125,-0.45208740234375,0.310791015625,-0.748687744140625,0.1220703125,0.3662109375,-0.18310546875,0.44677734375,-0.80029296875,0.3961181640625,-298.0,149.0,-149.0,101700.0,-3.124000072479248,0,0
0.42019629999413155,0.372100830078125,-0.45208740234375,0.310791015625,-0.748687744140625,0.06103515625,-0.18310546875,0.0,0.444091796875,-0.80224609375,0.39697265625,-298.0,149.0,-149.0,101700.0,-3.124000072479248,0,0
0.42035200000100303,0.372100830078125,-0.45208740234375,0.310791015625,-0.748687744140625,-0.1220703125,0.18310546875,0.48828125,0.44775390625,-0.80224609375,0.398681640625,-298.0,149.0,-149.0,101700.0,-3.124000072479248,0,0
0.4204080000054091,0.372100830078125,-0.45208740234375,0.310791015625,-0.748687744140625,-0.1220703125,0.18310546875,0.48828125,0.44775390625,-0.80224609375,0.398681640625,-298.0,149.0,-149.0,101700.0,-3.124000072479248,0,0
0.42046019999543205,0.372100830078125,-0.452056884765625,0.310791015625,-0.748687744140625,-0.1220703125,-0.06103515625,0.42724609375,0.446044921875,-0.8016357421875,0.4005126953125,-298.0,149.0,-149.0,101700.0,-3.124000072479248,0,0
0.42141359999368433,0.372100830078125,-0.452056884765625,0.310791015625,-0.748687744140625,0.0,-0.1220703125,0.3662109375,0.446533203125,-0.80224609375,0.3988037109375,-298.0,149.0,-149.0,101700.0,-3.124000072479248,0,0
0.4214669000066351,0.372100830078125,-0.452056884765625,0.310791015625,-0.748687744140625,-0.18310546875,0.1220703125,0.244140625,0.4423828125,-0.8021240234375,0.3995361328125,-298.0,149.0,-149.0,101700.0,-3.124000072479248,0,0
0.4215189999958966,0.372100830078125,-0.452056884765625,0.310791015625,-0.748687744140625,-0.18310546875,0.1220703125,0.244140625,0.4423828125,-0.8021240234375,0.3995361328125,-296.0,150.0,-149.0,101700.0,-3.124000072479248,0,0
0.4215697000036016,0.372100830078125,-0.452056884765625,0.310791015625,-0.748687744140625,-0.244140625,-0.18310546875,0.06103515625,0.4449462890625,-0.8028564453125,0.3975830078125,-296.0,150.0,-149.0,101700.0,-3.124000072479248,0,0
0.4216216000058921,0.372100830078125,-0.452056884765625,0.310791015625,-0.748687744140625,0.244140625,0.0,-0.244140625,0.4444580078125,-0.801025390625,0.398681640625,-296.0,150.0,-149.0,101700.0,-3.124000072479248,0,0
0.4216745000012452,0.372100830078125,-0.452056884765625,0.310791015625,-0.748687744140625,0.0,0.06103515625,0.0,0.44580078125,-0.8016357421875,0.3973388671875,-296.0,150.0,-149.0,101700.0,-3.124000072479248,0,0
0.49003889999585226,0.372100830078125,-0.452056884765625,0.310791015625,-0.748687744140625,-0.06103515625,-0.30517578125,-0.42724609375,0.4464111328125,-0.80126953125,0.39892578125,-296.0,150.0,-149.0,101700.0,-3.124000072479248,0,0
0.4901111000071978,0.372100830078125,-0.452056884765625,0.310760498046875,-0.74871826171875,0.0,-0.244140625,-0.06103515625,0.445068359375,-0.8026123046875,0.3994140625,-296.0,150.0,-149.0,101700.0,-3.124000072479248,0,0
0.49016889999620616,0.372100830078125,-0.4520263671875,0.310791015625,-0.748687744140625,0.30517578125,-0.06103515625,-0.1220703125,0.4461669921875,-0.8009033203125,0.3983154296875,-296.0,150.0,-149.0,101700.0,-3.124000072479248,0,0
0.4902222999953665,0.372100830078125,-0.4520263671875,0.310791015625,-0.74871826171875,0.0,-0.1220703125,-0.1220703125,0.4443359375,-0.8021240234375,0.398193359375,-296.0,150.0,-149.0,101700.0,-3.124000072479248,0,0
0.49027720000594854,0.372100830078125,-0.4520263671875,0.310760498046875,-0.74871826171875,0.0,0.06103515625,-0.18310546875,0.443359375,-0.7991943359375,0.3984375,-296.0,150.0,-149.0,101700.0,-3.124000072479248,0,0
0.49111899999843445,0.372100830078125,-0.4520263671875,0.310791015625,-0.74871826171875,-0.1220703125,-0.1220703125,0.0,0.447021484375,-0.8018798828125,0.3983154296875,-296.0,150.0,-149.0,101700.0,-3.124000072479248,0,0
0.4911737000074936,0.372100830078125,-0.4520263671875,0.310760498046875,-0.74871826171875,-0.06103515625,0.06103515625,0.0,0.44482421875,-0.8018798828125,0.3975830078125,-296.0,150.0,-149.0,101700.0,-3.124000072479248,0,0
0.49122880000504665,0.372100830078125,-0.4520263671875,0.310791015625,-0.74871826171875,0.0,-0.42724609375,-0.06103515625,0.4456787109375,-0.8018798828125,0.3984375,-296.0,150.0,-149.0,101700.0,-3.124000072479248,0,0
0.4912813999981154,0.372100830078125,-0.4520263671875,0.310791015625,-0.748687744140625,-0.18310546875,0.1220703125,-0.18310546875,0.4449462890625,-0.8028564453125,0.39794921875,-296.0,150.0,-149.0,101700.0,-3.124000072479248,0,0
0.4913324999943143,0.372100830078125,-0.4520263671875,0.310791015625,-0.748687744140625,-0.18310546875,0.1220703125,-0.18310546875,0.4449462890625,-0.8028564453125,0.39794921875,-296.0,150.0,-149.0,101700.0,-3.124000072479248,0,0
0.49138639999728184,0.372100830078125,-0.4520263671875,0.310791015625,-0.748687744140625,0.0,-0.1220703125,0.0,0.4476318359375,-0.80419921875,0.398193359375,-296.0,150.0,-149.0,101700.0,-3.124000072479248,0,0
0.5462246999959461,0.37213134765625,-0.4520263671875,0.310791015625,-0.748687744140625,-0.06103515625,-0.244140625,0.1220703125,0.444580078125,-0.8018798828125,0.400146484375,-296.0,150.0,-149.0,101700.0,-3.124000072479248,0,0
0.5462842999986606,0.37213134765625,-0.4520263671875,0.310791015625,-0.748687744140625,0.06103515625,0.0,-0.244140625,0.445068359375,-0.8018798828125,0.3975830078125,-296.0,151.0,-149.0,101700.0,-3.122000217437744,0,0
0.5463393999962136,0.37213134765625,-0.4520263671875,0.310791015625,-0.74871826171875,0.1220703125,-0.18310546875,-0.30517578125,0.447265625,-0.8013916015625,0.3978271484375,-296.0,151.0,-149.0,101700.0,-3.122000217437744,0,0
0.5463940000045113,0.37213134765625,-0.4520263671875,0.310791015625,-0.74871826171875,0.18310546875,-0.06103515625,0.244140625,0.4451904296875,-0.801513671875,0.3984375,-296.0,151.0,-149.0,101700.0,-3.122000217437744,0,0
0.5464484999974957,0.37213134765625,-0.4520263671875,0.310791015625,-0.74871826171875,0.18310546875,-0.06103515625,0.1220703125,0.4464111328125,-0.8013916015625,0.3975830078125,-296.0,151.0,-149.0,101700.0,-3.122000217437744,0,0
0.5475998000038089,0.37213134765625,-0.4520263671875,0.310791015625,-0.74871826171875,0.18310546875,-0.06103515625,0.1220703125,0.4464111328125,-0.8013916015625,0.3975830078125,-296.0,151.0,-149.0,101700.0,-3.122000217437744,0,0
0.5476592000050005,0.37213134765625,-0.4520263671875,0.310791015625,-0.748687744140625,0.0,0.0,-0.06103515625,0.44677734375,-0.802001953125,0.3978271484375,-296.0,151.0,-149.0,101700.0,-3.122000217437744,0,0
0.5477134999964619,0.37213134765625,-0.4520263671875,0.310791015625,-0.74871826171875,0.18310546875,-0.18310546875,0.0,0.4461669921875,-0.8017578125,0.398193359375,-296.0,151.0,-149.0,101700.0,-3.122000217437744,0,0
0.5477670999971451,0.37213134765625,-0.4520263671875,0.310791015625,-0.74871826171875,0.30517578125,-0.244140625,-0.42724609375,0.4442138671875,-0.7998046875,0.398681640625,-296.0,151.0,-149.0,101700.0,-3.122000217437744,0,0
0.5478195000032429,0.37213134765625,-0.4520263671875,0.310791015625,-0.74871826171875,0.0,-0.18310546875,-0.1220703125,0.4459228515625,-0.8017578125,0.3988037109375,-296.0,151.0,-149.0,101700.0,-3.122000217437744,0,0
0.5478726000001188,0.37213134765625,-0.4520263671875,0.310791015625,-0.74871826171875,0.244140625,0.0,-0.30517578125,0.445556640625,-0.802978515625,0.39892578125,-296.0,151.0,-149.0,101700.0,-3.122000217437744,0,0
0.6131338999985019,0.37213134765625,-0.4520263671875,0.310791015625,-0.74871826171875,0.18310546875,-0.06103515625,0.0,0.444580078125,-0.8033447265625,0.398681640625,-296.0,151.0,-149.0,101700.0,-3.122000217437744,0,0
0.6132037000061246,0.37213134765625,-0.4520263671875,0.310791015625,-0.74871826171875,-0.1220703125,0.1220703125,-0.06103515625,0.4478759765625,-0.802978515625,0.3980712890625,-296.0,151.0,-149.0,101700.0,-3.122000217437744,0,0
0.6133059999992838,0.37213134765625,-0.4520263671875,0.310791015625,-0.74871826171875,0.30517578125,-0.06103515625,-0.06103515625,0.4449462890625,-0.802001953125,0.399169921875,-296.0,151.0,-149.0,101700.0,-3.122000217437744,0,0
0.6134362000011606,0.37213134765625,-0.4520263671875,0.310791015625,-0.74871826171875,-0.18310546875,0.3662109375,0.18310546875,0.4439697265625,-0.799560546875,0.39794921875,-296.0,151.0,-149.0,101700.0,-3.122000217437744,0,0
0.6135006999975303,0.37213134765625,-0.4520263671875,0.310791015625,-0.74871826171875,-0.18310546875,0.3662109375,0.18310546875,0.4439697265625,-0.799560546875,0.39794921875,-296.0,151.0,-149.0,101700.0,-3.122000217437744,0,0
0.6135794000001624,0.37213134765625,-0.4520263671875,0.310791015625,-0.74871826171875,0.0,-0.244140625,0.06103515625,0.4442138671875,-0.80126953125,0.3968505859375,-296.0,151.0,-149.0,101700.0,-3.122000217437744,0,0
0.6136390000028769,0.37213134765625,-0.4520263671875,0.310791015625,-0.74871826171875,0.30517578125,0.06103515625,0.1220703125,0.4454345703125,-0.80029296875,0.3968505859375,-296.0,151.0,-149.0,101700.0,-3.122000217437744,0,0
0.6137128999980632,0.37213134765625,-0.4520263671875,0.310791015625,-0.74871826171875,-0.1220703125,0.06103515625,0.1220703125,0.4461669921875,-0.8023681640625,0.3995361328125,-296.0,151.0,-149.0,101700.0,-3.122000217437744,0,0
0.6137852999963798,0.37213134765625,-0.4520263671875,0.310760498046875,-0.74871826171875,0.54931640625,-0.06103515625,0.0,0.4482421875,-0.8001708984375,0.399658203125,-296.0,151.0,-149.0,101700.0,-3.122000217437744,0,0
0.6138575000077253,0.37213134765625,-0.4520263671875,0.310760498046875,-0.74871826171875,0.06103515625,0.0,0.1220703125,0.4454345703125,-0.8017578125,0.3995361328125,-296.0,151.0,-149.0,101700.0,-3.122000217437744,0,0
0.61737570000696,0.37213134765625,-0.451995849609375,0.310760498046875,-0.74871826171875,-0.18310546875,0.3662109375,0.244140625,0.4449462890625,-0.8017578125,0.39794921875,-296.0,151.0,-149.0,101700.0,-3.122000217437744,0,0
0.6174713999935193,0.372314453125,-0.45208740234375,0.310638427734375,-0.748626708984375,-0.18310546875,0.3662109375,0.244140625,0.4449462890625,-0.8017578125,0.39794921875,-296.0,151.0,-149.0,101700.0,-3.121000051498413,0,0
0.6175341000052867,0.372314453125,-0.45208740234375,0.310638427734375,-0.748626708984375,0.06103515625,-0.18310546875,0.06103515625,0.445556640625,-0.80029296875,0.39794921875,-296.0,151.0,-149.0,101700.0,-3.121000051498413,0,0
0.6855210000067018,0.372314453125,-0.45208740234375,0.310638427734375,-0.748626708984375,0.0,-0.42724609375,-0.30517578125,0.4468994140625,-0.8009033203125,0.3975830078125,-296.0,151.0,-149.0,101700.0,-3.121000051498413,0,0
0.6855893000029027,0.372314453125,-0.45208740234375,0.310638427734375,-0.748626708984375,-0.06103515625,-0.244140625,-0.06103515625,0.4443359375,-0.80126953125,0.3975830078125,-296.0,151.0,-149.0,101700.0,-3.121000051498413,0,0
0.6856478999980027,0.372314453125,-0.45208740234375,0.310638427734375,-0.748626708984375,0.1220703125,-0.1220703125,-0.30517578125,0.4471435546875,-0.80029296875,0.3988037109375,-296.0,151.0,-149.0,101700.0,-3.121000051498413,0,0
0.6857042000046931,0.372314453125,-0.45208740234375,0.310638427734375,-0.748626708984375,0.0,0.0,0.06103515625,0.447265625,-0.80029296875,0.4005126953125,-296.0,151.0,-149.0,101700.0,-3.121000051498413,0,0
0.685759700005292,0.372314453125,-0.45208740234375,0.310638427734375,-0.748626708984375,0.1220703125,-0.1220703125,-0.06103515625,0.444580078125,-0.8017578125,0.3994140625,-296.0,151.0,-149.0,101700.0,-3.121000051498413,0,0
0.6860306000016863,0.372344970703125,-0.452056884765625,0.310638427734375,-0.748626708984375,-0.06103515625,0.0,-0.18310546875,0.445556640625,-0.801513671875,0.4002685546875,-296.0,151.0,-149.0,101700.0,-3.121000051498413,0,0
0.6860864000045694,0.372344970703125,-0.452056884765625,0.310638427734375,-0.748626708984375,0.244140625,-0.18310546875,0.06103515625,0.443359375,-0.802001953125,0.3975830078125,-296.0,151.0,-149.0,101700.0,-3.121000051498413,0,0
0.6861455000034766,0.372344970703125,-0.452056884765625,0.310638427734375,-0.748626708984375,0.3662109375,-0.06103515625,-0.1220703125,0.4464111328125,-0.80078125,0.398681640625,-296.0,151.0,-149.0,101700.0,-3.121000051498413,0,0
0.6862026000017067,0.372344970703125,-0.452056884765625,0.310638427734375,-0.748626708984375,0.3662109375,-0.06103515625,-0.1220703125,0.4464111328125,-0.80078125,0.398681640625,-296.0,151.0,-149.0,101700.0,-3.121000051498413,0,0
0.6862583000038285,0.372344970703125,-0.452056884765625,0.310638427734375,-0.748626708984375,0.18310546875,-0.06103515625,-0.1220703125,0.4466552734375,-0.802490234375,0.3973388671875,-296.0,151.0,-149.0,101700.0,-3.121000051498413,0,0
0.6863150999997742,0.372344970703125,-0.452056884765625,0.310638427734375,-0.748626708984375,-0.18310546875,-0.06103515625,0.0,0.4449462890625,-0.8006591796875,0.3995361328125,-296.0,151.0,-149.0,101700.0,-3.121000051498413,0,0
0.7415755999973044,0.372344970703125,-0.452056884765625,0.31060791015625,-0.7486572265625,-0.18310546875,-0.06103515625,-0.30517578125,0.4483642578125,-0.8017578125,0.398681640625,-296.0,151.0,-149.0,101700.0,-3.121000051498413,0,0
0.7416410000005271,0.372344970703125,-0.452056884765625,0.31060791015625,-0.7486572265625,0.0,-0.18310546875,0.1220703125,0.4453125,-0.8004150390625,0.3985595703125,-296.0,151.0,-149.0,101700.0,-3.121000051498413,0,0
0.741698500001803,0.372344970703125,-0.452056884765625,0.31060791015625,-0.7486572265625,0.0,-0.06103515625,-0.1220703125,0.4442138671875,-0.8033447265625,0.4005126953125,-296.0,151.0,-149.0,101700.0,-3.121000051498413,0,0
0.7417540000024019,0.372344970703125,-0.452056884765625,0.31060791015625,-0.7486572265625,-0.06103515625,-0.06103515625,0.0,0.4451904296875,-0.8018798828125,0.4002685546875,-296.0,151.0,-149.0,101700.0,-3.122000217437744,0,0
0.7418098000052851,0.372344970703125,-0.452056884765625,0.31060791015625,-0.7486572265625,-0.06103515625,-0.06103515625,0.0,0.4451904296875,-0.8018798828125,0.4002685546875,-296.0,151.0,-149.0,101700.0,-3.122000217437744,0,0
0.7488261999969836,0.372344970703125,-0.452056884765625,0.31060791015625,-0.7486572265625,0.0,-0.3662109375,-0.1220703125,0.4459228515625,-0.8033447265625,0.400634765625,-296.0,150.0,-149.0,101700.0,-3.122000217437744,0,0
0.7488921000040136,0.372344970703125,-0.4520263671875,0.31060791015625,-0.7486572265625,0.18310546875,-0.244140625,-0.06103515625,0.4453125,-0.802978515625,0.398681640625,-296.0,150.0,-149.0,101700.0,-3.122000217437744,0,0
0.7489518000074895,0.372344970703125,-0.4520263671875,0.31060791015625,-0.7486572265625,0.0,-0.18310546875,0.06103515625,0.4442138671875,-0.80078125,0.3992919921875,-296.0,150.0,-149.0,101700.0,-3.122000217437744,0,0
0.7490105000033509,0.372344970703125,-0.4520263671875,0.31060791015625,-0.7486572265625,-0.3662109375,-0.06103515625,-0.1220703125,0.4437255859375,-0.8013916015625,0.399658203125,-296.0,150.0,-149.0,101700.0,-3.122000217437744,0,0
0.7491178000054788,0.372344970703125,-0.4520263671875,0.31060791015625,-0.7486572265625,-0.1220703125,-0.06103515625,-0.06103515625,0.44384765625,-0.8018798828125,0.3994140625,-296.0,150.0,-149.0,101700.0,-3.122000217437744,0,0
0.7491786000027787,0.372344970703125,-0.4520263671875,0.31060791015625,-0.7486572265625,0.0,0.0,-0.06103515625,0.444580078125,-0.8009033203125,0.3997802734375,-296.0,150.0,-149.0,101700.0,-3.122000217437744,0,0
0.8015876999998,0.37237548828125,-0.451995849609375,0.31060791015625,-0.7486572265625,-0.06103515625,-0.06103515625,0.244140625,0.4447021484375,-0.8031005859375,0.399169921875,-296.0,150.0,-149.0,101700.0,-3.122000217437744,0,0
0.8016572000051383,0.372344970703125,-0.4520263671875,0.31060791015625,-0.7486572265625,0.1220703125,0.0,-0.244140625,0.44775390625,-0.7999267578125,0.398681640625,-296.0,150.0,-149.0,101700.0,-3.122000217437744,0,0
0.8017170999955852,0.372344970703125,-0.4520263671875,0.31060791015625,-0.7486572265625,0.0,-0.1220703125,-0.06103515625,0.445556640625,-0.802001953125,0.3992919921875,-296.0,150.0,-149.0,101700.0,-3.122000217437744,0,0
0.8017743999953382,0.372344970703125,-0.4520263671875,0.31060791015625,-0.7486572265625,0.0,-0.1220703125,-0.06103515625,0.445556640625,-0.802001953125,0.3992919921875,-296.0,150.0,-149.0,101700.0,-3.122000217437744,0,0
0.8018316999950912,0.37237548828125,-0.451995849609375,0.31060791015625,-0.7486572265625,0.06103515625,0.0,-0.18310546875,0.446533203125,-0.8016357421875,0.399169921875,-296.0,150.0,-149.0,101700.0,-3.122000217437744,0,0
0.8018897000001743,0.372344970703125,-0.451995849609375,0.31060791015625,-0.7486572265625,-0.18310546875,-0.06103515625,0.1220703125,0.4476318359375,-0.80224609375,0.400390625,-296.0,150.0,-149.0,101700.0,-3.122000217437744,0,0
0.8019479000067804,0.37237548828125,-0.451995849609375,0.31060791015625,-0.748687744140625,0.06103515625,-0.06103515625,0.1220703125,0.4453125,-0.802978515625,0.399658203125,-296.0,150.0,-149.0,101700.0,-3.122000217437744,0,0
0.8021582999936072,0.37237548828125,-0.451995849609375,0.31060791015625,-0.748687744140625,0.0,0.1220703125,0.244140625,0.445068359375,-0.80126953125,0.3988037109375,-296.0,150.0,-149.0,101700.0,-3.122000217437744,0,0
0.8022200999985216,0.372344970703125,-0.451995849609375,0.31060791015625,-0.748687744140625,0.06103515625,0.0,-0.06103515625,0.4468994140625,-0.8009033203125,0.3992919921875,-296.0,150.0,-149.0,101700.0,-3.122000217437744,0,0
0.8022774999990361,0.372344970703125,-0.451995849609375,0.31060791015625,-0.748687744140625,-0.42724609375,-0.30517578125,-0.06103515625,0.447509765625,-0.802001953125,0.3994140625,-296.0,150.0,-149.0,101700.0,-3.122000217437744,0,0
0.8023346999980276,0.372344970703125,-0.451995849609375,0.31060791015625,-0.748687744140625,0.1220703125,0.06103515625,0.1220703125,0.4462890625,-0.8017578125,0.3988037109375,-296.0,150.0,-149.0,101700.0,-3.122000217437744,0,0
0.8023892000055639,0.372344970703125,-0.451995849609375,0.31060791015625,-0.748687744140625,0.18310546875,0.06103515625,0.0,0.443359375,-0.799560546875,0.399169921875,-296.0,150.0,-149.0,101700.0,-3.122000217437744,0,0
0.8024464000045555,0.372344970703125,-0.451995849609375,0.31060791015625,-0.748687744140625,0.18310546875,0.06103515625,0.0,0.443359375,-0.799560546875,0.399169921875,-296.0,150.0,-149.0,101700.0,-3.122000217437744,0,0
0.8701583000074606,0.372467041015625,-0.452056884765625,0.310546875,-0.748626708984375,0.06103515625,0.0,0.1220703125,0.447265625,-0.80224609375,0.3980712890625,-295.0,151.0,-150.0,101700.0,-3.123000144958496,0,0
0.8702206000016304,0.372467041015625,-0.452056884765625,0.310516357421875,-0.748626708984375,-0.06103515625,-0.1220703125,-0.18310546875,0.4456787109375,-0.802734375,0.3973388671875,-295.0,151.0,-150.0,101700.0,-3.123000144958496,0,0
0.8702768000075594,0.372467041015625,-0.452056884765625,0.310516357421875,-0.748626708984375,0.18310546875,-0.06103515625,0.18310546875,0.445068359375,-0.80126953125,0.3988037109375,-295.0,151.0,-150.0,101700.0,-3.123000144958496,0,0
0.8703317000035895,0.372467041015625,-0.4520263671875,0.310516357421875,-0.748626708984375,0.0,0.06103515625,-0.18310546875,0.4451904296875,-0.801513671875,0.3997802734375,-295.0,151.0,-150.0,101700.0,-3.123000144958496,0,0
0.870386900001904,0.372467041015625,-0.4520263671875,0.310516357421875,-0.748626708984375,-0.1220703125,-0.18310546875,0.0,0.4454345703125,-0.7999267578125,0.399658203125,-295.0,151.0,-150.0,101700.0,-3.123000144958496,0,0
0.8704576000018278,0.372467041015625,-0.4520263671875,0.310516357421875,-0.748626708984375,0.0,0.0,-0.06103515625,0.4454345703125,-0.8028564453125,0.39892578125,-295.0,151.0,-150.0,101700.0,-3.123000144958496,0,0
0.8705099000071641,0.372467041015625,-0.4520263671875,0.310516357421875,-0.748626708984375,0.1220703125,-0.06103515625,-0.18310546875,0.4439697265625,-0.8018798828125,0.3978271484375,-295.0,151.0,-150.0,101700.0,-3.123000144958496,0,0
0.8705635999940569,0.372467041015625,-0.4520263671875,0.310516357421875,-0.748626708984375,0.1220703125,-0.06103515625,-0.18310546875,0.4439697265625,-0.8018798828125,0.3978271484375,-295.0,151.0,-150.0,101700.0,-3.123000144958496,0,0
0.8706172999955015,0.372467041015625,-0.4520263671875,0.310516357421875,-0.748626708984375,0.244140625,-0.3662109375,-0.06103515625,0.4454345703125,-0.8013916015625,0.399169921875,-295.0,151.0,-150.0,101700.0,-3.123000144958496,0,0
0.8706737000029534,0.372467041015625,-0.4520263671875,0.310516357421875,-0.748626708984375,0.06103515625,-0.06103515625,-0.1220703125,0.4453125,-0.8011474609375,0.399169921875,-295.0,151.0,-150.0,101700.0,-3.123000144958496,0,0
0.8707310000027064,0.372467041015625,-0.4520263671875,0.310516357421875,-0.748626708984375,0.06103515625,0.06103515625,-0.1220703125,0.443603515625,-0.80224609375,0.3973388671875,-295.0,151.0,-150.0,101700.0,-3.123000144958496,0,0
0.932673799994518,0.372467041015625,-0.4520263671875,0.310516357421875,-0.748626708984375,-0.244140625,-0.06103515625,-0.18310546875,0.445068359375,-0.8006591796875,0.3975830078125,-295.0,151.0,-150.0,101700.0,-3.123000144958496,0,0
0.9327355999994325,0.372467041015625,-0.4520263671875,0.310546875,-0.748626708984375,0.18310546875,-0.18310546875,-0.18310546875,0.4462890625,-0.8016357421875,0.3980712890625,-295.0,151.0,-150.0,101700.0,-3.123000144958496,0,0
0.932792799998424,0.372467041015625,-0.4520263671875,0.310546875,-0.748626708984375,0.18310546875,0.06103515625,-0.244140625,0.44580078125,-0.803466796875,0.398193359375,-295.0,151.0,-150.0,101700.0,-3.123000144958496,0,0
0.9328466000006301,0.372467041015625,-0.4520263671875,0.310546875,-0.748626708984375,0.18310546875,0.06103515625,-0.244140625,0.44580078125,-0.803466796875,0.398193359375,-295.0,151.0,-150.0,101700.0,-3.123000144958496,0,0
0.9328994999959832,0.372467041015625,-0.4520263671875,0.310546875,-0.748626708984375,-0.244140625,0.06103515625,0.0,0.4449462890625,-0.802001953125,0.39794921875,-295.0,151.0,-150.0,101700.0,-3.121000051498413,0,0
0.9391772999952082,0.372467041015625,-0.4520263671875,0.310546875,-0.748626708984375,-0.06103515625,-0.1220703125,0.0,0.4459228515625,-0.80224609375,0.4000244140625,-295.0,150.0,-151.0,101700.0,-3.121000051498413,0,0
0.9392440999945393,0.372161865234375,-0.451904296875,0.310699462890625,-0.748779296875,0.244140625,0.18310546875,0.244140625,0.4461669921875,-0.8016357421875,0.398681640625,-295.0,150.0,-151.0,101700.0,-3.121000051498413,0,0
0.9392979999975068,0.372161865234375,-0.451904296875,0.310699462890625,-0.748779296875,0.06103515625,0.0,0.18310546875,0.44580078125,-0.80224609375,0.400390625,-295.0,150.0,-151.0,101700.0,-3.121000051498413,0,0
0.93935380000039,0.372161865234375,-0.451904296875,0.310699462890625,-0.748779296875,0.1220703125,0.244140625,-0.1220703125,0.4453125,-0.8038330078125,0.400146484375,-295.0,150.0,-151.0,101700.0,-3.121000051498413,0,0
0.9394054000003962,0.372161865234375,-0.451904296875,0.310699462890625,-0.748779296875,0.0,-0.30517578125,0.0,0.445556640625,-0.8016357421875,0.399658203125,-295.0,150.0,-151.0,101700.0,-3.121000051498413,0,0
0.9394562999950722,0.372161865234375,-0.451904296875,0.310699462890625,-0.748779296875,-0.244140625,-0.3662109375,-0.1220703125,0.4454345703125,-0.8037109375,0.3975830078125,-295.0,150.0,-151.0,101700.0,-3.121000051498413,0,0
0.9395092000049772,0.372161865234375,-0.451904296875,0.31072998046875,-0.748779296875,0.1220703125,0.0,-0.06103515625,0.4442138671875,-0.802001953125,0.39794921875,-295.0,150.0,-151.0,101700.0,-3.121000051498413,0,0
0.9998386999941431,0.372161865234375,-0.451904296875,0.31072998046875,-0.748779296875,0.1220703125,0.0,-0.06103515625,0.4442138671875,-0.802001953125,0.39794921875,-295.0,150.0,-151.0,101700.0,-3.121000051498413,0,0
0.9999124000023585,0.372161865234375,-0.451873779296875,0.310699462890625,-0.748779296875,0.30517578125,-0.06103515625,0.1220703125,0.444091796875,-0.799560546875,0.3988037109375,-295.0,150.0,-151.0,101700.0,-3.121000051498413,0,0
0.9999704000074416,0.372161865234375,-0.451873779296875,0.310699462890625,-0.748779296875,0.1220703125,-0.18310546875,-0.244140625,0.4459228515625,-0.799560546875,0.3994140625,-295.0,150.0,-151.0,101700.0,-3.121000051498413,0,0
1.0000270000018645,0.372161865234375,-0.451873779296875,0.310699462890625,-0.748779296875,0.1220703125,-0.18310546875,-0.244140625,0.4459228515625,-0.799560546875,0.3994140625,-295.0,150.0,-151.0,101700.0,-3.121000051498413,0,0
1.0001376000000164,0.372161865234375,-0.451873779296875,0.310699462890625,-0.748779296875,0.1220703125,0.0,0.0,0.446044921875,-0.8011474609375,0.399169921875,-295.0,150.0,-151.0,101700.0,-3.121000051498413,0,0
1.0013156000059098,0.372161865234375,-0.451873779296875,0.310699462890625,-0.748809814453125,-0.06103515625,0.06103515625,0.1220703125,0.44677734375,-0.8013916015625,0.3980712890625,-295.0,150.0,-151.0,101700.0,-3.121000051498413,0,0
1.0017727999947965,0.372161865234375,-0.451873779296875,0.310699462890625,-0.748809814453125,0.18310546875,-0.1220703125,0.1220703125,0.4447021484375,-0.801513671875,0.3994140625,-295.0,150.0,-151.0,101700.0,-3.121000051498413,0,0
1.0018296000052942,0.372161865234375,-0.451873779296875,0.310699462890625,-0.748809814453125,-0.18310546875,0.0,0.06103515625,0.447509765625,-0.8018798828125,0.3990478515625,-295.0,150.0,-151.0,101700.0,-3.121000051498413,0,0
1.0018822999991244,0.372161865234375,-0.451873779296875,0.310699462890625,-0.748809814453125,0.0,-0.06103515625,-0.244140625,0.445556640625,-0.800537109375,0.3966064453125,-295.0,150.0,-151.0,101700.0,-3.121000051498413,0,0
1.0019333999953233,0.372161865234375,-0.451904296875,0.310699462890625,-0.748779296875,0.18310546875,-0.1220703125,-0.244140625,0.445556640625,-0.8031005859375,0.3975830078125,-295.0,150.0,-151.0,101700.0,-3.121000051498413,0,0
1.0019865000067512,0.372161865234375,-0.451904296875,0.310699462890625,-0.748779296875,0.18310546875,-0.1220703125,-0.244140625,0.445556640625,-0.8031005859375,0.3975830078125,-295.0,150.0,-151.0,101700.0,-3.121000051498413,0,0
1.0020401000074344,0.372161865234375,-0.451904296875,0.310699462890625,-0.748779296875,0.0,0.1220703125,-0.244140625,0.446044921875,-0.8004150390625,0.3980712890625,-295.0,150.0,-151.0,101700.0,-3.121000051498413,0,0
1.0596434000035515,0.372161865234375,-0.451904296875,0.310699462890625,-0.748809814453125,0.06103515625,0.0,-0.30517578125,0.44580078125,-0.80126953125,0.3968505859375,-295.0,150.0,-150.0,101700.0,-3.122000217437744,0,0
1.0597124000050826,0.3720703125,-0.45184326171875,0.310760498046875,-0.74884033203125,0.1220703125,-0.18310546875,-0.18310546875,0.4442138671875,-0.79833984375,0.3995361328125,-295.0,150.0,-150.0,101700.0,-3.122000217437744,0,0
1.0597686999972211,0.3720703125,-0.45184326171875,0.310760498046875,-0.74884033203125,0.0,-0.30517578125,-0.3662109375,0.4468994140625,-0.7996826171875,0.3990478515625,-295.0,150.0,-150.0,101700.0,-3.122000217437744,0,0
1.0598269000038272,0.3720703125,-0.45184326171875,0.310760498046875,-0.74884033203125,0.06103515625,-0.06103515625,-0.30517578125,0.4437255859375,-0.8016357421875,0.3984375,-295.0,150.0,-150.0,101700.0,-3.122000217437744,0,0
1.0598840000020573,0.3720703125,-0.45184326171875,0.310760498046875,-0.74884033203125,0.1220703125,0.18310546875,-0.1220703125,0.4456787109375,-0.799560546875,0.3984375,-295.0,150.0,-150.0,101700.0,-3.122000217437744,0,0
1.059950700000627,0.3720703125,-0.45184326171875,0.310760498046875,-0.74884033203125,0.1220703125,0.18310546875,-0.1220703125,0.4456787109375,-0.799560546875,0.3984375,-295.0,150.0,-150.0,101700.0,-3.122000217437744,0,0
1.0600032999936957,0.3720703125,-0.45184326171875,0.310760498046875,-0.74884033203125,-0.1220703125,-0.06103515625,-0.244140625,0.4451904296875,-0.8018798828125,0.3980712890625,-295.0,150.0,-150.0,101700.0,-3.122000217437744,0,0
1.0600551999959862,0.3720703125,-0.45184326171875,0.310760498046875,-0.74884033203125,0.244140625,0.06103515625,-0.06103515625,0.445556640625,-0.802490234375,0.3983154296875,-295.0,150.0,-150.0,101700.0,-3.122000217437744,0,0
1.0601085999951465,0.3720703125,-0.45184326171875,0.310760498046875,-0.74884033203125,0.1220703125,-0.06103515625,0.244140625,0.446044921875,-0.8001708984375,0.39794921875,-295.0,150.0,-150.0,101700.0,-3.122000217437744,0,0
1.060160499997437,0.3720703125,-0.45184326171875,0.310760498046875,-0.74884033203125,0.06103515625,0.1220703125,-0.06103515625,0.4453125,-0.801513671875,0.3985595703125,-295.0,150.0,-150.0,101700.0,-3.122000217437744,0,0
1.060215799996513,0.3720703125,-0.45184326171875,0.310760498046875,-0.74884033203125,-0.1220703125,-0.18310546875,0.0,0.4443359375,-0.80224609375,0.3988037109375,-295.0,150.0,-150.0,101700.0,-3.122000217437744,0,0
1.121030599999358,0.3720703125,-0.45184326171875,0.31072998046875,-0.74884033203125,0.0,-0.18310546875,-0.1220703125,0.4456787109375,-0.8016357421875,0.3975830078125,-295.0,150.0,-150.0,101700.0,-3.122000217437744,0,0
1.1211043999937829,0.3720703125,-0.45184326171875,0.310760498046875,-0.74884033203125,0.0,-0.18310546875,-0.18310546875,0.4464111328125,-0.8021240234375,0.39892578125,-295.0,150.0,-150.0,101700.0,-3.122000217437744,0,0
1.1211629000026733,0.3720703125,-0.45184326171875,0.310760498046875,-0.74884033203125,0.0,-0.18310546875,-0.18310546875,0.4464111328125,-0.8021240234375,0.39892578125,-295.0,150.0,-150.0,101700.0,-3.122000217437744,0,0
1.1212181000009878,0.3720703125,-0.45184326171875,0.310760498046875,-0.74884033203125,-0.06103515625,-0.1220703125,-0.1220703125,0.443359375,-0.8016357421875,0.3975830078125,-295.0,150.0,-150.0,101700.0,-3.122000217437744,0,0
1.121274999997695,0.3720703125,-0.45184326171875,0.310760498046875,-0.74884033203125,0.1220703125,-0.06103515625,0.244140625,0.4466552734375,-0.80322265625,0.3975830078125,-295.0,150.0,-150.0,101700.0,-3.122000217437744,0,0
1.121516300001531,0.3720703125,-0.45184326171875,0.310760498046875,-0.74884033203125,-0.30517578125,-0.1220703125,-0.1220703125,0.446044921875,-0.802734375,0.3980712890625,-295.0,150.0,-150.0,101700.0,-3.122000217437744,0,0
1.1215729999967152,0.3720703125,-0.45184326171875,0.310760498046875,-0.74884033203125,-0.30517578125,0.06103515625,0.1220703125,0.44482421875,-0.7998046875,0.3978271484375,-295.0,150.0,-150.0,101700.0,-3.122000217437744,0,0
1.1216280999942683,0.3720703125,-0.45184326171875,0.310760498046875,-0.74884033203125,0.1220703125,-0.1220703125,-0.1220703125,0.4468994140625,-0.80126953125,0.398193359375,-295.0,150.0,-149.0,101700.0,-3.122000217437744,0,0
1.121682500001043,0.3720703125,-0.45184326171875,0.310760498046875,-0.74884033203125,0.1220703125,0.1220703125,0.06103515625,0.4451904296875,-0.8043212890625,0.3984375,-295.0,150.0,-149.0,101700.0,-3.122000217437744,0,0
1.1217364000040106,0.3720703125,-0.45184326171875,0.310760498046875,-0.74884033203125,0.3662109375,0.0,-0.30517578125,0.4454345703125,-0.8021240234375,0.3973388671875,-295.0,150.0,-149.0,101700.0,-3.122000217437744,0,0
1.1217923999938648,0.3720703125,-0.451873779296875,0.310760498046875,-0.74884033203125,0.06103515625,-0.1220703125,0.06103515625,0.4449462890625,-0.8004150390625,0.397216796875,-295.0,150.0,-149.0,101700.0,-3.122000217437744,0,0
1.1218487000005553,0.3720703125,-0.451873779296875,0.310760498046875,-0.74884033203125,0.06103515625,-0.1220703125,0.06103515625,0.4449462890625,-0.8004150390625,0.397216796875,-295.0,150.0,-149.0,101700.0,-3.122000217437744,0,0
1.1865752000012435,0.3720703125,-0.451873779296875,0.310760498046875,-0.74884033203125,-0.06103515625,-0.18310546875,-0.06103515625,0.4481201171875,-0.8023681640625,0.3978271484375,-295.0,150.0,-149.0,101700.0,-3.122000217437744,0,0
1.186640100000659,0.3720703125,-0.451873779296875,0.310760498046875,-0.74884033203125,-0.1220703125,-0.06103515625,-0.06103515625,0.4454345703125,-0.8046875,0.39599609375,-295.0,150.0,-149.0,101700.0,-3.122000217437744,0,0
1.1866981000057422,0.3720703125,-0.451873779296875,0.310760498046875,-0.74884033203125,0.1220703125,-0.1220703125,0.06103515625,0.44384765625,-0.8009033203125,0.3974609375,-295.0,150.0,-149.0,101700.0,-3.122000217437744,0,0
1.1867560999962734,0.3720703125,-0.451873779296875,0.310791015625,-0.74884033203125,-0.06103515625,-0.1220703125,-0.1220703125,0.4427490234375,-0.80126953125,0.396484375,-295.0,150.0,-149.0,101700.0,-3.122000217437744,0,0
1.1868128000060096,0.3720703125,-0.451873779296875,0.310791015625,-0.74884033203125,0.0,0.0,0.06103515625,0.443603515625,-0.8017578125,0.3968505859375,-295.0,150.0,-149.0,101700.0,-3.122000217437744,0,0
1.1869491999968886,0.3720703125,-0.451873779296875,0.310791015625,-0.74884033203125,0.0,-0.06103515625,-0.1220703125,0.44580078125,-0.8038330078125,0.3974609375,-295.0,150.0,-149.0,101700.0,-3.122000217437744,0,0
1.187239100006991,0.3720703125,-0.451873779296875,0.310791015625,-0.748809814453125,0.1220703125,0.18310546875,-0.18310546875,0.4451904296875,-0.80078125,0.3978271484375,-295.0,150.0,-149.0,101700.0,-3.122000217437744,0,0
1.1873065999971004,0.3720703125,-0.451873779296875,0.310791015625,-0.74884033203125,0.1220703125,-0.06103515625,0.244140625,0.4476318359375,-0.800537109375,0.398193359375,-295.0,150.0,-149.0,101700.0,-3.122000217437744,0,0
1.1873698999988846,0.372039794921875,-0.451873779296875,0.310821533203125,-0.748809814453125,-1.0986328125,0.06103515625,-0.06103515625,0.4449462890625,-0.80224609375,0.394775390625,-295.0,150.0,-149.0,101700.0,-3.122000217437744,0,0
1.1874264999933075,0.372039794921875,-0.451873779296875,0.310821533203125,-0.748809814453125,-1.0986328125,0.06103515625,-0.06103515625,0.4449462890625,-0.80224609375,0.394775390625,-295.0,150.0,-149.0,101700.0,-3.122000217437744,0,0
1.187483500005328,0.372039794921875,-0.451904296875,0.310821533203125,-0.748809814453125,-0.06103515625,-0.18310546875,-0.06103515625,0.446044921875,-0.8011474609375,0.3978271484375,-295.0,150.0,-149.0,101700.0,-3.122000217437744,0,0
1.1875415999966208,0.372039794921875,-0.451904296875,0.310821533203125,-0.748809814453125,-0.06103515625,-0.18310546875,-0.06103515625,0.446044921875,-0.8011474609375,0.3978271484375,-295.0,150.0,-149.0,101700.0,-3.122000217437744,0,0
1.2523209000064526,0.372039794921875,-0.451904296875,0.310821533203125,-0.748809814453125,0.244140625,-0.18310546875,0.0,0.4459228515625,-0.802490234375,0.396484375,-295.0,150.0,-149.0,101700.0,-3.122000217437744,0,0
1.2524032999936026,0.372039794921875,-0.451904296875,0.310821533203125,-0.748809814453125,0.244140625,-0.18310546875,0.0,0.4459228515625,-0.802490234375,0.396484375,-294.0,149.0,-150.0,101700.0,-3.122000217437744,0,0
1.2524634000001242,0.372039794921875,-0.451904296875,0.310821533203125,-0.748809814453125,0.06103515625,0.0,-0.3662109375,0.4443359375,-0.80029296875,0.3970947265625,-294.0,149.0,-150.0,101700.0,-3.122000217437744,0,0
1.2525197000068147,0.372039794921875,-0.451904296875,0.310821533203125,-0.748779296875,-0.06103515625,-0.18310546875,0.244140625,0.445068359375,-0.8011474609375,0.3970947265625,-294.0,149.0,-150.0,101700.0,-3.122000217437744,0,0
1.2525760999997146,0.372039794921875,-0.451904296875,0.310821533203125,-0.748779296875,-0.06103515625,-0.18310546875,0.244140625,0.445068359375,-0.8011474609375,0.3970947265625,-294.0,149.0,-150.0,101700.0,-3.122000217437744,0,0
1.2527812000043923,0.372039794921875,-0.451904296875,0.310821533203125,-0.748779296875,-0.30517578125,0.18310546875,0.1220703125,0.44580078125,-0.8031005859375,0.397216796875,-294.0,149.0,-150.0,101700.0,-3.122000217437744,0,0
1.252931199996965,0.372039794921875,-0.451904296875,0.310821533203125,-0.748779296875,0.18310546875,0.06103515625,-0.1220703125,0.4468994140625,-0.8018798828125,0.3973388671875,-294.0,149.0,-150.0,101700.0,-3.122000217437744,0,0
1.2529922999965493,0.372039794921875,-0.451904296875,0.310821533203125,-0.748779296875,0.1220703125,0.0,-0.06103515625,0.4449462890625,-0.800048828125,0.3994140625,-294.0,149.0,-150.0,101700.0,-3.122000217437744,0,0
1.2530504000023939,0.372039794921875,-0.451904296875,0.310821533203125,-0.748779296875,-0.18310546875,-0.06103515625,0.0,0.4442138671875,-0.80029296875,0.39794921875,-294.0,149.0,-150.0,101700.0,-3.122000217437744,0,0
1.2531078000029083,0.372039794921875,-0.451934814453125,0.310821533203125,-0.748779296875,-0.1220703125,0.0,-0.1220703125,0.446044921875,-0.8018798828125,0.3973388671875,-294.0,149.0,-150.0,101700.0,-3.122000217437744,0,0
1.2531661999964854,0.372039794921875,-0.451934814453125,0.310821533203125,-0.748779296875,0.30517578125,0.0,-0.18310546875,0.4453125,-0.8026123046875,0.396484375,-294.0,149.0,-150.0,101700.0,-3.122000217437744,0,0
1.2532232999947155,0.372039794921875,-0.451934814453125,0.310821533203125,-0.748779296875,0.1220703125,-0.18310546875,0.1220703125,0.4466552734375,-0.801513671875,0.3978271484375,-294.0,149.0,-150.0,101700.0,-3.122000217437744,0,0
1.313229199993657,0.372039794921875,-0.451934814453125,0.310821533203125,-0.748779296875,-0.06103515625,0.0,-0.244140625,0.4461669921875,-0.803955078125,0.3955078125,-294.0,149.0,-150.0,101700.0,-3.122000217437744,0,0
1.3132941000076244,0.372039794921875,-0.451934814453125,0.310821533203125,-0.748779296875,-0.18310546875,-0.06103515625,-0.30517578125,0.445068359375,-0.8026123046875,0.39599609375,-294.0,149.0,-150.0,101700.0,-3.122000217437744,0,0
1.31335240000044,0.372039794921875,-0.451934814453125,0.310821533203125,-0.748779296875,0.1220703125,-0.06103515625,0.1220703125,0.4471435546875,-0.802490234375,0.3966064453125,-294.0,149.0,-150.0,101700.0,-3.122000217437744,0,0
1.313404400003492,0.372039794921875,-0.451934814453125,0.31085205078125,-0.748779296875,0.18310546875,-0.30517578125,0.06103515625,0.44580078125,-0.802978515625,0.3966064453125,-294.0,149.0,-150.0,101700.0,-3.122000217437744,0,0
1.3134745999996085,0.372039794921875,-0.45196533203125,0.31085205078125,-0.748779296875,-0.244140625,-0.30517578125,0.1220703125,0.4461669921875,-0.8037109375,0.3985595703125,-294.0,149.0,-150.0,101700.0,-3.122000217437744,0,0
1.3135270000057062,0.372039794921875,-0.45196533203125,0.31085205078125,-0.748748779296875,-0.18310546875,-0.06103515625,-0.1220703125,0.44580078125,-0.8023681640625,0.3966064453125,-294.0,149.0,-150.0,101700.0,-3.122000217437744,0,0
1.3136083999997936,0.372039794921875,-0.45196533203125,0.31085205078125,-0.748748779296875,0.06103515625,-0.06103515625,0.1220703125,0.4471435546875,-0.8043212890625,0.3963623046875,-294.0,149.0,-150.0,101700.0,-3.122000217437744,0,0
1.3136643000034383,0.372039794921875,-0.45196533203125,0.31085205078125,-0.748748779296875,-0.3662109375,-0.1220703125,0.06103515625,0.4456787109375,-0.8023681640625,0.3970947265625,-294.0,149.0,-150.0,101700.0,-3.121000051498413,0,0
1.3137170999980299,0.372039794921875,-0.45196533203125,0.31085205078125,-0.748748779296875,0.06103515625,-0.06103515625,-0.1220703125,0.44775390625,-0.80322265625,0.3958740234375,-294.0,150.0,-150.0,101700.0,-3.121000051498413,0,0
1.313768699998036,0.372039794921875,-0.45196533203125,0.31085205078125,-0.748748779296875,0.06103515625,-0.06103515625,-0.1220703125,0.44775390625,-0.80322265625,0.3958740234375,-294.0,150.0,-150.0,101700.0,-3.121000051498413,0,0
1.3138206000003265,0.37200927734375,-0.45196533203125,0.31085205078125,-0.748748779296875,0.06103515625,-0.1220703125,-0.06103515625,0.4471435546875,-0.8016357421875,0.3970947265625,-294.0,150.0,-150.0,101700.0,-3.121000051498413,0,0
1.377351400005864,0.37200927734375,-0.451995849609375,0.31085205078125,-0.748748779296875,0.1220703125,-0.06103515625,0.0,0.44873046875,-0.804443359375,0.3963623046875,-294.0,150.0,-150.0,101700.0,-3.121000051498413,0,0
1.3774191999982577,0.37200927734375,-0.451995849609375,0.31085205078125,-0.748748779296875,-0.06103515625,-0.06103515625,0.0,0.4473876953125,-0.802001953125,0.395263671875,-294.0,150.0,-150.0,101700.0,-3.121000051498413,0,0
1.3774785999994492,0.37200927734375,-0.451995849609375,0.31085205078125,-0.748748779296875,0.06103515625,-0.1220703125,0.0,0.44482421875,-0.8021240234375,0.3955078125,-294.0,150.0,-150.0,101700.0,-3.121000051498413,0,0
1.3775331000069855,0.37200927734375,-0.451995849609375,0.310882568359375,-0.748748779296875,-0.18310546875,-0.18310546875,-0.06103515625,0.44384765625,-0.802490234375,0.3980712890625,-294.0,150.0,-150.0,101700.0,-3.121000051498413,0,0
1.3775897000014083,0.37200927734375,-0.451995849609375,0.310882568359375,-0.74871826171875,-0.06103515625,-0.1220703125,-0.06103515625,0.4462890625,-0.8009033203125,0.39501953125,-294.0,150.0,-150.0,101700.0,-3.121000051498413,0,0
1.37764540000353,0.37200927734375,-0.4520263671875,0.310882568359375,-0.74871826171875,0.1220703125,0.06103515625,-0.18310546875,0.4451904296875,-0.799072265625,0.3968505859375,-294.0,150.0,-150.0,101700.0,-3.121000051498413,0,0
1.3805802999995649,0.37200927734375,-0.4520263671875,0.310882568359375,-0.74871826171875,0.06103515625,-0.1220703125,0.06103515625,0.4471435546875,-0.8004150390625,0.3939208984375,-294.0,150.0,-150.0,101700.0,-3.121000051498413,0,0
1.3806422000052407,0.37200927734375,-0.4520263671875,0.310882568359375,-0.74871826171875,0.0,-0.1220703125,0.06103515625,0.4456787109375,-0.8021240234375,0.394287109375,-294.0,150.0,-150.0,101700.0,-3.121000051498413,0,0
1.4411888000031468,0.371978759765625,-0.452056884765625,0.3109130859375,-0.748687744140625,-0.18310546875,-0.1220703125,0.0,0.4453125,-0.8016357421875,0.3953857421875,-294.0,150.0,-150.0,101700.0,-3.121000051498413,0,0
1.4412947999953758,0.371978759765625,-0.452056884765625,0.3109130859375,-0.748687744140625,0.244140625,0.0,-0.1220703125,0.4447021484375,-0.802978515625,0.395263671875,-294.0,150.0,-150.0,101700.0,-3.121000051498413,0,0
1.4413604000001214,0.371978759765625,-0.45208740234375,0.3109130859375,-0.748687744140625,-0.1220703125,-0.244140625,-0.244140625,0.44482421875,-0.8018798828125,0.3948974609375,-294.0,150.0,-150.0,101700.0,-3.121000051498413,0,0
1.441419800001313,0.371978759765625,-0.45208740234375,0.3109130859375,-0.748687744140625,-0.1220703125,-0.244140625,-0.244140625,0.44482421875,-0.8018798828125,0.3948974609375,-294.0,150.0,-150.0,101700.0,-3.121000051498413,0,0
1.4414805999986129,0.371978759765625,-0.45208740234375,0.3109130859375,-0.748687744140625,-0.06103515625,-0.06103515625,0.1220703125,0.44384765625,-0.801025390625,0.396484375,-294.0,150.0,-150.0,101700.0,-3.121000051498413,0,0
1.4422623999998905,0.371978759765625,-0.45208740234375,0.310943603515625,-0.7486572265625,0.54931640625,-0.244140625,-0.30517578125,0.4466552734375,-0.8017578125,0.3948974609375,-294.0,150.0,-150.0,101700.0,-3.121000051498413,0,0
1.4423234999994747,0.371978759765625,-0.45208740234375,0.310943603515625,-0.7486572265625,0.0,-0.18310546875,-0.1220703125,0.444091796875,-0.8043212890625,0.3956298828125,-294.0,150.0,-150.0,101700.0,-3.121000051498413,0,0
1.4423817000060808,0.371978759765625,-0.45208740234375,0.310943603515625,-0.7486572265625,0.1220703125,0.0,-0.06103515625,0.44482421875,-0.80029296875,0.396240234375,-294.0,150.0,-150.0,101700.0,-3.121000051498413,0,0
1.4424404000019422,0.371978759765625,-0.45208740234375,0.310943603515625,-0.7486572265625,-0.06103515625,-0.1220703125,-0.06103515625,0.446533203125,-0.802978515625,0.396240234375,-294.0,150.0,-150.0,101700.0,-3.121000051498413,0,0
1.4424965999933193,0.371978759765625,-0.45208740234375,0.310943603515625,-0.7486572265625,0.06103515625,0.0,-0.1220703125,0.447265625,-0.8031005859375,0.398193359375,-294.0,150.0,-150.0,101700.0,-3.121000051498413,0,0
1.442554299996118,0.371978759765625,-0.45208740234375,0.310943603515625,-0.7486572265625,0.1220703125,-0.06103515625,-0.06103515625,0.4443359375,-0.80078125,0.39599609375,-294.0,150.0,-150.0,101700.0,-3.121000051498413,0,0
1.4426099999982398,0.371978759765625,-0.45208740234375,0.310943603515625,-0.7486572265625,-0.18310546875,0.06103515625,-0.06103515625,0.445068359375,-0.802001953125,0.3958740234375,-294.0,150.0,-150.0,101700.0,-3.121000051498413,0,0
1.5063487000006717,0.371978759765625,-0.452117919921875,0.310943603515625,-0.7486572265625,-0.1220703125,-0.18310546875,-0.1220703125,0.4464111328125,-0.80224609375,0.3968505859375,-294.0,150.0,-150.0,101700.0,-3.121000051498413,0,0
1.5064110999956029,0.371978759765625,-0.452117919921875,0.31097412109375,-0.7486572265625,0.0,0.06103515625,0.18310546875,0.44482421875,-0.8018798828125,0.3955078125,-294.0,150.0,-150.0,101700.0,-3.121000051498413,0,0
1.506466899998486,0.371978759765625,-0.452117919921875,0.31097412109375,-0.7486572265625,-0.244140625,-0.30517578125,-0.06103515625,0.4451904296875,-0.8021240234375,0.395263671875,-294.0,150.0,-150.0,101700.0,-3.121000051498413,0,0
1.5066005999979097,0.371978759765625,-0.452117919921875,0.31097412109375,-0.7486572265625,0.3662109375,0.06103515625,0.0,0.4466552734375,-0.8006591796875,0.39501953125,-294.0,150.0,-150.0,101700.0,-3.121000051498413,0,0
1.5066666000057012,0.371978759765625,-0.4521484375,0.31097412109375,-0.748626708984375,0.06103515625,0.0,-0.244140625,0.4459228515625,-0.801025390625,0.3973388671875,-294.0,150.0,-150.0,101700.0,-3.121000051498413,0,0
1.5067360999964876,0.3719482421875,-0.4521484375,0.31097412109375,-0.748626708984375,0.244140625,0.0,0.18310546875,0.447265625,-0.8013916015625,0.395263671875,-294.0,150.0,-150.0,101700.0,-3.121000051498413,0,0
1.5067886000033468,0.3719482421875,-0.4521484375,0.31097412109375,-0.748626708984375,0.0,-0.06103515625,-0.18310546875,0.4459228515625,-0.8004150390625,0.394775390625,-294.0,150.0,-150.0,101700.0,-3.121000051498413,0,0
1.5068406000063987,0.3719482421875,-0.4521484375,0.31097412109375,-0.748626708984375,0.18310546875,-0.06103515625,-0.1220703125,0.4454345703125,-0.8016357421875,0.39453125,-294.0,150.0,-150.0,101700.0,-3.121000051498413,0,0
1.506897500003106,0.3719482421875,-0.4521484375,0.31097412109375,-0.748626708984375,0.18310546875,-0.06103515625,-0.1220703125,0.4454345703125,-0.8016357421875,0.39453125,-294.0,150.0,-150.0,101700.0,-3.121000051498413,0,0
1.5069562999997288,0.3719482421875,-0.4521484375,0.31097412109375,-0.748626708984375,0.18310546875,-0.1220703125,0.18310546875,0.44775390625,-0.8023681640625,0.3941650390625,-294.0,150.0,-150.0,101700.0,-3.121000051498413,0,0
1.5070130999956746,0.3719482421875,-0.452178955078125,0.31097412109375,-0.748626708984375,0.0,-0.1220703125,0.0,0.44677734375,-0.802001953125,0.3951416015625,-294.0,150.0,-150.0,101700.0,-3.121000051498413,0,0
1.571895899993251,0.3719482421875,-0.452178955078125,0.31097412109375,-0.748626708984375,0.42724609375,-0.244140625,0.0,0.44580078125,-0.801025390625,0.39404296875,-294.0,150.0,-150.0,101700.0,-3.121000051498413,0,0
1.5719645000062883,0.3719482421875,-0.452178955078125,0.31097412109375,-0.74859619140625,-0.06103515625,0.0,0.3662109375,0.44677734375,-0.8021240234375,0.3966064453125,-294.0,150.0,-150.0,101700.0,-3.121000051498413,0,0
1.5720211000007112,0.3719482421875,-0.452178955078125,0.31097412109375,-0.74859619140625,0.06103515625,0.1220703125,-0.18310546875,0.446533203125,-0.802001953125,0.396240234375,-294.0,150.0,-150.0,101700.0,-3.121000051498413,0,0
1.572150000007241,0.3719482421875,-0.452178955078125,0.31097412109375,-0.74859619140625,0.244140625,0.06103515625,-0.1220703125,0.4451904296875,-0.8023681640625,0.39599609375,-294.0,150.0,-150.0,101700.0,-3.121000051498413,0,0
1.572209699996165,0.3719482421875,-0.45220947265625,0.31097412109375,-0.74859619140625,0.06103515625,-0.06103515625,-0.244140625,0.4471435546875,-0.8038330078125,0.395751953125,-294.0,150.0,-150.0,101700.0,-3.121000051498413,0,0
1.5722613999969326,0.3719482421875,-0.45220947265625,0.311004638671875,-0.74859619140625,0.30517578125,0.0,-0.244140625,0.446533203125,-0.8016357421875,0.3953857421875,-294.0,150.0,-150.0,101700.0,-3.121000051498413,0,0
1.5732465000037337,0.3719482421875,-0.45220947265625,0.311004638671875,-0.74859619140625,0.1220703125,0.0,-0.3662109375,0.4434814453125,-0.8016357421875,0.39453125,-294.0,150.0,-150.0,101700.0,-3.121000051498413,0,0
1.5733111000008648,0.3719482421875,-0.45220947265625,0.311004638671875,-0.74859619140625,0.1220703125,0.0,-0.3662109375,0.4434814453125,-0.8016357421875,0.39453125,-294.0,150.0,-150.0,101700.0,-3.121000051498413,0,0
1.5733661999984179,0.3719482421875,-0.45220947265625,0.311004638671875,-0.74859619140625,-0.18310546875,-0.06103515625,-0.1220703125,0.44580078125,-0.802490234375,0.3939208984375,-294.0,150.0,-150.0,101700.0,-3.121000051498413,0,0
1.5734185000037542,0.3719482421875,-0.45220947265625,0.311004638671875,-0.74859619140625,-0.06103515625,-0.244140625,-0.06103515625,0.444580078125,-0.80029296875,0.3958740234375,-294.0,150.0,-150.0,101700.0,-3.122000217437744,0,0
1.5734713999991072,0.3719482421875,-0.45220947265625,0.311004638671875,-0.748565673828125,0.1220703125,0.1220703125,-0.06103515625,0.44580078125,-0.8035888671875,0.3955078125,-294.0,150.0,-150.0,101700.0,-3.122000217437744,0,0
1.5735239000059664,0.3719482421875,-0.452239990234375,0.31103515625,-0.748565673828125,-0.18310546875,-0.18310546875,-0.1220703125,0.445068359375,-0.8016357421875,0.3944091796875,-294.0,150.0,-150.0,101700.0,-3.122000217437744,0,0
1.5735752000036882,0.371917724609375,-0.452239990234375,0.31103515625,-0.748565673828125,-0.18310546875,-0.18310546875,-0.06103515625,0.447265625,-0.8016357421875,0.395263671875,-294.0,150.0,-150.0,101700.0,-3.122000217437744,0,0
1.634840600003372,0.371917724609375,-0.452239990234375,0.31103515625,-0.748565673828125,0.244140625,-0.06103515625,0.0,0.4476318359375,-0.8031005859375,0.3939208984375,-294.0,150.0,-150.0,101700.0,-3.122000217437744,0,0
1.634908499996527,0.371917724609375,-0.452239990234375,0.31103515625,-0.748565673828125,0.244140625,-0.06103515625,0.0,0.4476318359375,-0.8031005859375,0.3939208984375,-294.0,150.0,-150.0,101700.0,-3.122000217437744,0,0
1.63561060000211,0.371917724609375,-0.4522705078125,0.31103515625,-0.748565673828125,0.06103515625,-0.1220703125,0.244140625,0.44775390625,-0.8016357421875,0.3958740234375,-294.0,150.0,-150.0,101700.0,-3.122000217437744,0,0
1.6356836000049952,0.371917724609375,-0.4522705078125,0.31103515625,-0.74853515625,-0.06103515625,-0.1220703125,-0.1220703125,0.447509765625,-0.8009033203125,0.3946533203125,-294.0,150.0,-150.0,101700.0,-3.122000217437744,0,0
1.6398091000010027,0.371917724609375,-0.4522705078125,0.31103515625,-0.74853515625,-0.06103515625,-0.1220703125,-0.1220703125,0.447509765625,-0.8009033203125,0.3946533203125,-292.0,150.0,-151.0,101700.0,-3.122000217437744,0,0
1.6399526000022888,0.371490478515625,-0.452117919921875,0.311279296875,-0.748748779296875,0.0,-0.1220703125,-0.1220703125,0.4461669921875,-0.802978515625,0.39453125,-292.0,150.0,-151.0,101700.0,-3.122000217437744,0,0
1.6400802999996813,0.371490478515625,-0.452117919921875,0.311279296875,-0.748748779296875,-0.06103515625,-0.1220703125,-0.30517578125,0.4464111328125,-0.8006591796875,0.3956298828125,-292.0,150.0,-151.0,101700.0,-3.122000217437744,0,0
1.640205200004857,0.371490478515625,-0.4521484375,0.311279296875,-0.748748779296875,0.0,0.06103515625,0.06103515625,0.447509765625,-0.8013916015625,0.395263671875,-292.0,150.0,-151.0,101700.0,-3.122000217437744,0,0
1.640333000003011,0.371490478515625,-0.4521484375,0.311279296875,-0.748748779296875,0.0,-0.06103515625,-0.06103515625,0.44775390625,-0.800048828125,0.396240234375,-292.0,150.0,-151.0,101700.0,-3.122000217437744,0,0
1.640458599998965,0.371490478515625,-0.4521484375,0.311279296875,-0.748748779296875,0.0,-0.06103515625,-0.18310546875,0.4453125,-0.80322265625,0.3961181640625,-292.0,150.0,-151.0,101700.0,-3.122000217437744,0,0
1.6405801000073552,0.371490478515625,-0.4521484375,0.311279296875,-0.748748779296875,0.18310546875,-0.06103515625,-0.06103515625,0.4459228515625,-0.80126953125,0.394775390625,-292.0,150.0,-151.0,101700.0,-3.122000217437744,0,0
1.699976699994295,0.3714599609375,-0.452178955078125,0.311309814453125,-0.74871826171875,-0.30517578125,-0.18310546875,0.0,0.44677734375,-0.803955078125,0.3963623046875,-292.0,150.0,-151.0,101700.0,-3.120000123977661,0,0
1.7000582000036957,0.3714599609375,-0.452178955078125,0.311309814453125,-0.74871826171875,-0.18310546875,-0.244140625,-0.18310546875,0.4466552734375,-0.7994384765625,0.39599609375,-292.0,150.0,-151.0,101700.0,-3.120000123977661,0,0
1.7022336999943946,0.3714599609375,-0.452178955078125,0.311309814453125,-0.74871826171875,-0.06103515625,0.0,0.0,0.4481201171875,-0.802978515625,0.3941650390625,-292.0,150.0,-151.0,101700.0,-3.120000123977661,0,0
1.7022981000045547,0.3714599609375,-0.45220947265625,0.311309814453125,-0.74871826171875,0.06103515625,0.06103515625,-0.30517578125,0.4453125,-0.802001953125,0.394775390625,-292.0,150.0,-151.0,101700.0,-3.120000123977661,0,0
1.702359200004139,0.3714599609375,-0.45220947265625,0.311309814453125,-0.74871826171875,0.06103515625,0.06103515625,-0.30517578125,0.4453125,-0.802001953125,0.394775390625,-292.0,150.0,-151.0,101700.0,-3.120000123977661,0,0
1.7024173999961931,0.3714599609375,-0.45220947265625,0.311309814453125,-0.74871826171875,0.30517578125,-0.1220703125,0.0,0.4453125,-0.7994384765625,0.3936767578125,-292.0,150.0,-151.0,101700.0,-3.120000123977661,0,0
1.7024743999936618,0.3714599609375,-0.45220947265625,0.311309814453125,-0.74871826171875,0.1220703125,-0.06103515625,0.1220703125,0.4451904296875,-0.8004150390625,0.3955078125,-292.0,150.0,-151.0,101700.0,-3.120000123977661,0,0
1.7025314000056824,0.3714599609375,-0.45220947265625,0.311309814453125,-0.748687744140625,0.1220703125,-0.244140625,-0.1220703125,0.4443359375,-0.8028564453125,0.396240234375,-292.0,150.0,-151.0,101700.0,-3.120000123977661,0,0
1.7648216999950819,0.3714599609375,-0.45220947265625,0.311309814453125,-0.748687744140625,-0.244140625,0.06103515625,-0.1220703125,0.4456787109375,-0.80126953125,0.395263671875,-292.0,151.0,-150.0,101700.0,-3.120000123977661,0,0
1.7648915000027046,0.3714599609375,-0.45220947265625,0.311309814453125,-0.748687744140625,-0.244140625,0.06103515625,-0.1220703125,0.4456787109375,-0.80126953125,0.395263671875,-292.0,151.0,-150.0,101700.0,-3.120000123977661,0,0
1.7649510000046575,0.371337890625,-0.452178955078125,0.311370849609375,-0.748748779296875,0.1220703125,-0.06103515625,0.06103515625,0.44775390625,-0.8018798828125,0.3941650390625,-292.0,151.0,-150.0,101700.0,-3.120000123977661,0,0
1.7650523000047542,0.371337890625,-0.452178955078125,0.311370849609375,-0.748748779296875,0.06103515625,-0.06103515625,0.1220703125,0.447998046875,-0.8026123046875,0.395263671875,-292.0,151.0,-150.0,101700.0,-3.120000123977661,0,0
1.7651212000055239,0.371337890625,-0.452178955078125,0.3114013671875,-0.748748779296875,-0.06103515625,-0.06103515625,-0.06103515625,0.4443359375,-0.802490234375,0.39697265625,-292.0,151.0,-150.0,101700.0,-3.120000123977661,0,0
1.7651811999967322,0.371337890625,-0.452178955078125,0.3114013671875,-0.748748779296875,0.1220703125,-0.06103515625,0.0,0.445556640625,-0.80126953125,0.3966064453125,-292.0,151.0,-150.0,101700.0,-3.120000123977661,0,0
1.765343599996413,0.371337890625,-0.452178955078125,0.3114013671875,-0.748748779296875,0.1220703125,-0.06103515625,0.0,0.445556640625,-0.80126953125,0.3966064453125,-292.0,151.0,-150.0,101700.0,-3.120000123977661,0,0
1.7654016000014963,0.371337890625,-0.45220947265625,0.311370849609375,-0.748748779296875,0.06103515625,0.06103515625,-0.244140625,0.4473876953125,-0.7994384765625,0.3951416015625,-292.0,151.0,-150.0,101700.0,-3.120000123977661,0,0
1.7654584999982035,0.371337890625,-0.45220947265625,0.3114013671875,-0.74871826171875,0.18310546875,-0.1220703125,-0.06103515625,0.4451904296875,-0.80126953125,0.3941650390625,-292.0,151.0,-150.0,101700.0,-3.120000123977661,0,0
1.7655139999988023,0.371337890625,-0.45220947265625,0.311370849609375,-0.748748779296875,-0.1220703125,-0.18310546875,-0.18310546875,0.448486328125,-0.7984619140625,0.3953857421875,-292.0,151.0,-150.0,101700.0,-3.120000123977661,0,0
1.7655704000062542,0.371337890625,-0.45220947265625,0.311370849609375,-0.74871826171875,0.06103515625,0.06103515625,-0.244140625,0.4437255859375,-0.801513671875,0.3958740234375,-292.0,151.0,-150.0,101700.0,-3.121000051498413,0,0
1.7656260000076145,0.371337890625,-0.45220947265625,0.311370849609375,-0.74871826171875,0.0,0.0,-0.30517578125,0.447021484375,-0.8011474609375,0.3956298828125,-292.0,151.0,-150.0,101700.0,-3.121000051498413,0,0
1.7656827000027988,0.371337890625,-0.45220947265625,0.3114013671875,-0.74871826171875,0.3662109375,-0.244140625,-0.18310546875,0.442626953125,-0.8038330078125,0.393310546875,-292.0,151.0,-150.0,101700.0,-3.121000051498413,0,0
1.8233046999957878,0.371337890625,-0.452239990234375,0.3114013671875,-0.74871826171875,0.0,-0.30517578125,-0.1220703125,0.44677734375,-0.802490234375,0.39599609375,-292.0,151.0,-150.0,101700.0,-3.121000051498413,0,0
1.8235043000022415,0.371337890625,-0.452239990234375,0.311431884765625,-0.74871826171875,0.1220703125,-0.06103515625,0.0,0.44482421875,-0.802978515625,0.39599609375,-292.0,151.0,-150.0,101700.0,-3.121000051498413,0,0
1.8235676000040257,0.371337890625,-0.452239990234375,0.311431884765625,-0.74871826171875,0.0,-0.1220703125,-0.06103515625,0.4437255859375,-0.8013916015625,0.3966064453125,-292.0,151.0,-150.0,101700.0,-3.121000051498413,0,0
1.8236261999991257,0.371337890625,-0.452239990234375,0.311431884765625,-0.74871826171875,0.244140625,-0.1220703125,0.1220703125,0.446044921875,-0.8026123046875,0.3951416015625,-292.0,151.0,-150.0,101700.0,-3.121000051498413,0,0
1.8236845000064932,0.371337890625,-0.452239990234375,0.311431884765625,-0.74871826171875,-0.06103515625,-0.06103515625,0.244140625,0.44482421875,-0.8006591796875,0.39599609375,-292.0,151.0,-150.0,101700.0,-3.121000051498413,0,0
1.8237537999957567,0.371337890625,-0.452239990234375,0.311431884765625,-0.748687744140625,-0.1220703125,-0.06103515625,0.06103515625,0.4456787109375,-0.8033447265625,0.3951416015625,-292.0,151.0,-150.0,101700.0,-3.121000051498413,0,0
1.8238124000054086,0.371337890625,-0.452239990234375,0.311431884765625,-0.748687744140625,-0.1220703125,-0.06103515625,0.06103515625,0.4456787109375,-0.8033447265625,0.3951416015625,-294.0,151.0,-149.0,101700.0,-3.121000051498413,0,0
1.8238691000005929,0.371337890625,-0.45220947265625,0.311431884765625,-0.748687744140625,0.1220703125,-0.1220703125,0.0,0.4432373046875,-0.8004150390625,0.397216796875,-294.0,151.0,-149.0,101700.0,-3.121000051498413,0,0
1.823926199998823,0.371337890625,-0.45220947265625,0.311431884765625,-0.748687744140625,-0.1220703125,-0.42724609375,-0.244140625,0.4427490234375,-0.8028564453125,0.3968505859375,-294.0,151.0,-149.0,101700.0,-3.121000051498413,0,0
1.8239823000039905,0.371337890625,-0.45220947265625,0.311431884765625,-0.748687744140625,0.0,0.1220703125,-0.30517578125,0.4453125,-0.799560546875,0.3963623046875,-294.0,151.0,-149.0,101700.0,-3.121000051498413,0,0
1.8240380000061123,0.371337890625,-0.45220947265625,0.311431884765625,-0.748687744140625,0.0,0.1220703125,-0.30517578125,0.4453125,-0.799560546875,0.3963623046875,-294.0,151.0,-149.0,101700.0,-3.121000051498413,0,0
1.8951208000071347,0.371337890625,-0.452239990234375,0.311431884765625,-0.748687744140625,0.30517578125,-0.18310546875,0.1220703125,0.447265625,-0.8018798828125,0.3975830078125,-294.0,151.0,-149.0,101700.0,-3.121000051498413,0,0
1.895190499999444,0.371337890625,-0.452239990234375,0.311431884765625,-0.748687744140625,-0.1220703125,-0.1220703125,0.0,0.4443359375,-0.8021240234375,0.394287109375,-294.0,151.0,-149.0,101700.0,-3.121000051498413,0,0
1.8952503000036813,0.371337890625,-0.452239990234375,0.311431884765625,-0.748687744140625,0.06103515625,-0.1220703125,-0.244140625,0.443359375,-0.8023681640625,0.3968505859375,-294.0,151.0,-149.0,101700.0,-3.121000051498413,0,0
1.8953077000041958,0.371337890625,-0.452239990234375,0.311431884765625,-0.748687744140625,0.06103515625,-0.1220703125,-0.244140625,0.443359375,-0.8023681640625,0.3968505859375,-294.0,151.0,-149.0,101700.0,-3.119000196456909,0,0
1.8953651000047103,0.371337890625,-0.452239990234375,0.311431884765625,-0.748687744140625,0.06103515625,0.18310546875,0.06103515625,0.44677734375,-0.8009033203125,0.39697265625,-294.0,151.0,-149.0,101700.0,-3.119000196456909,0,0
1.8964456999965478,0.371337890625,-0.452239990234375,0.311431884765625,-0.748687744140625,0.244140625,-0.18310546875,0.1220703125,0.4461669921875,-0.8006591796875,0.39697265625,-294.0,151.0,-149.0,101700.0,-3.119000196456909,0,0
1.896512100007385,0.371337890625,-0.452239990234375,0.311431884765625,-0.748687744140625,0.244140625,-0.18310546875,0.1220703125,0.4461669921875,-0.8006591796875,0.39697265625,-294.0,151.0,-149.0,101700.0,-3.119000196456909,0,0
1.8965699999971548,0.371337890625,-0.452239990234375,0.311431884765625,-0.748687744140625,0.18310546875,0.0,0.0,0.4444580078125,-0.80126953125,0.39453125,-294.0,151.0,-149.0,101700.0,-3.119000196456909,0,0
1.8966254999977536,0.371337890625,-0.452239990234375,0.311431884765625,-0.748687744140625,-0.67138671875,-0.3662109375,-0.1220703125,0.444580078125,-0.8006591796875,0.394775390625,-294.0,151.0,-149.0,101700.0,-3.119000196456909,0,0
1.8966816000029212,0.371337890625,-0.452239990234375,0.311431884765625,-0.748687744140625,0.06103515625,0.06103515625,0.0,0.4429931640625,-0.8017578125,0.3975830078125,-294.0,151.0,-149.0,101700.0,-3.119000196456909,0,0
1.8967358999943826,0.371337890625,-0.452239990234375,0.31146240234375,-0.748687744140625,0.06103515625,-0.18310546875,-0.30517578125,0.443603515625,-0.8023681640625,0.3955078125,-294.0,151.0,-149.0,101700.0,-3.119000196456909,0,0
1.9507386000041151,0.371337890625,-0.452239990234375,0.31146240234375,-0.748687744140625,0.42724609375,-0.06103515625,-0.06103515625,0.4453125,-0.802978515625,0.396240234375,-294.0,151.0,-149.0,101700.0,-3.119000196456909,0,0
1.9508064999972703,0.371337890625,-0.452239990234375,0.311431884765625,-0.748687744140625,0.06103515625,-0.18310546875,-0.18310546875,0.4461669921875,-0.8026123046875,0.3973388671875,-294.0,151.0,-149.0,101700.0,-3.119000196456909,0,0
1.950864400001592,0.371337890625,-0.452239990234375,0.311431884765625,-0.748687744140625,0.244140625,-0.18310546875,-0.06103515625,0.44677734375,-0.8017578125,0.3973388671875,-293.0,151.0,-149.0,101700.0,-3.119000196456909,0,0
1.95096800000465,0.371337890625,-0.452239990234375,0.311431884765625,-0.748687744140625,0.1220703125,-0.1220703125,0.0,0.44677734375,-0.80029296875,0.3975830078125,-293.0,151.0,-149.0,101700.0,-3.119000196456909,0,0
1.9510349000047427,0.371337890625,-0.452239990234375,0.311431884765625,-0.748687744140625,-0.30517578125,-0.1220703125,0.0,0.4447021484375,-0.8031005859375,0.3973388671875,-293.0,151.0,-149.0,101700.0,-3.119000196456909,0,0
1.9510941000044113,0.371337890625,-0.452239990234375,0.311431884765625,-0.748687744140625,-0.30517578125,-0.1220703125,0.0,0.4447021484375,-0.8031005859375,0.3973388671875,-293.0,151.0,-149.0,101700.0,-3.119000196456909,0,0
1.9511524999979883,0.371337890625,-0.452239990234375,0.31146240234375,-0.748687744140625,0.06103515625,-0.18310546875,-0.06103515625,0.4461669921875,-0.8038330078125,0.3980712890625,-293.0,151.0,-149.0,101700.0,-3.119000196456909,0,0
1.951625600006082,0.371337890625,-0.452239990234375,0.31146240234375,-0.748687744140625,0.06103515625,0.0,0.06103515625,0.4451904296875,-0.802490234375,0.3961181640625,-293.0,151.0,-149.0,101700.0,-3.119000196456909,0,0
1.9516891999955988,0.371337890625,-0.452239990234375,0.31146240234375,-0.748687744140625,0.06103515625,0.18310546875,0.0,0.4443359375,-0.801513671875,0.398193359375,-293.0,151.0,-149.0,101700.0,-3.119000196456909,0,0
1.9517481999937445,0.371337890625,-0.45220947265625,0.31146240234375,-0.748687744140625,-0.244140625,-0.1220703125,0.0,0.4443359375,-0.79931640625,0.39794921875,-293.0,151.0,-149.0,101700.0,-3.119000196456909,0,0
1.9518058999965433,0.371337890625,-0.45220947265625,0.311431884765625,-0.748687744140625,0.244140625,0.0,-0.244140625,0.4444580078125,-0.8004150390625,0.398193359375,-293.0,151.0,-149.0,101700.0,-3.119000196456909,0,0
1.9518645000061952,0.371337890625,-0.45220947265625,0.311431884765625,-0.748687744140625,0.06103515625,-0.06103515625,0.18310546875,0.44482421875,-0.802978515625,0.398681640625,-293.0,151.0,-149.0,101700.0,-3.119000196456909,0,0
1.951921100000618,0.371337890625,-0.45220947265625,0.311431884765625,-0.748687744140625,0.0,-0.06103515625,-0.06103515625,0.4444580078125,-0.8018798828125,0.3978271484375,-293.0,151.0,-149.0,101700.0,-3.121000051498413,0,0
2.0216208000056213,0.371368408203125,-0.45220947265625,0.311431884765625,-0.74871826171875,0.18310546875,0.0,0.18310546875,0.444091796875,-0.80126953125,0.3978271484375,-293.0,151.0,-149.0,101700.0,-3.121000051498413,0,0
2.0216944999992847,0.371368408203125,-0.45220947265625,0.311431884765625,-0.74871826171875,0.0,0.0,-0.06103515625,0.4481201171875,-0.8018798828125,0.3975830078125,-293.0,151.0,-149.0,101700.0,-3.121000051498413,0,0
2.0217552999965847,0.371368408203125,-0.45220947265625,0.311431884765625,-0.74871826171875,-0.244140625,0.0,-0.06103515625,0.44482421875,-0.80224609375,0.396484375,-293.0,151.0,-149.0,101700.0,-3.121000051498413,0,0
2.0218119000055594,0.371368408203125,-0.452178955078125,0.311431884765625,-0.74871826171875,-0.1220703125,-0.1220703125,0.1220703125,0.4442138671875,-0.8006591796875,0.3978271484375,-293.0,151.0,-149.0,101700.0,-3.121000051498413,0,0
2.021867999996175,0.371368408203125,-0.452178955078125,0.311431884765625,-0.74871826171875,0.0,0.18310546875,0.1220703125,0.4447021484375,-0.7994384765625,0.3978271484375,-293.0,151.0,-149.0,101700.0,-3.121000051498413,0,0
2.022779899998568,0.371368408203125,-0.452178955078125,0.311431884765625,-0.74871826171875,0.1220703125,0.244140625,-0.244140625,0.4464111328125,-0.8021240234375,0.3968505859375,-293.0,151.0,-149.0,101700.0,-3.121000051498413,0,0
2.022857699994347,0.371368408203125,-0.452178955078125,0.311431884765625,-0.74871826171875,0.0,0.0,-0.06103515625,0.443603515625,-0.802734375,0.396728515625,-293.0,151.0,-149.0,101700.0,-3.121000051498413,0,0
2.0229184000054374,0.371368408203125,-0.452178955078125,0.31146240234375,-0.74871826171875,0.0,-0.1220703125,-0.1220703125,0.44482421875,-0.8009033203125,0.3963623046875,-293.0,151.0,-149.0,101700.0,-3.121000051498413,0,0
2.0229749999998603,0.371368408203125,-0.452178955078125,0.31146240234375,-0.74871826171875,-0.244140625,-0.1220703125,-0.1220703125,0.444580078125,-0.802001953125,0.3975830078125,-295.0,150.0,-149.0,101700.0,-3.121000051498413,0,0
2.0237046999973245,0.371368408203125,-0.452178955078125,0.31146240234375,-0.74871826171875,-0.244140625,-0.1220703125,-0.1220703125,0.444580078125,-0.802001953125,0.3975830078125,-295.0,150.0,-149.0,101700.0,-3.121000051498413,0,0
2.023778899994795,0.371368408203125,-0.452178955078125,0.31146240234375,-0.74871826171875,0.1220703125,0.06103515625,-0.18310546875,0.4422607421875,-0.80224609375,0.396240234375,-295.0,150.0,-149.0,101700.0,-3.121000051498413,0,0
2.081558000005316,0.371368408203125,-0.452178955078125,0.311431884765625,-0.74871826171875,-0.1220703125,-0.244140625,-0.1220703125,0.44775390625,-0.80029296875,0.3978271484375,-295.0,150.0,-149.0,101700.0,-3.121000051498413,0,0
2.0816314999974566,0.371368408203125,-0.452178955078125,0.311431884765625,-0.74871826171875,0.244140625,-0.1220703125,-0.30517578125,0.447509765625,-0.7994384765625,0.39892578125,-295.0,150.0,-149.0,101700.0,-3.121000051498413,0,0
2.081687400001101,0.371368408203125,-0.452178955078125,0.311431884765625,-0.74871826171875,0.244140625,0.1220703125,-0.1220703125,0.4451904296875,-0.8023681640625,0.398193359375,-295.0,150.0,-149.0,101700.0,-3.121000051498413,0,0
2.0817405999987386,0.371368408203125,-0.452178955078125,0.311431884765625,-0.74871826171875,-0.06103515625,0.0,0.06103515625,0.4478759765625,-0.8013916015625,0.3975830078125,-295.0,150.0,-149.0,101700.0,-3.121000051498413,0,0
2.0817933000071207,0.371368408203125,-0.452178955078125,0.311431884765625,-0.74871826171875,0.1220703125,0.1220703125,-0.06103515625,0.4461669921875,-0.7987060546875,0.397216796875,-295.0,150.0,-149.0,101700.0,-3.121000051498413,0,0
2.0831895000010263,0.371368408203125,-0.452178955078125,0.311431884765625,-0.74871826171875,0.1220703125,0.1220703125,-0.06103515625,0.4461669921875,-0.7987060546875,0.397216796875,-295.0,150.0,-149.0,101700.0,-3.121000051498413,0,0
2.083246499998495,0.371368408203125,-0.452178955078125,0.311431884765625,-0.74871826171875,-0.06103515625,-0.1220703125,0.1220703125,0.44482421875,-0.799560546875,0.3970947265625,-295.0,150.0,-149.0,101700.0,-3.121000051498413,0,0
2.083301799997571,0.371368408203125,-0.452178955078125,0.311431884765625,-0.74871826171875,-0.30517578125,0.06103515625,-0.1220703125,0.445556640625,-0.800537109375,0.3980712890625,-295.0,150.0,-149.0,101700.0,-3.121000051498413,0,0
2.083354700007476,0.371368408203125,-0.452178955078125,0.311431884765625,-0.74871826171875,0.30517578125,0.06103515625,0.0,0.4432373046875,-0.8048095703125,0.395751953125,-295.0,150.0,-149.0,101700.0,-3.121000051498413,0,0
2.083408000005875,0.371368408203125,-0.452178955078125,0.311431884765625,-0.74871826171875,-0.1220703125,0.06103515625,0.244140625,0.447021484375,-0.8001708984375,0.3975830078125,-295.0,150.0,-149.0,101700.0,-3.121000051498413,0,0
2.083460499998182,0.371368408203125,-0.452178955078125,0.311431884765625,-0.74871826171875,0.244140625,0.1220703125,0.06103515625,0.44482421875,-0.8026123046875,0.397216796875,-295.0,150.0,-149.0,101700.0,-3.121000051498413,0,0
2.1511219999956666,0.371368408203125,-0.452178955078125,0.311431884765625,-0.74871826171875,-0.06103515625,-0.244140625,0.0,0.445068359375,-0.801025390625,0.3953857421875,-295.0,150.0,-149.0,101700.0,-3.121000051498413,0,0
2.151189099997282,0.371368408203125,-0.452178955078125,0.311431884765625,-0.74871826171875,-0.06103515625,-0.06103515625,-0.18310546875,0.445068359375,-0.8018798828125,0.3939208984375,-295.0,150.0,-149.0,101700.0,-3.121000051498413,0,0
2.1514537000039127,0.371368408203125,-0.452178955078125,0.311431884765625,-0.74871826171875,0.1220703125,-0.1220703125,-0.1220703125,0.4464111328125,-0.802490234375,0.3955078125,-295.0,150.0,-149.0,101700.0,-3.121000051498413,0,0
2.1515182000002824,0.371368408203125,-0.452178955078125,0.311431884765625,-0.74871826171875,-0.1220703125,-0.06103515625,-0.18310546875,0.4447021484375,-0.801513671875,0.39404296875,-295.0,150.0,-149.0,101700.0,-3.121000051498413,0,0
2.1516186999942875,0.371368408203125,-0.452178955078125,0.311431884765625,-0.74871826171875,-0.1220703125,-0.06103515625,-0.18310546875,0.4447021484375,-0.801513671875,0.39404296875,-295.0,150.0,-149.0,101700.0,-3.121000051498413,0,0
2.151675899993279,0.371368408203125,-0.452178955078125,0.311431884765625,-0.74871826171875,0.30517578125,-0.1220703125,-0.06103515625,0.4459228515625,-0.8028564453125,0.3963623046875,-296.0,149.0,-149.0,101700.0,-3.121000051498413,0,0
2.1529745000007097,0.371551513671875,-0.4522705078125,0.311309814453125,-0.74859619140625,0.0,-0.06103515625,-0.06103515625,0.4473876953125,-0.802490234375,0.396240234375,-296.0,149.0,-149.0,101700.0,-3.121000051498413,0,0
2.153062900004443,0.371551513671875,-0.4522705078125,0.311309814453125,-0.74859619140625,0.06103515625,0.0,0.0,0.4466552734375,-0.801513671875,0.3975830078125,-296.0,149.0,-149.0,101700.0,-3.121000051498413,0,0
2.1531431000039447,0.371551513671875,-0.4522705078125,0.311309814453125,-0.74859619140625,0.06103515625,-0.18310546875,-0.30517578125,0.44775390625,-0.802490234375,0.396240234375,-296.0,149.0,-149.0,101700.0,-3.121000051498413,0,0
2.1532009999937145,0.371551513671875,-0.4522705078125,0.311309814453125,-0.74859619140625,0.06103515625,-0.1220703125,-0.18310546875,0.444580078125,-0.798828125,0.3974609375,-296.0,149.0,-149.0,101700.0,-3.121000051498413,0,0
2.1532606999971904,0.371551513671875,-0.452301025390625,0.311309814453125,-0.74859619140625,0.06103515625,-0.244140625,-0.1220703125,0.4462890625,-0.80078125,0.395751953125,-296.0,149.0,-149.0,101700.0,-3.121000051498413,0,0
2.153346299994155,0.371551513671875,-0.452301025390625,0.311309814453125,-0.74859619140625,-0.1220703125,0.0,0.06103515625,0.4476318359375,-0.799560546875,0.3958740234375,-296.0,149.0,-149.0,101700.0,-3.121000051498413,0,0
2.153416899993317,0.371551513671875,-0.452301025390625,0.311309814453125,-0.74859619140625,-0.1220703125,0.0,-0.1220703125,0.443603515625,-0.802490234375,0.39501953125,-296.0,149.0,-149.0,101700.0,-3.121000051498413,0,0
2.2117691000021296,0.371551513671875,-0.452301025390625,0.311309814453125,-0.74859619140625,0.0,0.06103515625,-0.06103515625,0.44482421875,-0.799560546875,0.3955078125,-296.0,149.0,-149.0,101700.0,-3.121000051498413,0,0
2.211832900007721,0.371551513671875,-0.452301025390625,0.311309814453125,-0.74859619140625,-0.06103515625,0.06103515625,-0.06103515625,0.4466552734375,-0.802001953125,0.3968505859375,-296.0,149.0,-149.0,101700.0,-3.121000051498413,0,0
2.2175136000005296,0.371551513671875,-0.452301025390625,0.31134033203125,-0.74859619140625,0.18310546875,-0.1220703125,-0.06103515625,0.444091796875,-0.801513671875,0.396240234375,-296.0,149.0,-149.0,101700.0,-3.121000051498413,0,0
2.217589699997916,0.371551513671875,-0.452301025390625,0.31134033203125,-0.74859619140625,0.0,-0.18310546875,0.0,0.445556640625,-0.8004150390625,0.392578125,-296.0,149.0,-149.0,101700.0,-3.121000051498413,0,0
2.2176480000052834,0.371551513671875,-0.45233154296875,0.31134033203125,-0.74859619140625,-0.1220703125,0.0,-0.244140625,0.4454345703125,-0.8006591796875,0.393798828125,-296.0,149.0,-149.0,101700.0,-3.121000051498413,0,0
2.2177373000013176,0.37152099609375,-0.45233154296875,0.31134033203125,-0.74859619140625,0.18310546875,-0.1220703125,-0.1220703125,0.44482421875,-0.80029296875,0.3941650390625,-296.0,149.0,-149.0,101700.0,-3.121000051498413,0,0
2.217791600007331,0.37152099609375,-0.45233154296875,0.31134033203125,-0.748565673828125,0.0,-0.244140625,0.0,0.4451904296875,-0.802490234375,0.39453125,-296.0,149.0,-149.0,101700.0,-3.121000051498413,0,0
2.217846700004884,0.37152099609375,-0.45233154296875,0.31134033203125,-0.748565673828125,0.0,-0.244140625,0.0,0.4451904296875,-0.802490234375,0.39453125,-296.0,149.0,-149.0,101700.0,-3.121000051498413,0,0
2.217899600000237,0.37152099609375,-0.45233154296875,0.31134033203125,-0.748565673828125,0.18310546875,0.0,0.0,0.4462890625,-0.8023681640625,0.39599609375,-296.0,149.0,-149.0,101700.0,-3.121000051498413,0,0
2.2179529999993974,0.37152099609375,-0.45233154296875,0.31134033203125,-0.748565673828125,-0.06103515625,-0.06103515625,-0.244140625,0.443603515625,-0.802490234375,0.3934326171875,-296.0,149.0,-149.0,101700.0,-3.121000051498413,0,0
2.2180053000047337,0.37152099609375,-0.45233154296875,0.311370849609375,-0.748565673828125,-0.06103515625,-0.06103515625,-0.244140625,0.443603515625,-0.802490234375,0.3934326171875,-297.0,150.0,-149.0,101700.0,-3.121000051498413,0,0
