Time stamp(sec),adc1,adc2,roll_angular_rate,pitch_angular_rate,yaw_angular_rate,acc_X,acc_Y,acc_Z,mag_X,mag_Y,mag_Z,pressure,altitude
0.005586700004641898,0.369842529296875,-0.450439453125,0.3131103515625,-0.74981689453125,0.06103515625,-0.1220703125,-0.1220703125,0.44580078125,-0.80322265625,0.3978271484375,-295.0,147.0,-151.0,101693.0,-3.064000129699707,0,0
0.005659600006765686,0.369842529296875,-0.450439453125,0.3131103515625,-0.74981689453125,-0.06103515625,-0.18310546875,-0.3662109375,0.4449462890625,-0.8016357421875,0.3975830078125,-295.0,147.0,-151.0,101693.0,-3.064000129699707,0,0
0.0057170000072801486,0.369842529296875,-0.450439453125,0.3131103515625,-0.74981689453125,-0.06103515625,-0.18310546875,-0.3662109375,0.4449462890625,-0.8016357421875,0.3975830078125,-295.0,147.0,-151.0,101693.0,-3.064000129699707,0,0
0.005773500000941567,0.369842529296875,-0.450439453125,0.3131103515625,-0.74981689453125,0.244140625,-0.18310546875,-0.244140625,0.44287109375,-0.80126953125,0.3973388671875,-295.0,147.0,-151.0,101693.0,-3.064000129699707,0,0
0.005826799999340437,0.369842529296875,-0.450439453125,0.3131103515625,-0.74981689453125,-0.18310546875,0.0,-0.1220703125,0.444091796875,-0.8009033203125,0.3975830078125,-295.0,147.0,-151.0,101693.0,-3.064000129699707,0,0
0.005880600001546554,0.369842529296875,-0.450439453125,0.3131103515625,-0.74981689453125,-0.18310546875,0.0,-0.1220703125,0.444091796875,-0.8009033203125,0.3975830078125,-295.0,147.0,-151.0,101693.0,-3.064000129699707,0,0
0.0059342000022297725,0.369842529296875,-0.450439453125,0.3131103515625,-0.74981689453125,0.244140625,0.1220703125,-0.30517578125,0.447021484375,-0.8043212890625,0.3990478515625,-295.0,147.0,-151.0,101693.0,-3.064000129699707,0,0
0.006037400002242066,0.369842529296875,-0.450439453125,0.3131103515625,-0.74981689453125,-0.244140625,0.18310546875,0.1220703125,0.443115234375,-0.8037109375,0.39892578125,-295.0,147.0,-151.0,101693.0,-3.064000129699707,0,0
0.006091900009778328,0.369842529296875,-0.450439453125,0.3131103515625,-0.74981689453125,-0.1220703125,0.1220703125,0.1220703125,0.441650390625,-0.8046875,0.3997802734375,-295.0,147.0,-151.0,101693.0,-3.064000129699707,0,0
0.006147000007331371,0.369873046875,-0.450439453125,0.3131103515625,-0.74981689453125,0.0,-0.18310546875,0.18310546875,0.443603515625,-0.8043212890625,0.3992919921875,-295.0,147.0,-151.0,101693.0,-3.064000129699707,0,0
0.006200400006491691,0.369842529296875,-0.450439453125,0.3131103515625,-0.74981689453125,0.18310546875,-0.06103515625,0.1220703125,0.4423828125,-0.8043212890625,0.399658203125,-295.0,147.0,-151.0,101693.0,-3.064000129699707,0,0
0.0064298000070266426,0.369873046875,-0.450439453125,0.3131103515625,-0.74981689453125,0.18310546875,-0.1220703125,-0.18310546875,0.4444580078125,-0.8018798828125,0.399658203125,-295.0,147.0,-151.0,101693.0,-3.064000129699707,0,0
0.0064864000014495105,0.369873046875,-0.450439453125,0.3131103515625,-0.74981689453125,-0.06103515625,-0.18310546875,-0.06103515625,0.44189453125,-0.802001953125,0.399169921875,-295.0,147.0,-151.0,101693.0,-3.064000129699707,0,0
0.07280750000791159,0.369842529296875,-0.450439453125,0.3131103515625,-0.74981689453125,-0.18310546875,-0.18310546875,-0.18310546875,0.4447021484375,-0.802978515625,0.398193359375,-296.0,148.0,-151.0,101693.0,-3.064000129699707,0,0
0.07288160000462085,0.369659423828125,-0.450347900390625,0.313232421875,-0.749908447265625,0.30517578125,0.0,-0.1220703125,0.4451904296875,-0.8031005859375,0.39697265625,-296.0,148.0,-151.0,101693.0,-3.064000129699707,0,0
0.07293850000132807,0.369659423828125,-0.450347900390625,0.313232421875,-0.749908447265625,0.06103515625,0.06103515625,-0.18310546875,0.444580078125,-0.8013916015625,0.396728515625,-296.0,148.0,-151.0,101693.0,-3.064000129699707,0,0
0.07299510001030285,0.369659423828125,-0.450347900390625,0.313232421875,-0.749908447265625,-0.1220703125,-0.18310546875,-0.06103515625,0.44287109375,-0.8017578125,0.39892578125,-296.0,148.0,-151.0,101693.0,-3.064000129699707,0,0
0.07304850000946317,0.369659423828125,-0.450347900390625,0.313232421875,-0.749908447265625,0.0,0.0,0.0,0.4447021484375,-0.8023681640625,0.3988037109375,-296.0,148.0,-151.0,101693.0,-3.064000129699707,0,0
0.07334590000391472,0.369659423828125,-0.450347900390625,0.313232421875,-0.749908447265625,0.06103515625,-0.1220703125,0.06103515625,0.4407958984375,-0.8028564453125,0.3975830078125,-296.0,148.0,-151.0,101693.0,-3.064000129699707,0,0
0.07339890000002924,0.369659423828125,-0.450347900390625,0.313232421875,-0.749908447265625,0.1220703125,0.30517578125,0.18310546875,0.4427490234375,-0.8011474609375,0.3973388671875,-296.0,148.0,-151.0,101693.0,-3.064000129699707,0,0
0.0734915000066394,0.369659423828125,-0.450347900390625,0.313232421875,-0.749908447265625,0.1220703125,-0.06103515625,-0.1220703125,0.4429931640625,-0.8023681640625,0.3975830078125,-296.0,148.0,-151.0,101693.0,-3.064000129699707,0,0
0.07354570001189131,0.369659423828125,-0.450347900390625,0.313232421875,-0.749908447265625,0.06103515625,0.06103515625,0.06103515625,0.443603515625,-0.8033447265625,0.398193359375,-296.0,148.0,-151.0,101693.0,-3.065000057220459,0,0
0.07360080000944436,0.369659423828125,-0.450347900390625,0.313232421875,-0.749908447265625,0.06103515625,0.06103515625,0.06103515625,0.443603515625,-0.8033447265625,0.398193359375,-296.0,148.0,-151.0,101693.0,-3.065000057220459,0,0
0.07365289999870583,0.369659423828125,-0.450347900390625,0.313232421875,-0.749908447265625,-0.244140625,0.0,-0.18310546875,0.4439697265625,-0.8017578125,0.396728515625,-296.0,148.0,-151.0,101693.0,-3.065000057220459,0,0
0.1325488000002224,0.369659423828125,-0.450347900390625,0.313201904296875,-0.749908447265625,-0.244140625,0.06103515625,0.18310546875,0.442626953125,-0.800537109375,0.3985595703125,-296.0,148.0,-151.0,101693.0,-3.065000057220459,0,0
0.1326106000051368,0.369659423828125,-0.450347900390625,0.313201904296875,-0.749908447265625,0.06103515625,0.1220703125,-0.06103515625,0.4429931640625,-0.802978515625,0.3992919921875,-296.0,148.0,-151.0,101693.0,-3.065000057220459,0,0
0.13266420000582002,0.369659423828125,-0.450347900390625,0.313201904296875,-0.74993896484375,-0.06103515625,-0.1220703125,-0.244140625,0.4437255859375,-0.80078125,0.39794921875,-296.0,148.0,-151.0,101693.0,-3.065000057220459,0,0
0.13272130000405014,0.369659423828125,-0.450347900390625,0.313201904296875,-0.74993896484375,-0.1220703125,-0.18310546875,-0.1220703125,0.442626953125,-0.8017578125,0.3988037109375,-296.0,148.0,-151.0,101693.0,-3.065000057220459,0,0
0.13277750000997912,0.369659423828125,-0.450347900390625,0.313201904296875,-0.74993896484375,0.06103515625,0.0,-0.18310546875,0.4439697265625,-0.802734375,0.3997802734375,-296.0,148.0,-151.0,101693.0,-3.065000057220459,0,0
0.13285570000880398,0.369659423828125,-0.450347900390625,0.313201904296875,-0.74993896484375,0.06103515625,0.0,-0.18310546875,0.4439697265625,-0.802734375,0.3997802734375,-296.0,148.0,-151.0,101693.0,-3.065000057220459,0,0
0.1329087000049185,0.369659423828125,-0.450347900390625,0.313201904296875,-0.74993896484375,-0.1220703125,-0.1220703125,-0.1220703125,0.4443359375,-0.8026123046875,0.3994140625,-296.0,148.0,-151.0,101693.0,-3.065000057220459,0,0
0.1329610000102548,0.369659423828125,-0.450347900390625,0.313201904296875,-0.74993896484375,-0.1220703125,0.06103515625,0.06103515625,0.4453125,-0.8028564453125,0.399169921875,-296.0,148.0,-150.0,101693.0,-3.065000057220459,0,0
0.13301340000180062,0.369659423828125,-0.450347900390625,0.313201904296875,-0.74993896484375,-0.42724609375,-0.244140625,0.1220703125,0.4429931640625,-0.803955078125,0.3975830078125,-296.0,148.0,-150.0,101693.0,-3.065000057220459,0,0
0.13306520000332966,0.369659423828125,-0.450347900390625,0.313201904296875,-0.74993896484375,0.1220703125,0.0,0.0,0.4417724609375,-0.8035888671875,0.3975830078125,-296.0,148.0,-150.0,101693.0,-3.065000057220459,0,0
0.13311710000562016,0.369659423828125,-0.450347900390625,0.313201904296875,-0.74993896484375,0.06103515625,0.06103515625,-0.244140625,0.4462890625,-0.80322265625,0.399658203125,-296.0,148.0,-150.0,101693.0,-3.065000057220459,0,0
0.19679770000220742,0.369659423828125,-0.450347900390625,0.313201904296875,-0.74993896484375,0.3662109375,-0.06103515625,-0.30517578125,0.4461669921875,-0.8038330078125,0.3978271484375,-296.0,148.0,-150.0,101693.0,-3.065000057220459,0,0
0.19687910001084674,0.369659423828125,-0.450347900390625,0.313201904296875,-0.74993896484375,0.30517578125,-0.18310546875,-0.18310546875,0.44384765625,-0.8040771484375,0.39794921875,-296.0,148.0,-150.0,101693.0,-3.065000057220459,0,0
0.19693840001127683,0.369659423828125,-0.450347900390625,0.313201904296875,-0.74993896484375,-0.06103515625,0.0,-0.18310546875,0.4444580078125,-0.802734375,0.3984375,-296.0,148.0,-150.0,101693.0,-3.065000057220459,0,0
0.19699340000806842,0.369659423828125,-0.450347900390625,0.313201904296875,-0.74993896484375,-0.1220703125,0.06103515625,0.0,0.4454345703125,-0.80419921875,0.3984375,-296.0,148.0,-150.0,101693.0,-3.065000057220459,0,0
0.19704830000409856,0.369659423828125,-0.450347900390625,0.313201904296875,-0.74993896484375,-0.1220703125,0.06103515625,0.0,0.4454345703125,-0.80419921875,0.3984375,-296.0,148.0,-150.0,101693.0,-3.065000057220459,0,0
0.19710150000173599,0.369659423828125,-0.450347900390625,0.313201904296875,-0.74993896484375,-0.1220703125,-0.30517578125,-0.06103515625,0.4454345703125,-0.80078125,0.3992919921875,-296.0,148.0,-150.0,101693.0,-3.062000036239624,0,0
0.19715440001164097,0.36962890625,-0.450347900390625,0.31317138671875,-0.74993896484375,0.18310546875,-0.1220703125,-0.06103515625,0.444091796875,-0.802734375,0.3984375,-296.0,148.0,-150.0,101693.0,-3.062000036239624,0,0
0.1977917000040179,0.369659423828125,-0.450347900390625,0.31317138671875,-0.74993896484375,-0.06103515625,0.1220703125,-0.244140625,0.4447021484375,-0.802001953125,0.3978271484375,-296.0,148.0,-150.0,101693.0,-3.062000036239624,0,0
0.1978434000047855,0.369659423828125,-0.450347900390625,0.31317138671875,-0.74993896484375,0.244140625,-0.1220703125,0.06103515625,0.4403076171875,-0.801025390625,0.3997802734375,-296.0,148.0,-150.0,101693.0,-3.062000036239624,0,0
0.19789609999861568,0.369659423828125,-0.450347900390625,0.31317138671875,-0.74993896484375,0.0,0.0,-0.1220703125,0.442138671875,-0.8018798828125,0.398681640625,-296.0,148.0,-150.0,101693.0,-3.062000036239624,0,0
0.19794850000471342,0.369659423828125,-0.450347900390625,0.31317138671875,-0.74993896484375,0.1220703125,-0.1220703125,-0.244140625,0.4437255859375,-0.803466796875,0.3978271484375,-296.0,148.0,-150.0,101693.0,-3.062000036239624,0,0
0.19800050000776537,0.36962890625,-0.450347900390625,0.31317138671875,-0.74993896484375,0.1220703125,0.0,0.0,0.4437255859375,-0.80078125,0.3990478515625,-296.0,148.0,-150.0,101693.0,-3.062000036239624,0,0
0.19805380000616424,0.36962890625,-0.450347900390625,0.31317138671875,-0.74993896484375,-0.18310546875,-0.244140625,-0.1220703125,0.44775390625,-0.8021240234375,0.3980712890625,-296.0,148.0,-150.0,101693.0,-3.062000036239624,0,0
0.2623764000018127,0.36962890625,-0.450347900390625,0.31317138671875,-0.74993896484375,-0.1220703125,-0.1220703125,0.1220703125,0.4425048828125,-0.799560546875,0.39794921875,-296.0,148.0,-150.0,101693.0,-3.062000036239624,0,0
0.26243840000825003,0.36962890625,-0.450347900390625,0.313140869140625,-0.749969482421875,0.1220703125,-0.1220703125,-0.06103515625,0.44677734375,-0.80224609375,0.399169921875,-296.0,148.0,-150.0,101693.0,-3.062000036239624,0,0
0.26249449999886565,0.36962890625,-0.450347900390625,0.313140869140625,-0.749969482421875,-0.18310546875,0.0,0.06103515625,0.44580078125,-0.804931640625,0.4007568359375,-295.0,147.0,-149.0,101693.0,-3.062000036239624,0,0
0.26254910000716336,0.36962890625,-0.450347900390625,0.313140869140625,-0.749969482421875,-0.06103515625,0.0,0.06103515625,0.444580078125,-0.80419921875,0.3988037109375,-295.0,147.0,-149.0,101693.0,-3.062000036239624,0,0
0.2626023000048008,0.36962890625,-0.450347900390625,0.313140869140625,-0.749969482421875,0.06103515625,0.1220703125,0.0,0.4437255859375,-0.8038330078125,0.398681640625,-295.0,147.0,-149.0,101693.0,-3.062000036239624,0,0
0.2633300000015879,0.36962890625,-0.450347900390625,0.31317138671875,-0.749969482421875,0.06103515625,0.1220703125,-0.18310546875,0.4420166015625,-0.803466796875,0.3978271484375,-295.0,147.0,-149.0,101693.0,-3.062000036239624,0,0
0.26338650000980124,0.36962890625,-0.450347900390625,0.31317138671875,-0.749969482421875,-0.3662109375,0.06103515625,-0.30517578125,0.44287109375,-0.801513671875,0.3974609375,-295.0,147.0,-149.0,101693.0,-3.062000036239624,0,0
0.2634405999997398,0.36962890625,-0.450347900390625,0.31317138671875,-0.749969482421875,-0.18310546875,-0.18310546875,-0.18310546875,0.443603515625,-0.801025390625,0.3975830078125,-295.0,147.0,-149.0,101693.0,-3.062000036239624,0,0
0.2634948000049917,0.36962890625,-0.450347900390625,0.31317138671875,-0.749969482421875,-0.18310546875,-0.18310546875,-0.18310546875,0.443603515625,-0.801025390625,0.3975830078125,-295.0,147.0,-149.0,101693.0,-3.062000036239624,0,0
0.2635484000056749,0.36962890625,-0.450347900390625,0.313140869140625,-0.749969482421875,-0.1220703125,0.1220703125,-0.06103515625,0.446044921875,-0.8009033203125,0.39697265625,-295.0,147.0,-149.0,101693.0,-3.062000036239624,0,0
0.26360160000331234,0.36962890625,-0.4503173828125,0.313140869140625,-0.749969482421875,-0.30517578125,-0.244140625,0.06103515625,0.4442138671875,-0.8045654296875,0.399658203125,-295.0,147.0,-149.0,101693.0,-3.064000129699707,0,0
0.3234089000034146,0.369659423828125,-0.4503173828125,0.313140869140625,-0.749969482421875,0.3662109375,-0.1220703125,0.1220703125,0.44384765625,-0.8006591796875,0.4007568359375,-295.0,147.0,-149.0,101693.0,-3.064000129699707,0,0
0.3234756000019843,0.369659423828125,-0.4503173828125,0.313140869140625,-0.749969482421875,-0.06103515625,0.1220703125,0.06103515625,0.44384765625,-0.805419921875,0.3992919921875,-295.0,147.0,-149.0,101693.0,-3.064000129699707,0,0
0.3235352000046987,0.369659423828125,-0.4503173828125,0.313140869140625,-0.749969482421875,0.18310546875,0.42724609375,0.06103515625,0.445068359375,-0.8031005859375,0.3997802734375,-295.0,147.0,-149.0,101693.0,-3.064000129699707,0,0
0.32359280000673607,0.369659423828125,-0.4503173828125,0.313140869140625,-0.749969482421875,-0.30517578125,0.0,-0.06103515625,0.4429931640625,-0.802978515625,0.3978271484375,-295.0,147.0,-149.0,101693.0,-3.064000129699707,0,0
0.3237362000072608,0.369659423828125,-0.4503173828125,0.313140869140625,-0.749969482421875,-0.30517578125,0.0,-0.06103515625,0.4429931640625,-0.802978515625,0.3978271484375,-295.0,147.0,-149.0,101693.0,-3.064000129699707,0,0
0.32386309999856167,0.369659423828125,-0.4503173828125,0.313140869140625,-0.749969482421875,0.1220703125,-0.06103515625,-0.30517578125,0.44384765625,-0.80224609375,0.3990478515625,-295.0,147.0,-149.0,101693.0,-3.064000129699707,0,0
0.33085930001107045,0.369659423828125,-0.450286865234375,0.313140869140625,-0.749969482421875,0.244140625,-0.1220703125,-0.1220703125,0.4422607421875,-0.8026123046875,0.3995361328125,-295.0,147.0,-149.0,101693.0,-3.064000129699707,0,0
0.3309418999997433,0.369659423828125,-0.450286865234375,0.313140869140625,-0.749969482421875,0.244140625,-0.1220703125,-0.1220703125,0.4422607421875,-0.8026123046875,0.3995361328125,-295.0,147.0,-149.0,101693.0,-3.064000129699707,0,0
0.33100000000558794,0.369659423828125,-0.450286865234375,0.313140869140625,-0.749969482421875,0.244140625,0.18310546875,-0.244140625,0.4439697265625,-0.8038330078125,0.3985595703125,-295.0,147.0,-149.0,101693.0,-3.064000129699707,0,0
0.331056000009994,0.369659423828125,-0.450286865234375,0.313140869140625,-0.75,0.3662109375,0.06103515625,-0.18310546875,0.442626953125,-0.8001708984375,0.400146484375,-295.0,147.0,-149.0,101693.0,-3.064000129699707,0,0
0.3311116000113543,0.369659423828125,-0.450286865234375,0.313140869140625,-0.75,-0.1220703125,0.0,-0.1220703125,0.445068359375,-0.8004150390625,0.3984375,-295.0,147.0,-149.0,101693.0,-3.064000129699707,0,0
0.3861122000089381,0.369659423828125,-0.450286865234375,0.313140869140625,-0.75,0.0,-0.18310546875,0.0,0.444580078125,-0.80078125,0.397216796875,-295.0,147.0,-149.0,101693.0,-3.064000129699707,0,0
0.3861780000006547,0.369659423828125,-0.4503173828125,0.313140869140625,-0.749969482421875,0.06103515625,0.06103515625,0.06103515625,0.4468994140625,-0.8040771484375,0.3975830078125,-295.0,147.0,-149.0,101693.0,-3.064000129699707,0,0
0.3862356000026921,0.369659423828125,-0.4503173828125,0.313140869140625,-0.749969482421875,0.0,0.18310546875,0.42724609375,0.4451904296875,-0.8026123046875,0.398193359375,-295.0,147.0,-149.0,101693.0,-3.064000129699707,0,0
0.3862907000002451,0.369659423828125,-0.4503173828125,0.313140869140625,-0.749969482421875,0.0,0.18310546875,0.42724609375,0.4451904296875,-0.8026123046875,0.398193359375,-295.0,147.0,-149.0,101693.0,-3.064000129699707,0,0
0.3863458999985596,0.369659423828125,-0.4503173828125,0.3131103515625,-0.75,-0.06103515625,0.0,0.06103515625,0.4432373046875,-0.802001953125,0.3997802734375,-295.0,147.0,-149.0,101693.0,-3.064000129699707,0,0
0.3863990000099875,0.369659423828125,-0.4503173828125,0.3131103515625,-0.75,0.0,-0.244140625,-0.18310546875,0.4422607421875,-0.80029296875,0.3992919921875,-295.0,147.0,-149.0,101693.0,-3.064000129699707,0,0
0.3864536000037333,0.369659423828125,-0.4503173828125,0.3131103515625,-0.75,-0.06103515625,-0.244140625,-0.1220703125,0.445556640625,-0.8035888671875,0.3980712890625,-295.0,147.0,-149.0,101693.0,-3.064000129699707,0,0
0.38694690000556875,0.36962890625,-0.4503173828125,0.3131103515625,-0.75,-0.1220703125,-0.06103515625,-0.244140625,0.4454345703125,-0.80126953125,0.39892578125,-295.0,147.0,-149.0,101693.0,-3.064000129699707,0,0
0.3870030000107363,0.36962890625,-0.4503173828125,0.3131103515625,-0.75,0.18310546875,-0.06103515625,0.06103515625,0.446044921875,-0.80322265625,0.3970947265625,-295.0,147.0,-149.0,101693.0,-3.064000129699707,0,0
0.3870574000029592,0.369659423828125,-0.450286865234375,0.3131103515625,-0.75,0.18310546875,0.18310546875,-0.18310546875,0.443603515625,-0.802490234375,0.3985595703125,-295.0,147.0,-149.0,101693.0,-3.064000129699707,0,0
0.3871121999982279,0.369659423828125,-0.450286865234375,0.3131103515625,-0.75,-0.1220703125,-0.244140625,-0.244140625,0.443115234375,-0.7999267578125,0.398681640625,-295.0,147.0,-149.0,101693.0,-3.064000129699707,0,0
0.3871676999988267,0.369659423828125,-0.450286865234375,0.3131103515625,-0.75,0.0,-0.1220703125,-0.244140625,0.443603515625,-0.80224609375,0.399658203125,-295.0,147.0,-149.0,101693.0,-3.064000129699707,0,0
0.3872210000117775,0.369659423828125,-0.450286865234375,0.3131103515625,-0.75,0.0,-0.1220703125,-0.244140625,0.443603515625,-0.80224609375,0.399658203125,-295.0,147.0,-149.0,101693.0,-3.064000129699707,0,0
0.45491060000495054,0.369659423828125,-0.450286865234375,0.313079833984375,-0.75,0.244140625,0.06103515625,0.06103515625,0.4454345703125,-0.802001953125,0.399658203125,-295.0,147.0,-149.0,101693.0,-3.064000129699707,0,0
0.4549725000106264,0.369659423828125,-0.450286865234375,0.313079833984375,-0.75,0.244140625,0.06103515625,0.06103515625,0.4454345703125,-0.802001953125,0.399658203125,-295.0,147.0,-149.0,101693.0,-3.064000129699707,0,0
0.4550300000119023,0.369659423828125,-0.450286865234375,0.313079833984375,-0.75,0.30517578125,-0.06103515625,0.0,0.4444580078125,-0.80322265625,0.399169921875,-295.0,147.0,-149.0,101693.0,-3.064000129699707,0,0
0.4552098999993177,0.369659423828125,-0.450286865234375,0.313079833984375,-0.75,0.06103515625,0.0,0.0,0.443115234375,-0.8018798828125,0.3973388671875,-294.0,147.0,-150.0,101693.0,-3.064000129699707,0,0
0.4552737000049092,0.369659423828125,-0.450286865234375,0.313079833984375,-0.75,0.244140625,-0.18310546875,-0.244140625,0.44482421875,-0.802001953125,0.3975830078125,-294.0,147.0,-150.0,101693.0,-3.064000129699707,0,0
0.4619882000115467,0.369659423828125,-0.450286865234375,0.313079833984375,-0.75,-0.06103515625,0.0,-0.1220703125,0.4425048828125,-0.801025390625,0.3980712890625,-294.0,147.0,-150.0,101693.0,-3.064000129699707,0,0
0.46205010000267066,0.369659423828125,-0.450286865234375,0.3131103515625,-0.75,-0.06103515625,-0.244140625,-0.30517578125,0.443115234375,-0.8017578125,0.3975830078125,-294.0,147.0,-150.0,101693.0,-3.064000129699707,0,0
0.4621049999987008,0.369659423828125,-0.450286865234375,0.3131103515625,-0.75,-0.06103515625,-0.244140625,-0.30517578125,0.443115234375,-0.8017578125,0.3975830078125,-294.0,147.0,-150.0,101693.0,-3.064000129699707,0,0
0.46216029999777675,0.369659423828125,-0.450286865234375,0.313079833984375,-0.75,0.06103515625,-0.18310546875,-0.18310546875,0.44482421875,-0.8013916015625,0.3985595703125,-294.0,147.0,-150.0,101693.0,-3.064000129699707,0,0
0.46228950000659097,0.369659423828125,-0.450286865234375,0.313079833984375,-0.75,0.0,-0.06103515625,-0.06103515625,0.4434814453125,-0.8038330078125,0.39892578125,-294.0,147.0,-150.0,101693.0,-3.064000129699707,0,0
0.4623818000109168,0.369659423828125,-0.450286865234375,0.313079833984375,-0.75,-0.06103515625,0.0,0.0,0.4429931640625,-0.8004150390625,0.399169921875,-294.0,147.0,-150.0,101693.0,-3.064000129699707,0,0
0.5138928000087617,0.369659423828125,-0.450286865234375,0.313079833984375,-0.75,-0.244140625,0.0,0.18310546875,0.44384765625,-0.803466796875,0.3980712890625,-294.0,147.0,-150.0,101693.0,-3.063000202178955,0,0
0.5139672000077553,0.369659423828125,-0.450286865234375,0.313079833984375,-0.750030517578125,0.06103515625,-0.1220703125,0.06103515625,0.4417724609375,-0.802734375,0.3995361328125,-294.0,147.0,-150.0,101693.0,-3.063000202178955,0,0
0.5140265000081854,0.369659423828125,-0.450286865234375,0.313079833984375,-0.750030517578125,-0.1220703125,-0.06103515625,-0.1220703125,0.4439697265625,-0.8001708984375,0.3978271484375,-294.0,147.0,-150.0,101693.0,-3.063000202178955,0,0
0.5141008000064176,0.369659423828125,-0.450286865234375,0.313079833984375,-0.750030517578125,-0.1220703125,-0.06103515625,-0.1220703125,0.4439697265625,-0.8001708984375,0.3978271484375,-294.0,147.0,-150.0,101693.0,-3.063000202178955,0,0
0.5141576000023633,0.369659423828125,-0.45025634765625,0.313079833984375,-0.750030517578125,0.18310546875,-0.18310546875,-0.06103515625,0.4444580078125,-0.802490234375,0.3997802734375,-294.0,147.0,-150.0,101693.0,-3.063000202178955,0,0
0.5144335000077263,0.369659423828125,-0.45025634765625,0.313079833984375,-0.750030517578125,0.0,-0.1220703125,0.06103515625,0.4439697265625,-0.80224609375,0.39990234375,-294.0,147.0,-150.0,101693.0,-3.063000202178955,0,0
0.5144953999988502,0.369659423828125,-0.45025634765625,0.3131103515625,-0.75,-0.244140625,0.0,-0.18310546875,0.4422607421875,-0.805419921875,0.3978271484375,-294.0,147.0,-150.0,101693.0,-3.063000202178955,0,0
0.5145523000101093,0.369659423828125,-0.45025634765625,0.313079833984375,-0.750030517578125,0.1220703125,-0.06103515625,0.06103515625,0.444091796875,-0.80126953125,0.399169921875,-294.0,147.0,-150.0,101693.0,-3.063000202178955,0,0
0.5146089000045322,0.369659423828125,-0.45025634765625,0.313079833984375,-0.750030517578125,0.42724609375,-0.18310546875,-0.18310546875,0.443359375,-0.802001953125,0.3992919921875,-294.0,147.0,-150.0,101693.0,-3.063000202178955,0,0
0.5146653000119841,0.369659423828125,-0.45025634765625,0.313079833984375,-0.750030517578125,0.06103515625,0.06103515625,-0.06103515625,0.4429931640625,-0.8031005859375,0.39892578125,-294.0,147.0,-150.0,101693.0,-3.063000202178955,0,0
0.5147209999995539,0.369659423828125,-0.45025634765625,0.3131103515625,-0.75,0.0,0.06103515625,-0.06103515625,0.4425048828125,-0.8033447265625,0.397216796875,-294.0,147.0,-150.0,101693.0,-3.063000202178955,0,0
0.5796364999987418,0.369659423828125,-0.45025634765625,0.3131103515625,-0.75,0.0,0.06103515625,-0.06103515625,0.4425048828125,-0.8033447265625,0.397216796875,-296.0,146.0,-148.0,101693.0,-3.063000202178955,0,0
0.5797133000014583,0.369873046875,-0.450347900390625,0.31298828125,-0.749908447265625,0.1220703125,-0.06103515625,0.0,0.443359375,-0.8016357421875,0.3985595703125,-296.0,146.0,-148.0,101693.0,-3.063000202178955,0,0
0.5797731000056956,0.369873046875,-0.450347900390625,0.31298828125,-0.749908447265625,0.1220703125,-0.06103515625,0.0,0.443359375,-0.8016357421875,0.3985595703125,-296.0,146.0,-148.0,101693.0,-3.063000202178955,0,0
0.5798314999992726,0.369873046875,-0.450347900390625,0.31298828125,-0.749908447265625,-0.06103515625,-0.06103515625,-0.06103515625,0.4447021484375,-0.8026123046875,0.398681640625,-296.0,146.0,-148.0,101693.0,-3.063000202178955,0,0
0.5798907999997027,0.369873046875,-0.450347900390625,0.31298828125,-0.749908447265625,-0.18310546875,0.1220703125,-0.18310546875,0.44482421875,-0.8040771484375,0.3980712890625,-296.0,146.0,-148.0,101693.0,-3.063000202178955,0,0
0.5799482000002172,0.369873046875,-0.450347900390625,0.31298828125,-0.749908447265625,0.244140625,0.0,0.06103515625,0.4443359375,-0.802001953125,0.3973388671875,-296.0,146.0,-148.0,101693.0,-3.063000202178955,0,0
0.5800052999984473,0.369873046875,-0.450347900390625,0.31298828125,-0.749908447265625,0.30517578125,0.1220703125,-0.1220703125,0.4464111328125,-0.8040771484375,0.3992919921875,-296.0,146.0,-148.0,101693.0,-3.063000202178955,0,0
0.5808071000064956,0.369873046875,-0.450347900390625,0.31298828125,-0.749908447265625,-0.18310546875,0.0,-0.18310546875,0.4427490234375,-0.8028564453125,0.396240234375,-296.0,146.0,-148.0,101693.0,-3.063000202178955,0,0
0.580864700008533,0.369873046875,-0.450347900390625,0.31298828125,-0.749908447265625,-0.18310546875,0.0,-0.18310546875,0.4427490234375,-0.8028564453125,0.396240234375,-296.0,146.0,-148.0,101693.0,-3.064000129699707,0,0
0.5809215000044787,0.369873046875,-0.450347900390625,0.31298828125,-0.749908447265625,0.0,0.06103515625,0.06103515625,0.444091796875,-0.801513671875,0.3994140625,-296.0,146.0,-148.0,101693.0,-3.064000129699707,0,0
0.5809791000065161,0.369873046875,-0.450347900390625,0.31298828125,-0.749908447265625,0.6103515625,0.06103515625,-0.1220703125,0.443359375,-0.8023681640625,0.3988037109375,-296.0,146.0,-148.0,101693.0,-3.064000129699707,0,0
0.5810350000101607,0.369873046875,-0.450347900390625,0.31298828125,-0.749908447265625,0.6103515625,0.06103515625,-0.1220703125,0.443359375,-0.8023681640625,0.3988037109375,-296.0,146.0,-148.0,101693.0,-3.064000129699707,0,0
0.581089700004668,0.369873046875,-0.450347900390625,0.313018798828125,-0.749908447265625,-0.06103515625,0.0,0.0,0.4429931640625,-0.8016357421875,0.39697265625,-296.0,146.0,-148.0,101693.0,-3.064000129699707,0,0
0.644845400005579,0.369873046875,-0.450347900390625,0.31298828125,-0.749908447265625,0.0,0.06103515625,-0.18310546875,0.4427490234375,-0.801513671875,0.3975830078125,-296.0,146.0,-148.0,101693.0,-3.064000129699707,0,0
0.64491880001151,0.369873046875,-0.450347900390625,0.313018798828125,-0.749908447265625,0.1220703125,-0.244140625,-0.1220703125,0.4456787109375,-0.8017578125,0.39599609375,-296.0,146.0,-148.0,101693.0,-3.064000129699707,0,0
0.6449756000074558,0.369873046875,-0.450347900390625,0.313018798828125,-0.749908447265625,0.0,-0.06103515625,0.1220703125,0.4427490234375,-0.802001953125,0.3980712890625,-296.0,146.0,-148.0,101693.0,-3.064000129699707,0,0
0.6450307000050088,0.369873046875,-0.450347900390625,0.313018798828125,-0.749908447265625,0.0,-0.06103515625,0.1220703125,0.441162109375,-0.8035888671875,0.39990234375,-296.0,146.0,-148.0,101693.0,-3.064000129699707,0,0
0.6450861000048462,0.369873046875,-0.450347900390625,0.313018798828125,-0.749908447265625,0.244140625,0.0,-0.1220703125,0.445556640625,-0.8028564453125,0.39892578125,-296.0,146.0,-148.0,101693.0,-3.064000129699707,0,0
0.6464904000022216,0.369873046875,-0.450347900390625,0.313018798828125,-0.749908447265625,0.06103515625,-0.1220703125,0.1220703125,0.4443359375,-0.8026123046875,0.397216796875,-296.0,147.0,-147.0,101693.0,-3.064000129699707,0,0
0.6465566999977455,0.369873046875,-0.450347900390625,0.313018798828125,-0.749908447265625,0.06103515625,-0.1220703125,0.1220703125,0.4443359375,-0.8026123046875,0.397216796875,-296.0,147.0,-147.0,101693.0,-3.064000129699707,0,0
0.6466175000095973,0.369873046875,-0.450347900390625,0.313018798828125,-0.749908447265625,0.30517578125,0.0,0.18310546875,0.445068359375,-0.8021240234375,0.3974609375,-296.0,147.0,-147.0,101693.0,-3.064000129699707,0,0
0.6466746000078274,0.369873046875,-0.450347900390625,0.313018798828125,-0.749908447265625,0.244140625,0.06103515625,0.1220703125,0.444091796875,-0.8017578125,0.3992919921875,-296.0,147.0,-147.0,101693.0,-3.064000129699707,0,0
0.6467325999983586,0.369873046875,-0.450347900390625,0.313018798828125,-0.749908447265625,0.18310546875,0.0,-0.18310546875,0.445556640625,-0.801513671875,0.397216796875,-296.0,147.0,-147.0,101693.0,-3.064000129699707,0,0
0.646787800011225,0.369873046875,-0.450347900390625,0.313018798828125,-0.749908447265625,0.0,-0.06103515625,-0.06103515625,0.4444580078125,-0.8031005859375,0.3968505859375,-296.0,147.0,-147.0,101693.0,-3.064000129699707,0,0
0.70693330001086,0.369873046875,-0.450347900390625,0.313018798828125,-0.749908447265625,-0.1220703125,0.0,0.0,0.443603515625,-0.802734375,0.3992919921875,-296.0,147.0,-147.0,101693.0,-3.062000036239624,0,0
0.7069980000087526,0.369873046875,-0.450347900390625,0.313018798828125,-0.749908447265625,0.06103515625,-0.06103515625,0.1220703125,0.444580078125,-0.803466796875,0.3990478515625,-296.0,147.0,-147.0,101693.0,-3.062000036239624,0,0
0.7070569000061369,0.369873046875,-0.450347900390625,0.313018798828125,-0.749908447265625,0.06103515625,-0.06103515625,0.1220703125,0.444580078125,-0.803466796875,0.3990478515625,-296.0,147.0,-147.0,101693.0,-3.062000036239624,0,0
0.7071131999982754,0.369873046875,-0.450347900390625,0.313018798828125,-0.749908447265625,-0.06103515625,0.0,-0.06103515625,0.4456787109375,-0.80126953125,0.398681640625,-296.0,147.0,-147.0,101693.0,-3.062000036239624,0,0
0.7071728000009898,0.369873046875,-0.450347900390625,0.31298828125,-0.749908447265625,0.0,-0.06103515625,0.0,0.4439697265625,-0.8017578125,0.39794921875,-296.0,147.0,-147.0,101693.0,-3.062000036239624,0,0
0.7072457000031136,0.369873046875,-0.450347900390625,0.31298828125,-0.749908447265625,0.1220703125,0.30517578125,-0.1220703125,0.443115234375,-0.80078125,0.3966064453125,-296.0,147.0,-147.0,101693.0,-3.062000036239624,0,0
0.7073018000082811,0.369873046875,-0.45037841796875,0.31298828125,-0.749908447265625,0.06103515625,0.0,0.0,0.4443359375,-0.802001953125,0.397216796875,-296.0,147.0,-147.0,101693.0,-3.062000036239624,0,0
0.7073667000076966,0.369873046875,-0.450347900390625,0.31298828125,-0.749908447265625,0.18310546875,0.18310546875,0.1220703125,0.44287109375,-0.8018798828125,0.400390625,-296.0,147.0,-147.0,101693.0,-3.062000036239624,0,0
0.7074245000112569,0.369873046875,-0.450347900390625,0.313018798828125,-0.749908447265625,0.06103515625,-0.06103515625,0.0,0.442626953125,-0.8040771484375,0.3988037109375,-296.0,147.0,-147.0,101693.0,-3.062000036239624,0,0
0.7074819999979809,0.369873046875,-0.450347900390625,0.313018798828125,-0.749908447265625,0.06103515625,-0.06103515625,-0.1220703125,0.44384765625,-0.8023681640625,0.3984375,-296.0,147.0,-147.0,101693.0,-3.062000036239624,0,0
0.7075470999989193,0.369873046875,-0.450347900390625,0.313018798828125,-0.749908447265625,0.0,0.0,-0.18310546875,0.4434814453125,-0.802001953125,0.3966064453125,-296.0,147.0,-147.0,101693.0,-3.062000036239624,0,0
0.7076052000047639,0.369873046875,-0.450347900390625,0.313018798828125,-0.7498779296875,0.1220703125,0.18310546875,-0.1220703125,0.44384765625,-0.8050537109375,0.3975830078125,-296.0,147.0,-147.0,101693.0,-3.062000036239624,0,0
0.7722868999990169,0.369873046875,-0.450347900390625,0.313018798828125,-0.7498779296875,0.1220703125,0.18310546875,-0.1220703125,0.44384765625,-0.8050537109375,0.3975830078125,-296.0,147.0,-147.0,101693.0,-3.062000036239624,0,0
0.7723498999985168,0.369873046875,-0.450347900390625,0.313018798828125,-0.7498779296875,-0.1220703125,-0.30517578125,-0.1220703125,0.4432373046875,-0.8033447265625,0.39794921875,-295.0,146.0,-146.0,101693.0,-3.062000036239624,0,0
0.7724049000098603,0.37017822265625,-0.45050048828125,0.312835693359375,-0.749725341796875,-0.1220703125,0.0,-0.1220703125,0.4417724609375,-0.8028564453125,0.398681640625,-295.0,146.0,-146.0,101693.0,-3.062000036239624,0,0
0.7724594000028446,0.37017822265625,-0.45050048828125,0.312835693359375,-0.749725341796875,0.06103515625,0.1220703125,-0.06103515625,0.4443359375,-0.8037109375,0.399658203125,-295.0,146.0,-146.0,101693.0,-3.062000036239624,0,0
0.7725151000049664,0.37017822265625,-0.450469970703125,0.312835693359375,-0.749725341796875,0.06103515625,0.0,-0.244140625,0.4429931640625,-0.802490234375,0.3968505859375,-295.0,146.0,-146.0,101693.0,-3.062000036239624,0,0
0.7725683000026038,0.37017822265625,-0.450469970703125,0.3128662109375,-0.749725341796875,0.244140625,-0.06103515625,0.1220703125,0.443359375,-0.8040771484375,0.398681640625,-295.0,146.0,-146.0,101693.0,-3.062000036239624,0,0
0.7734619000111707,0.37017822265625,-0.450469970703125,0.3128662109375,-0.749725341796875,0.244140625,-0.06103515625,-0.1220703125,0.441650390625,-0.803955078125,0.39892578125,-295.0,146.0,-146.0,101693.0,-3.062000036239624,0,0
0.7735179000010248,0.37017822265625,-0.450469970703125,0.3128662109375,-0.749725341796875,0.06103515625,0.0,-0.06103515625,0.4434814453125,-0.8028564453125,0.3992919921875,-295.0,146.0,-146.0,101693.0,-3.062000036239624,0,0
0.7735716000024695,0.37017822265625,-0.450469970703125,0.3128662109375,-0.749725341796875,-0.30517578125,-0.1220703125,-0.244140625,0.44384765625,-0.802001953125,0.3985595703125,-295.0,146.0,-146.0,101693.0,-3.062000036239624,0,0
0.7736243000108516,0.37017822265625,-0.450469970703125,0.3128662109375,-0.749725341796875,-0.30517578125,-0.1220703125,-0.244140625,0.44384765625,-0.802001953125,0.3985595703125,-295.0,146.0,-146.0,101693.0,-3.062000036239624,0,0
0.773676600001636,0.37017822265625,-0.450469970703125,0.3128662109375,-0.749725341796875,-0.1220703125,-0.06103515625,0.06103515625,0.4437255859375,-0.80078125,0.3980712890625,-295.0,146.0,-146.0,101693.0,-3.064000129699707,0,0
0.773729500011541,0.37017822265625,-0.450469970703125,0.3128662109375,-0.749725341796875,0.1220703125,-0.18310546875,-0.18310546875,0.4443359375,-0.7999267578125,0.39697265625,-295.0,146.0,-146.0,101693.0,-3.064000129699707,0,0
0.8361799999984214,0.37017822265625,-0.450469970703125,0.312835693359375,-0.749755859375,-0.06103515625,-0.244140625,-0.06103515625,0.444580078125,-0.803955078125,0.39892578125,-295.0,146.0,-146.0,101693.0,-3.064000129699707,0,0
0.8362472000007983,0.37017822265625,-0.450469970703125,0.3128662109375,-0.749725341796875,0.0,-0.1220703125,0.0,0.446533203125,-0.803466796875,0.4000244140625,-295.0,146.0,-146.0,101693.0,-3.064000129699707,0,0
0.8363036000082502,0.37017822265625,-0.450469970703125,0.3128662109375,-0.749725341796875,0.1220703125,-0.18310546875,0.0,0.4427490234375,-0.803466796875,0.3963623046875,-295.0,146.0,-146.0,101693.0,-3.064000129699707,0,0
0.8363595999981044,0.37017822265625,-0.45050048828125,0.312835693359375,-0.749725341796875,0.06103515625,0.1220703125,-0.1220703125,0.4453125,-0.80224609375,0.3983154296875,-295.0,146.0,-146.0,101693.0,-3.064000129699707,0,0
0.836412200005725,0.37017822265625,-0.45050048828125,0.312835693359375,-0.749725341796875,0.1220703125,-0.1220703125,0.1220703125,0.4453125,-0.8026123046875,0.397216796875,-295.0,146.0,-146.0,101693.0,-3.064000129699707,0,0
0.8366463999991538,0.37017822265625,-0.45050048828125,0.312835693359375,-0.749725341796875,0.1220703125,-0.1220703125,0.1220703125,0.4453125,-0.8026123046875,0.397216796875,-295.0,146.0,-146.0,101693.0,-3.064000129699707,0,0
0.8366983000014443,0.37017822265625,-0.45050048828125,0.312835693359375,-0.749725341796875,-0.06103515625,-0.30517578125,0.06103515625,0.4442138671875,-0.8031005859375,0.39794921875,-295.0,146.0,-146.0,101693.0,-3.064000129699707,0,0
0.8367500000022119,0.37017822265625,-0.45050048828125,0.312835693359375,-0.749755859375,0.30517578125,-0.06103515625,-0.244140625,0.4439697265625,-0.7999267578125,0.400390625,-296.0,145.0,-147.0,101693.0,-3.064000129699707,0,0
0.8368023000075482,0.370361328125,-0.4505615234375,0.312713623046875,-0.7496337890625,0.06103515625,-0.244140625,-0.06103515625,0.444580078125,-0.8011474609375,0.39892578125,-296.0,145.0,-147.0,101693.0,-3.064000129699707,0,0
0.8368544000113616,0.370361328125,-0.4505615234375,0.312713623046875,-0.749664306640625,0.18310546875,0.1220703125,-0.244140625,0.4451904296875,-0.8016357421875,0.3990478515625,-296.0,145.0,-147.0,101693.0,-3.064000129699707,0,0
0.8369075000082375,0.370361328125,-0.4505615234375,0.312713623046875,-0.7496337890625,0.1220703125,0.1220703125,-0.1220703125,0.44287109375,-0.8057861328125,0.4002685546875,-296.0,145.0,-147.0,101693.0,-3.064000129699707,0,0
0.836960700005875,0.370361328125,-0.4505615234375,0.312713623046875,-0.7496337890625,0.06103515625,0.1220703125,-0.18310546875,0.4442138671875,-0.802978515625,0.3970947265625,-296.0,145.0,-147.0,101693.0,-3.064000129699707,0,0
0.8965647000004537,0.370361328125,-0.4505615234375,0.312713623046875,-0.749664306640625,-0.06103515625,0.0,0.1220703125,0.4443359375,-0.80224609375,0.3988037109375,-296.0,145.0,-147.0,101693.0,-3.064000129699707,0,0
0.8966254999977536,0.370361328125,-0.4505615234375,0.312713623046875,-0.7496337890625,0.1220703125,0.0,0.06103515625,0.4427490234375,-0.8009033203125,0.3988037109375,-296.0,145.0,-147.0,101693.0,-3.064000129699707,0,0
0.8966811999998754,0.370361328125,-0.4505615234375,0.312713623046875,-0.7496337890625,0.0,-0.1220703125,0.06103515625,0.44287109375,-0.8033447265625,0.3990478515625,-296.0,145.0,-147.0,101693.0,-3.063000202178955,0,0
0.8967364999989513,0.370361328125,-0.4505615234375,0.312713623046875,-0.7496337890625,-0.06103515625,0.06103515625,-0.06103515625,0.4442138671875,-0.80517578125,0.3980712890625,-296.0,145.0,-147.0,101693.0,-3.063000202178955,0,0
0.8968874999991385,0.370361328125,-0.4505615234375,0.312713623046875,-0.7496337890625,-0.18310546875,-0.1220703125,0.0,0.4456787109375,-0.8038330078125,0.3970947265625,-296.0,145.0,-147.0,101693.0,-3.063000202178955,0,0
0.8969417000043904,0.370361328125,-0.4505615234375,0.312713623046875,-0.7496337890625,0.0,0.0,-0.18310546875,0.44384765625,-0.8046875,0.3983154296875,-296.0,145.0,-147.0,101693.0,-3.063000202178955,0,0
0.8969953000050737,0.370361328125,-0.4505615234375,0.312713623046875,-0.7496337890625,0.0,-0.18310546875,-0.1220703125,0.4451904296875,-0.802978515625,0.3978271484375,-296.0,145.0,-147.0,101693.0,-3.063000202178955,0,0
0.8970835000072839,0.370361328125,-0.4505615234375,0.312713623046875,-0.7496337890625,0.1220703125,0.0,0.1220703125,0.4425048828125,-0.80224609375,0.3968505859375,-296.0,145.0,-147.0,101693.0,-3.063000202178955,0,0
0.8971378999995068,0.370361328125,-0.450592041015625,0.312713623046875,-0.7496337890625,0.244140625,0.06103515625,-0.18310546875,0.4447021484375,-0.8037109375,0.397216796875,-296.0,145.0,-147.0,101693.0,-3.063000202178955,0,0
0.8971912999986671,0.370361328125,-0.450592041015625,0.312713623046875,-0.7496337890625,0.244140625,0.06103515625,-0.18310546875,0.4447021484375,-0.8037109375,0.397216796875,-296.0,145.0,-147.0,101693.0,-3.063000202178955,0,0
0.8972446000116179,0.370361328125,-0.450592041015625,0.312744140625,-0.7496337890625,0.18310546875,-0.06103515625,-0.244140625,0.44384765625,-0.8026123046875,0.3990478515625,-296.0,145.0,-147.0,101693.0,-3.063000202178955,0,0
0.9637758000026224,0.370361328125,-0.4505615234375,0.312744140625,-0.7496337890625,0.0,0.1220703125,0.06103515625,0.44287109375,-0.8017578125,0.398681640625,-296.0,145.0,-147.0,101693.0,-3.063000202178955,0,0
0.9638455000094837,0.370361328125,-0.4505615234375,0.312713623046875,-0.7496337890625,0.0,0.1220703125,0.06103515625,0.44287109375,-0.8017578125,0.398681640625,-296.0,145.0,-147.0,101693.0,-3.063000202178955,0,0
0.9639021000039065,0.370361328125,-0.450592041015625,0.312713623046875,-0.7496337890625,-0.06103515625,-0.06103515625,0.1220703125,0.4451904296875,-0.8026123046875,0.398193359375,-296.0,145.0,-147.0,101693.0,-3.063000202178955,0,0
0.9639554000023054,0.370361328125,-0.450592041015625,0.312713623046875,-0.7496337890625,-0.06103515625,-0.06103515625,0.1220703125,0.4451904296875,-0.8026123046875,0.398193359375,-295.0,145.0,-148.0,101693.0,-3.063000202178955,0,0
0.9640091000037501,0.370361328125,-0.450592041015625,0.312713623046875,-0.7496337890625,0.1220703125,-0.06103515625,-0.06103515625,0.4443359375,-0.8018798828125,0.3974609375,-295.0,145.0,-148.0,101693.0,-3.063000202178955,0,0
0.964061100006802,0.370361328125,-0.450592041015625,0.312713623046875,-0.7496337890625,-0.244140625,0.0,0.0,0.44384765625,-0.8026123046875,0.400634765625,-295.0,145.0,-148.0,101693.0,-3.063000202178955,0,0
0.9646421000070404,0.370361328125,-0.450592041015625,0.312713623046875,-0.7496337890625,0.0,-0.244140625,-0.06103515625,0.4451904296875,-0.80322265625,0.3988037109375,-295.0,145.0,-148.0,101693.0,-3.063000202178955,0,0
0.9647040999989258,0.370361328125,-0.450592041015625,0.312713623046875,-0.7496337890625,0.1220703125,-0.06103515625,-0.06103515625,0.44384765625,-0.8017578125,0.3978271484375,-295.0,145.0,-148.0,101693.0,-3.063000202178955,0,0
0.9647626000078162,0.370361328125,-0.450592041015625,0.312713623046875,-0.7496337890625,0.1220703125,-0.06103515625,-0.06103515625,0.44384765625,-0.8017578125,0.3978271484375,-295.0,145.0,-148.0,101693.0,-3.063000202178955,0,0
0.9648180000076536,0.370361328125,-0.4505615234375,0.312713623046875,-0.7496337890625,-0.18310546875,-0.48828125,-0.06103515625,0.4423828125,-0.8031005859375,0.3988037109375,-295.0,145.0,-148.0,101693.0,-3.063000202178955,0,0
0.9648713000060525,0.370361328125,-0.4505615234375,0.312713623046875,-0.7496337890625,0.0,0.0,0.0,0.4443359375,-0.803466796875,0.39990234375,-295.0,145.0,-148.0,101693.0,-3.063000202178955,0,0
0.9649237999983598,0.370361328125,-0.4505615234375,0.312713623046875,-0.7496337890625,0.18310546875,-0.1220703125,-0.3662109375,0.443603515625,-0.805419921875,0.399658203125,-295.0,145.0,-148.0,101693.0,-3.063000202178955,0,0
1.029448000001139,0.370361328125,-0.4505615234375,0.312713623046875,-0.749664306640625,-0.244140625,-0.18310546875,0.0,0.4423828125,-0.803466796875,0.399169921875,-295.0,145.0,-148.0,101693.0,-3.063000202178955,0,0
1.0295110000006389,0.370361328125,-0.4505615234375,0.312713623046875,-0.749664306640625,0.06103515625,0.06103515625,-0.244140625,0.445068359375,-0.8013916015625,0.400390625,-295.0,145.0,-148.0,101693.0,-3.063000202178955,0,0
1.0295660000119824,0.370361328125,-0.4505615234375,0.312713623046875,-0.749664306640625,-0.1220703125,-0.1220703125,-0.30517578125,0.44384765625,-0.802490234375,0.3995361328125,-295.0,145.0,-148.0,101693.0,-3.063000202178955,0,0
1.029619000008097,0.370361328125,-0.4505615234375,0.312713623046875,-0.749664306640625,-0.1220703125,-0.1220703125,-0.30517578125,0.44384765625,-0.802490234375,0.3995361328125,-295.0,145.0,-148.0,101693.0,-3.063000202178955,0,0
1.0296722000057343,0.370361328125,-0.4505615234375,0.312713623046875,-0.749664306640625,0.1220703125,0.0,0.0,0.4427490234375,-0.8033447265625,0.4000244140625,-295.0,145.0,-148.0,101693.0,-3.063000202178955,0,0
1.029742400001851,0.370361328125,-0.4505615234375,0.312713623046875,-0.749664306640625,-0.1220703125,0.06103515625,-0.1220703125,0.445556640625,-0.80126953125,0.398193359375,-295.0,145.0,-148.0,101693.0,-3.063000202178955,0,0
1.029797299997881,0.370361328125,-0.450531005859375,0.312713623046875,-0.749664306640625,-0.06103515625,-0.244140625,-0.06103515625,0.4439697265625,-0.8033447265625,0.3990478515625,-295.0,145.0,-148.0,101693.0,-3.063000202178955,0,0
1.0300292000029003,0.370361328125,-0.450531005859375,0.312713623046875,-0.749664306640625,-0.1220703125,-0.06103515625,-0.18310546875,0.441162109375,-0.803466796875,0.3983154296875,-295.0,145.0,-148.0,101693.0,-3.063000202178955,0,0
1.0300833000073908,0.370361328125,-0.450531005859375,0.312713623046875,-0.749664306640625,-0.244140625,-0.18310546875,-0.06103515625,0.443115234375,-0.8013916015625,0.3985595703125,-295.0,145.0,-148.0,101693.0,-3.063000202178955,0,0
1.0301359000004595,0.370361328125,-0.450531005859375,0.312713623046875,-0.749664306640625,0.0,-0.06103515625,-0.06103515625,0.44482421875,-0.8023681640625,0.3995361328125,-295.0,145.0,-148.0,101693.0,-3.063000202178955,0,0
1.03018780000275,0.370391845703125,-0.450531005859375,0.312713623046875,-0.749664306640625,0.30517578125,0.0,0.0,0.4422607421875,-0.8016357421875,0.3992919921875,-295.0,145.0,-148.0,101693.0,-3.063000202178955,0,0
1.0302404000103706,0.370391845703125,-0.450531005859375,0.312713623046875,-0.749664306640625,0.18310546875,0.06103515625,-0.30517578125,0.4439697265625,-0.802978515625,0.398193359375,-295.0,145.0,-148.0,101693.0,-3.063000202178955,0,0
1.0983348000008846,0.370391845703125,-0.450531005859375,0.312713623046875,-0.749664306640625,0.0,-0.18310546875,-0.06103515625,0.445556640625,-0.8052978515625,0.4017333984375,-295.0,145.0,-148.0,101693.0,-3.063000202178955,0,0
1.0984077000030084,0.370391845703125,-0.450531005859375,0.31268310546875,-0.749664306640625,-0.1220703125,-0.18310546875,-0.06103515625,0.4451904296875,-0.803955078125,0.400634765625,-295.0,145.0,-148.0,101693.0,-3.063000202178955,0,0
1.0984651000035228,0.370391845703125,-0.450531005859375,0.31268310546875,-0.749664306640625,-0.1220703125,-0.18310546875,-0.06103515625,0.4451904296875,-0.803955078125,0.400634765625,-295.0,145.0,-148.0,101693.0,-3.063000202178955,0,0
1.0985197000118205,0.370391845703125,-0.450531005859375,0.31268310546875,-0.749664306640625,0.1220703125,0.244140625,-0.06103515625,0.443603515625,-0.802978515625,0.400146484375,-295.0,145.0,-148.0,101693.0,-3.063000202178955,0,0
1.0985753999993904,0.370391845703125,-0.45050048828125,0.31268310546875,-0.749664306640625,0.06103515625,-0.18310546875,-0.1220703125,0.4425048828125,-0.80224609375,0.40087890625,-295.0,145.0,-148.0,101693.0,-3.063000202178955,0,0
1.0986513000098057,0.370391845703125,-0.45050048828125,0.31268310546875,-0.74969482421875,-0.244140625,-0.06103515625,-0.18310546875,0.4423828125,-0.80224609375,0.3997802734375,-295.0,145.0,-148.0,101693.0,-3.063000202178955,0,0
1.0987051999982214,0.370391845703125,-0.45050048828125,0.31268310546875,-0.74969482421875,-0.48828125,-0.18310546875,-0.06103515625,0.4454345703125,-0.800537109375,0.3988037109375,-295.0,145.0,-148.0,101693.0,-3.063000202178955,0,0
1.0987586999981431,0.370391845703125,-0.45050048828125,0.31268310546875,-0.74969482421875,0.06103515625,-0.1220703125,-0.18310546875,0.4462890625,-0.803466796875,0.400146484375,-295.0,145.0,-148.0,101693.0,-3.063000202178955,0,0
1.0988111000042409,0.370391845703125,-0.45050048828125,0.31268310546875,-0.74969482421875,0.06103515625,-0.1220703125,-0.18310546875,0.4462890625,-0.803466796875,0.400146484375,-295.0,145.0,-148.0,101693.0,-3.063000202178955,0,0
1.098864700004924,0.370391845703125,-0.45050048828125,0.31268310546875,-0.74969482421875,0.18310546875,0.1220703125,-0.06103515625,0.4437255859375,-0.8043212890625,0.3995361328125,-295.0,145.0,-148.0,101693.0,-3.063000202178955,0,0
1.098918900010176,0.370391845703125,-0.45050048828125,0.31268310546875,-0.74969482421875,0.06103515625,0.0,-0.06103515625,0.4434814453125,-0.802978515625,0.399658203125,-295.0,145.0,-148.0,101693.0,-3.063000202178955,0,0
1.1542793000116944,0.370391845703125,-0.45050048828125,0.31268310546875,-0.74969482421875,0.0,0.1220703125,-0.1220703125,0.4432373046875,-0.8017578125,0.3974609375,-295.0,145.0,-148.0,101693.0,-3.063000202178955,0,0
1.1544202000077348,0.370391845703125,-0.45050048828125,0.31268310546875,-0.74969482421875,-0.06103515625,0.1220703125,-0.06103515625,0.44482421875,-0.8040771484375,0.3970947265625,-295.0,145.0,-148.0,101693.0,-3.063000202178955,0,0
1.1545894000009866,0.370391845703125,-0.45050048828125,0.31268310546875,-0.74969482421875,-0.06103515625,0.1220703125,-0.06103515625,0.44482421875,-0.8040771484375,0.3970947265625,-295.0,145.0,-148.0,101693.0,-3.063000202178955,0,0
1.1546742000064114,0.370391845703125,-0.45050048828125,0.31268310546875,-0.74969482421875,0.1220703125,0.0,0.0,0.4439697265625,-0.8018798828125,0.3984375,-295.0,145.0,-148.0,101693.0,-3.063000202178955,0,0
1.1547532000113279,0.370391845703125,-0.45050048828125,0.31268310546875,-0.74969482421875,0.06103515625,-0.18310546875,0.0,0.44384765625,-0.801513671875,0.400146484375,-295.0,145.0,-148.0,101693.0,-3.063000202178955,0,0
1.1549999999988358,0.370391845703125,-0.45050048828125,0.31268310546875,-0.74969482421875,0.06103515625,-0.18310546875,0.0,0.44384765625,-0.801513671875,0.400146484375,-295.0,145.0,-148.0,101693.0,-3.063000202178955,0,0
1.1551724000019021,0.370391845703125,-0.45050048828125,0.312652587890625,-0.74969482421875,0.06103515625,0.06103515625,0.0,0.445556640625,-0.802734375,0.4000244140625,-295.0,145.0,-148.0,101693.0,-3.063000202178955,0,0
1.1552456000063103,0.370391845703125,-0.45050048828125,0.312652587890625,-0.74969482421875,0.06103515625,0.06103515625,0.0,0.445556640625,-0.802734375,0.4000244140625,-295.0,145.0,-148.0,101693.0,-3.063000202178955,0,0
1.155307699998957,0.370391845703125,-0.45050048828125,0.312652587890625,-0.74969482421875,-0.1220703125,-0.18310546875,-0.06103515625,0.446044921875,-0.80322265625,0.398681640625,-295.0,145.0,-148.0,101693.0,-3.063000202178955,0,0
1.1556740000087302,0.370391845703125,-0.45050048828125,0.312652587890625,-0.74969482421875,0.0,-0.18310546875,-0.06103515625,0.4451904296875,-0.802978515625,0.399658203125,-295.0,145.0,-148.0,101693.0,-3.063000202178955,0,0
1.155754600011278,0.370391845703125,-0.45050048828125,0.312652587890625,-0.74969482421875,0.18310546875,-0.1220703125,-0.1220703125,0.4432373046875,-0.801025390625,0.400146484375,-295.0,145.0,-148.0,101693.0,-3.063000202178955,0,0
1.1558181000000332,0.370391845703125,-0.45050048828125,0.312652587890625,-0.74969482421875,-0.06103515625,-0.1220703125,-0.18310546875,0.4447021484375,-0.8018798828125,0.3983154296875,-295.0,145.0,-148.0,101693.0,-3.063000202178955,0,0
1.1559989000088535,0.370391845703125,-0.45050048828125,0.312652587890625,-0.74969482421875,-0.06103515625,-0.1220703125,-0.18310546875,0.4447021484375,-0.8018798828125,0.3983154296875,-295.0,145.0,-148.0,101693.0,-3.063000202178955,0,0
1.2197530999983428,0.370391845703125,-0.450469970703125,0.312652587890625,-0.749725341796875,-0.1220703125,0.0,-0.30517578125,0.4434814453125,-0.8016357421875,0.3990478515625,-295.0,145.0,-148.0,101693.0,-3.063000202178955,0,0
1.2198398000036832,0.370391845703125,-0.450469970703125,0.312652587890625,-0.749725341796875,-0.1220703125,0.0,-0.30517578125,0.4434814453125,-0.8016357421875,0.3990478515625,-295.0,145.0,-148.0,101693.0,-3.063000202178955,0,0
1.2199049000046216,0.370391845703125,-0.450469970703125,0.312652587890625,-0.749725341796875,-0.18310546875,0.0,0.0,0.4434814453125,-0.802001953125,0.40087890625,-295.0,145.0,-148.0,101693.0,-3.063000202178955,0,0
1.2199655000003986,0.370391845703125,-0.450469970703125,0.312652587890625,-0.749725341796875,0.06103515625,0.0,0.06103515625,0.4437255859375,-0.801513671875,0.4000244140625,-295.0,145.0,-148.0,101693.0,-3.063000202178955,0,0
1.220114800002193,0.370391845703125,-0.450469970703125,0.312652587890625,-0.749725341796875,0.06103515625,0.1220703125,0.1220703125,0.444091796875,-0.8035888671875,0.3994140625,-295.0,145.0,-148.0,101693.0,-3.063000202178955,0,0
1.2201731000095606,0.370391845703125,-0.450469970703125,0.3126220703125,-0.749725341796875,0.18310546875,-0.1220703125,-0.1220703125,0.4443359375,-0.80078125,0.400634765625,-295.0,145.0,-148.0,101693.0,-3.063000202178955,0,0
1.2202314000023762,0.370391845703125,-0.450469970703125,0.3126220703125,-0.749725341796875,0.18310546875,0.06103515625,-0.06103515625,0.4443359375,-0.8017578125,0.3992919921875,-295.0,145.0,-148.0,101693.0,-3.063000202178955,0,0
1.2203320999979042,0.370391845703125,-0.450469970703125,0.3126220703125,-0.749725341796875,0.0,0.0,-0.06103515625,0.443603515625,-0.802001953125,0.401123046875,-295.0,145.0,-148.0,101693.0,-3.063000202178955,0,0
1.220389800000703,0.370391845703125,-0.450469970703125,0.3126220703125,-0.749725341796875,0.06103515625,-0.06103515625,-0.06103515625,0.4453125,-0.800048828125,0.3985595703125,-295.0,145.0,-148.0,101693.0,-3.063000202178955,0,0
1.2204477000050247,0.370391845703125,-0.450469970703125,0.3126220703125,-0.749725341796875,0.244140625,-0.1220703125,0.06103515625,0.443603515625,-0.80322265625,0.3985595703125,-295.0,145.0,-148.0,101693.0,-3.063000202178955,0,0
1.220504400000209,0.370391845703125,-0.450439453125,0.3126220703125,-0.749725341796875,0.0,0.06103515625,-0.244140625,0.444580078125,-0.802734375,0.4013671875,-295.0,146.0,-148.0,101693.0,-3.063000202178955,0,0
1.2825313000066672,0.370391845703125,-0.450439453125,0.312591552734375,-0.749755859375,0.18310546875,-0.06103515625,-0.06103515625,0.4451904296875,-0.8037109375,0.398681640625,-295.0,146.0,-148.0,101693.0,-3.063000202178955,0,0
1.282598500009044,0.370391845703125,-0.450439453125,0.312591552734375,-0.749755859375,0.1220703125,-0.18310546875,-0.1220703125,0.443115234375,-0.8013916015625,0.39794921875,-295.0,146.0,-148.0,101693.0,-3.063000202178955,0,0
1.2826595000078669,0.370391845703125,-0.450439453125,0.312591552734375,-0.749755859375,-0.06103515625,-0.06103515625,-0.18310546875,0.442626953125,-0.8023681640625,0.4000244140625,-295.0,146.0,-148.0,101693.0,-3.063000202178955,0,0
1.2827192000113428,0.370391845703125,-0.450439453125,0.3126220703125,-0.749755859375,0.06103515625,-0.30517578125,-0.06103515625,0.442626953125,-0.8033447265625,0.4000244140625,-295.0,146.0,-148.0,101693.0,-3.063000202178955,0,0
1.2827786999987438,0.37042236328125,-0.450439453125,0.312591552734375,-0.749755859375,0.1220703125,0.1220703125,0.0,0.44287109375,-0.8017578125,0.4012451171875,-295.0,146.0,-148.0,101693.0,-3.063000202178955,0,0
1.2961622000002535,0.37042236328125,-0.450408935546875,0.312591552734375,-0.749755859375,-0.06103515625,-0.1220703125,-0.06103515625,0.4425048828125,-0.802490234375,0.4017333984375,-295.0,146.0,-148.0,101693.0,-3.063000202178955,0,0
1.2962382999976398,0.37042236328125,-0.450408935546875,0.3126220703125,-0.749755859375,-0.18310546875,-0.06103515625,0.1220703125,0.442138671875,-0.8045654296875,0.3985595703125,-295.0,146.0,-148.0,101693.0,-3.063000202178955,0,0
1.2963300000119489,0.37042236328125,-0.450408935546875,0.3126220703125,-0.749755859375,-0.18310546875,-0.06103515625,0.1220703125,0.442138671875,-0.8045654296875,0.3985595703125,-295.0,146.0,-148.0,101693.0,-3.063000202178955,0,0
1.2963893999985885,0.37042236328125,-0.450408935546875,0.312591552734375,-0.749755859375,0.18310546875,-0.1220703125,0.1220703125,0.4432373046875,-0.804931640625,0.4027099609375,-295.0,146.0,-148.0,101693.0,-3.063000202178955,0,0
1.2964491000020644,0.37042236328125,-0.450408935546875,0.312591552734375,-0.749755859375,0.06103515625,-0.1220703125,0.1220703125,0.44921875,-0.80224609375,0.3992919921875,-295.0,146.0,-148.0,101693.0,-3.063000202178955,0,0
1.2965242000063881,0.37042236328125,-0.450408935546875,0.312591552734375,-0.749755859375,0.0,-0.18310546875,-0.06103515625,0.4443359375,-0.80224609375,0.400146484375,-295.0,146.0,-148.0,101693.0,-3.063000202178955,0,0
1.3456792000069981,0.37042236328125,-0.450408935546875,0.312591552734375,-0.749755859375,0.0,0.1220703125,0.0,0.4451904296875,-0.8037109375,0.3994140625,-295.0,146.0,-148.0,101693.0,-3.063000202178955,0,0
1.3457473000016762,0.37042236328125,-0.450408935546875,0.312591552734375,-0.749786376953125,-0.06103515625,-0.244140625,-0.30517578125,0.4429931640625,-0.802734375,0.4013671875,-295.0,146.0,-148.0,101693.0,-3.063000202178955,0,0
1.3458078000112437,0.37042236328125,-0.450408935546875,0.312591552734375,-0.749786376953125,-0.06103515625,-0.1220703125,-0.244140625,0.445556640625,-0.8023681640625,0.39990234375,-295.0,146.0,-148.0,101693.0,-3.063000202178955,0,0
1.345866500007105,0.37042236328125,-0.450408935546875,0.312591552734375,-0.749786376953125,0.30517578125,-0.18310546875,-0.1220703125,0.4432373046875,-0.80126953125,0.401123046875,-295.0,146.0,-148.0,101693.0,-3.063000202178955,0,0
1.3459210000000894,0.37042236328125,-0.45037841796875,0.312591552734375,-0.749786376953125,0.0,-0.1220703125,-0.30517578125,0.4429931640625,-0.8038330078125,0.3997802734375,-295.0,146.0,-148.0,101693.0,-3.063000202178955,0,0
1.345974900003057,0.37042236328125,-0.45037841796875,0.312591552734375,-0.749786376953125,0.06103515625,0.0,-0.1220703125,0.44384765625,-0.802490234375,0.399169921875,-295.0,146.0,-148.0,101693.0,-3.063000202178955,0,0
1.346044100006111,0.37042236328125,-0.45037841796875,0.312591552734375,-0.749786376953125,0.06103515625,0.0,-0.1220703125,0.44384765625,-0.802490234375,0.399169921875,-295.0,146.0,-148.0,101693.0,-3.063000202178955,0,0
1.3460985999990953,0.37042236328125,-0.45037841796875,0.312591552734375,-0.749786376953125,0.0,-0.1220703125,-0.18310546875,0.4444580078125,-0.8033447265625,0.39990234375,-295.0,146.0,-149.0,101693.0,-3.063000202178955,0,0
1.3461926000018138,0.37042236328125,-0.45037841796875,0.312591552734375,-0.749786376953125,0.06103515625,-0.1220703125,-0.06103515625,0.4425048828125,-0.8033447265625,0.399658203125,-295.0,146.0,-149.0,101693.0,-3.063000202178955,0,0
1.3462568000104511,0.37042236328125,-0.45037841796875,0.312591552734375,-0.749786376953125,-0.06103515625,-0.06103515625,-0.30517578125,0.4422607421875,-0.8043212890625,0.39794921875,-295.0,146.0,-149.0,101693.0,-3.063000202178955,0,0
1.3464796000043862,0.37042236328125,-0.45037841796875,0.312591552734375,-0.749786376953125,0.1220703125,-0.1220703125,-0.244140625,0.4443359375,-0.8023681640625,0.3990478515625,-295.0,146.0,-149.0,101693.0,-3.063000202178955,0,0
1.3465439999999944,0.37042236328125,-0.45037841796875,0.312591552734375,-0.749786376953125,0.0,-0.06103515625,0.1220703125,0.4451904296875,-0.8028564453125,0.4002685546875,-295.0,146.0,-149.0,101693.0,-3.063000202178955,0,0
1.3471315000060713,0.37042236328125,-0.45037841796875,0.312591552734375,-0.749786376953125,0.244140625,-0.06103515625,-0.1220703125,0.446044921875,-0.80322265625,0.4000244140625,-295.0,146.0,-149.0,101693.0,-3.063000202178955,0,0
1.4104312999988906,0.37042236328125,-0.45037841796875,0.31256103515625,-0.749786376953125,0.1220703125,0.0,-0.06103515625,0.4444580078125,-0.801513671875,0.4005126953125,-295.0,146.0,-149.0,101693.0,-3.063000202178955,0,0
1.4104921000107424,0.37042236328125,-0.450347900390625,0.31256103515625,-0.749786376953125,0.6103515625,-0.1220703125,-0.244140625,0.442626953125,-0.801513671875,0.400146484375,-295.0,146.0,-149.0,101693.0,-3.063000202178955,0,0
1.4105490000074496,0.37042236328125,-0.45037841796875,0.31256103515625,-0.749786376953125,0.18310546875,0.1220703125,-0.1220703125,0.44287109375,-0.8017578125,0.4000244140625,-295.0,146.0,-149.0,101693.0,-3.063000202178955,0,0
1.4106047000095714,0.37042236328125,-0.45037841796875,0.31256103515625,-0.749786376953125,-0.1220703125,-0.244140625,-0.18310546875,0.44482421875,-0.8033447265625,0.3988037109375,-295.0,146.0,-149.0,101693.0,-3.063000202178955,0,0
1.4106594000040786,0.37042236328125,-0.450347900390625,0.31256103515625,-0.749786376953125,-0.1220703125,-0.1220703125,-0.18310546875,0.4459228515625,-0.80322265625,0.399658203125,-295.0,146.0,-149.0,101693.0,-3.063000202178955,0,0
1.4107501000107732,0.37042236328125,-0.45037841796875,0.31256103515625,-0.749786376953125,0.0,-0.06103515625,0.0,0.443359375,-0.8018798828125,0.400390625,-295.0,146.0,-149.0,101693.0,-3.063000202178955,0,0
1.4108035000099335,0.370452880859375,-0.450347900390625,0.31256103515625,-0.749786376953125,0.18310546875,-0.1220703125,0.1220703125,0.442626953125,-0.804931640625,0.3975830078125,-295.0,146.0,-149.0,101693.0,-3.063000202178955,0,0
1.4108566000068095,0.370452880859375,-0.450347900390625,0.31256103515625,-0.749786376953125,-0.06103515625,-0.18310546875,-0.06103515625,0.443603515625,-0.80322265625,0.39990234375,-295.0,146.0,-149.0,101693.0,-3.063000202178955,0,0
1.4109088000113843,0.370452880859375,-0.450347900390625,0.31256103515625,-0.749786376953125,0.18310546875,0.06103515625,0.1220703125,0.4449462890625,-0.8017578125,0.4000244140625,-295.0,146.0,-149.0,101693.0,-3.063000202178955,0,0
1.4109621000097832,0.370452880859375,-0.450347900390625,0.31256103515625,-0.749786376953125,0.0,0.06103515625,-0.18310546875,0.4456787109375,-0.8038330078125,0.3997802734375,-295.0,146.0,-149.0,101693.0,-3.062000036239624,0,0
1.4110151000058977,0.370452880859375,-0.450347900390625,0.31256103515625,-0.749786376953125,0.0,0.06103515625,-0.18310546875,0.4456787109375,-0.8038330078125,0.3997802734375,-295.0,146.0,-149.0,101693.0,-3.062000036239624,0,0
1.4838833000103477,0.370452880859375,-0.450347900390625,0.31256103515625,-0.74981689453125,-0.1220703125,-0.06103515625,-0.3662109375,0.4425048828125,-0.8017578125,0.4002685546875,-294.0,146.0,-149.0,101693.0,-3.062000036239624,0,0
1.4839567000017269,0.370452880859375,-0.450347900390625,0.31256103515625,-0.74981689453125,0.0,-0.1220703125,-0.06103515625,0.4439697265625,-0.80224609375,0.4013671875,-294.0,146.0,-149.0,101693.0,-3.062000036239624,0,0
1.4840159000013955,0.370452880859375,-0.450347900390625,0.31256103515625,-0.74981689453125,0.1220703125,-0.1220703125,0.06103515625,0.443359375,-0.802734375,0.3984375,-294.0,146.0,-149.0,101693.0,-3.062000036239624,0,0
1.4840682000067318,0.370452880859375,-0.450347900390625,0.31256103515625,-0.74981689453125,0.244140625,-0.244140625,-0.18310546875,0.44677734375,-0.8018798828125,0.3988037109375,-294.0,146.0,-149.0,101693.0,-3.062000036239624,0,0
1.4841236000065692,0.370452880859375,-0.450347900390625,0.31256103515625,-0.74981689453125,0.06103515625,0.0,-0.18310546875,0.4447021484375,-0.8026123046875,0.4007568359375,-294.0,146.0,-149.0,101693.0,-3.062000036239624,0,0
1.4841948000103002,0.370452880859375,-0.450347900390625,0.31256103515625,-0.74981689453125,-0.48828125,-0.48828125,-0.18310546875,0.4423828125,-0.802490234375,0.400634765625,-294.0,146.0,-149.0,101693.0,-3.062000036239624,0,0
1.4842500000086147,0.370452880859375,-0.450347900390625,0.31256103515625,-0.74981689453125,-0.48828125,-0.48828125,-0.18310546875,0.4423828125,-0.802490234375,0.400634765625,-294.0,146.0,-149.0,101693.0,-3.062000036239624,0,0
1.4843029000039678,0.370452880859375,-0.4503173828125,0.312530517578125,-0.74981689453125,0.48828125,0.06103515625,0.0,0.4442138671875,-0.802734375,0.4013671875,-294.0,146.0,-149.0,101693.0,-3.062000036239624,0,0
1.4843550000077812,0.370452880859375,-0.4503173828125,0.312530517578125,-0.74981689453125,0.42724609375,0.0,-0.30517578125,0.443603515625,-0.8018798828125,0.4014892578125,-294.0,146.0,-149.0,101693.0,-3.062000036239624,0,0
1.48440830000618,0.370452880859375,-0.4503173828125,0.312530517578125,-0.74981689453125,-0.18310546875,0.06103515625,-0.1220703125,0.44482421875,-0.80224609375,0.3978271484375,-294.0,146.0,-149.0,101693.0,-3.062000036239624,0,0
1.4844612000015331,0.370452880859375,-0.4503173828125,0.312530517578125,-0.749847412109375,0.3662109375,0.1220703125,0.1220703125,0.444091796875,-0.80224609375,0.4012451171875,-294.0,146.0,-149.0,101693.0,-3.062000036239624,0,0
1.5452445999981137,0.370452880859375,-0.4503173828125,0.312530517578125,-0.749847412109375,0.0,-0.1220703125,-0.1220703125,0.4434814453125,-0.803466796875,0.400146484375,-294.0,146.0,-149.0,101693.0,-3.062000036239624,0,0
1.5453200000047218,0.370452880859375,-0.4503173828125,0.312530517578125,-0.749847412109375,0.42724609375,0.30517578125,0.0,0.4459228515625,-0.8017578125,0.4002685546875,-294.0,146.0,-149.0,101693.0,-3.062000036239624,0,0
1.5453829000034602,0.370452880859375,-0.4503173828125,0.312530517578125,-0.749847412109375,0.06103515625,0.06103515625,-0.18310546875,0.443359375,-0.8013916015625,0.400390625,-294.0,146.0,-149.0,101693.0,-3.062000036239624,0,0
1.5454424000054132,0.370452880859375,-0.4503173828125,0.3125,-0.749847412109375,0.0,-0.06103515625,-0.1220703125,0.4422607421875,-0.8017578125,0.4013671875,-294.0,146.0,-149.0,101693.0,-3.062000036239624,0,0
1.5455013000027975,0.370452880859375,-0.4503173828125,0.3125,-0.749847412109375,0.06103515625,0.06103515625,0.06103515625,0.4443359375,-0.8021240234375,0.3992919921875,-294.0,146.0,-149.0,101693.0,-3.062000036239624,0,0
1.5455615000100806,0.370452880859375,-0.4503173828125,0.3125,-0.749847412109375,0.06103515625,0.06103515625,0.06103515625,0.4443359375,-0.8021240234375,0.3992919921875,-294.0,146.0,-149.0,101693.0,-3.062000036239624,0,0
1.5456181000045035,0.370452880859375,-0.4503173828125,0.3125,-0.749847412109375,-0.1220703125,-0.244140625,-0.06103515625,0.4453125,-0.8016357421875,0.4002685546875,-294.0,146.0,-149.0,101693.0,-3.064000129699707,0,0
1.5457039000029908,0.370452880859375,-0.4503173828125,0.3125,-0.749847412109375,0.06103515625,0.0,-0.1220703125,0.44189453125,-0.80224609375,0.4002685546875,-294.0,146.0,-149.0,101693.0,-3.064000129699707,0,0
1.5457605999981752,0.37054443359375,-0.450347900390625,0.31243896484375,-0.749786376953125,0.18310546875,-0.06103515625,0.18310546875,0.444091796875,-0.8037109375,0.3985595703125,-294.0,148.0,-149.0,101693.0,-3.064000129699707,0,0
1.5458161999995355,0.37054443359375,-0.450347900390625,0.31243896484375,-0.74981689453125,-0.18310546875,0.0,-0.18310546875,0.4442138671875,-0.8046875,0.4010009765625,-294.0,148.0,-149.0,101693.0,-3.064000129699707,0,0
1.5458740000030957,0.37054443359375,-0.450347900390625,0.31243896484375,-0.74981689453125,-0.06103515625,0.0,-0.18310546875,0.4451904296875,-0.8011474609375,0.40087890625,-294.0,148.0,-149.0,101693.0,-3.064000129699707,0,0
1.5459312000020873,0.37054443359375,-0.450347900390625,0.31243896484375,-0.74981689453125,0.30517578125,-0.06103515625,0.06103515625,0.445068359375,-0.802001953125,0.3990478515625,-294.0,148.0,-149.0,101693.0,-3.064000129699707,0,0
1.545987800011062,0.37054443359375,-0.450347900390625,0.31243896484375,-0.74981689453125,-0.1220703125,-0.18310546875,0.06103515625,0.4443359375,-0.8009033203125,0.4005126953125,-294.0,148.0,-149.0,101693.0,-3.064000129699707,0,0
1.6033282999997027,0.37054443359375,-0.450347900390625,0.312408447265625,-0.74981689453125,0.1220703125,0.0,-0.1220703125,0.4464111328125,-0.8033447265625,0.39990234375,-294.0,148.0,-149.0,101693.0,-3.064000129699707,0,0
1.603412099997513,0.37054443359375,-0.450347900390625,0.312408447265625,-0.74981689453125,0.18310546875,0.06103515625,-0.1220703125,0.4444580078125,-0.802978515625,0.3995361328125,-294.0,148.0,-149.0,101693.0,-3.064000129699707,0,0
1.6034741000039503,0.37054443359375,-0.450347900390625,0.312408447265625,-0.74981689453125,-0.30517578125,-0.244140625,-0.06103515625,0.4444580078125,-0.8043212890625,0.39990234375,-294.0,148.0,-149.0,101693.0,-3.064000129699707,0,0
1.6035349000012502,0.37054443359375,-0.450347900390625,0.312408447265625,-0.74981689453125,0.244140625,-0.06103515625,0.06103515625,0.44384765625,-0.802978515625,0.3997802734375,-294.0,148.0,-149.0,101693.0,-3.064000129699707,0,0
1.6035945000039646,0.37054443359375,-0.450347900390625,0.312408447265625,-0.74981689453125,-0.06103515625,-0.1220703125,-0.244140625,0.4442138671875,-0.802490234375,0.39990234375,-294.0,148.0,-149.0,101693.0,-3.064000129699707,0,0
1.6039001000026474,0.37054443359375,-0.450347900390625,0.312408447265625,-0.74981689453125,-0.06103515625,0.0,-0.1220703125,0.443359375,-0.8035888671875,0.400634765625,-294.0,148.0,-149.0,101693.0,-3.064000129699707,0,0
1.6039664999989327,0.37054443359375,-0.450347900390625,0.312408447265625,-0.74981689453125,0.30517578125,-0.18310546875,-0.06103515625,0.4447021484375,-0.8037109375,0.400634765625,-294.0,148.0,-149.0,101693.0,-3.064000129699707,0,0
1.6040302000037627,0.37054443359375,-0.450347900390625,0.312408447265625,-0.74981689453125,0.1220703125,0.0,-0.06103515625,0.444091796875,-0.8031005859375,0.4000244140625,-294.0,148.0,-149.0,101693.0,-3.064000129699707,0,0
1.6040894000034314,0.37054443359375,-0.450347900390625,0.312408447265625,-0.74981689453125,0.244140625,-0.1220703125,-0.06103515625,0.444580078125,-0.8031005859375,0.4000244140625,-294.0,148.0,-149.0,101693.0,-3.064000129699707,0,0
1.6041476000100374,0.37054443359375,-0.450347900390625,0.312408447265625,-0.74981689453125,0.244140625,-0.1220703125,-0.06103515625,0.444580078125,-0.8031005859375,0.4000244140625,-294.0,148.0,-149.0,101693.0,-3.064000129699707,0,0
1.6042063000058988,0.37054443359375,-0.4503173828125,0.312408447265625,-0.74981689453125,0.1220703125,-0.06103515625,0.0,0.4449462890625,-0.8045654296875,0.4019775390625,-294.0,148.0,-149.0,101693.0,-3.064000129699707,0,0
1.6654356000071857,0.37054443359375,-0.4503173828125,0.312408447265625,-0.749847412109375,0.1220703125,-0.18310546875,-0.06103515625,0.44384765625,-0.80029296875,0.3997802734375,-294.0,148.0,-149.0,101693.0,-3.063000202178955,0,0
1.6655017000011867,0.37054443359375,-0.4503173828125,0.312408447265625,-0.749847412109375,0.0,-0.1220703125,0.244140625,0.446044921875,-0.80078125,0.39990234375,-293.0,148.0,-149.0,101693.0,-3.063000202178955,0,0
1.6655608000000939,0.37054443359375,-0.4503173828125,0.312408447265625,-0.749847412109375,-0.3662109375,-0.18310546875,0.30517578125,0.4427490234375,-0.8023681640625,0.40087890625,-293.0,148.0,-149.0,101693.0,-3.063000202178955,0,0
1.6656195000105072,0.370574951171875,-0.450286865234375,0.312408447265625,-0.749847412109375,0.30517578125,0.06103515625,0.0,0.4417724609375,-0.8018798828125,0.4027099609375,-293.0,148.0,-149.0,101693.0,-3.063000202178955,0,0
1.665677400000277,0.370574951171875,-0.450286865234375,0.3123779296875,-0.749847412109375,-0.1220703125,0.1220703125,-0.244140625,0.4454345703125,-0.8023681640625,0.3997802734375,-293.0,148.0,-149.0,101693.0,-3.063000202178955,0,0
1.6667920000036247,0.370574951171875,-0.450286865234375,0.3123779296875,-0.749847412109375,-0.1220703125,0.1220703125,-0.244140625,0.4454345703125,-0.8023681640625,0.3997802734375,-293.0,148.0,-149.0,101693.0,-3.063000202178955,0,0
1.6668619999982184,0.370574951171875,-0.450286865234375,0.3123779296875,-0.749847412109375,0.30517578125,-0.06103515625,-0.18310546875,0.4429931640625,-0.8023681640625,0.401123046875,-293.0,148.0,-149.0,101693.0,-3.063000202178955,0,0
1.6669663000066066,0.370574951171875,-0.450286865234375,0.3123779296875,-0.749847412109375,-0.18310546875,-0.1220703125,-0.244140625,0.44482421875,-0.802978515625,0.400146484375,-293.0,148.0,-149.0,101693.0,-3.063000202178955,0,0
1.6670269000023836,0.370574951171875,-0.450286865234375,0.3123779296875,-0.749847412109375,-0.1220703125,0.18310546875,0.0,0.44384765625,-0.802490234375,0.400390625,-293.0,148.0,-149.0,101693.0,-3.063000202178955,0,0
1.6670848000067053,0.370574951171875,-0.450286865234375,0.3123779296875,-0.749847412109375,-0.1220703125,0.18310546875,-0.244140625,0.4439697265625,-0.8016357421875,0.4000244140625,-293.0,148.0,-149.0,101693.0,-3.063000202178955,0,0
1.6671424000087427,0.370574951171875,-0.450286865234375,0.3123779296875,-0.749847412109375,0.06103515625,0.0,0.1220703125,0.444091796875,-0.8033447265625,0.4000244140625,-293.0,148.0,-149.0,101693.0,-3.063000202178955,0,0
1.7295987000106834,0.370574951171875,-0.450286865234375,0.3123779296875,-0.749847412109375,0.18310546875,0.0,-0.06103515625,0.4437255859375,-0.8013916015625,0.4007568359375,-293.0,148.0,-149.0,101693.0,-3.063000202178955,0,0
1.7296650000062073,0.370574951171875,-0.450286865234375,0.3123779296875,-0.749847412109375,-0.06103515625,0.0,-0.06103515625,0.4459228515625,-0.80224609375,0.4005126953125,-293.0,148.0,-149.0,101693.0,-3.063000202178955,0,0
1.7297226000082446,0.370574951171875,-0.450286865234375,0.3123779296875,-0.749847412109375,0.18310546875,0.0,0.06103515625,0.4443359375,-0.8026123046875,0.399169921875,-293.0,148.0,-149.0,101693.0,-3.063000202178955,0,0
1.7297811000025831,0.370574951171875,-0.450286865234375,0.3123779296875,-0.749847412109375,0.0,-0.06103515625,0.0,0.4439697265625,-0.8035888671875,0.400146484375,-293.0,148.0,-149.0,101693.0,-3.063000202178955,0,0
1.7298378999985289,0.370574951171875,-0.450286865234375,0.3123779296875,-0.749847412109375,0.0,-0.06103515625,0.0,0.4439697265625,-0.8035888671875,0.400146484375,-293.0,148.0,-149.0,101693.0,-3.063000202178955,0,0
1.7298963000066578,0.370574951171875,-0.450286865234375,0.3123779296875,-0.749847412109375,0.1220703125,0.18310546875,-0.244140625,0.4437255859375,-0.802001953125,0.400390625,-293.0,148.0,-149.0,101693.0,-3.063000202178955,0,0
1.729953200003365,0.370574951171875,-0.450286865234375,0.3123779296875,-0.7498779296875,-0.18310546875,0.0,0.0,0.44482421875,-0.8018798828125,0.3994140625,-293.0,148.0,-149.0,101693.0,-3.063000202178955,0,0
1.7300245000078576,0.370574951171875,-0.450286865234375,0.3123779296875,-0.7498779296875,0.1220703125,-0.1220703125,-0.06103515625,0.443603515625,-0.8011474609375,0.400146484375,-293.0,148.0,-149.0,101693.0,-3.063000202178955,0,0
1.7300814000045648,0.370574951171875,-0.450286865234375,0.3123779296875,-0.7498779296875,0.06103515625,0.06103515625,-0.1220703125,0.444580078125,-0.8016357421875,0.40087890625,-293.0,148.0,-149.0,101693.0,-3.065000057220459,0,0
1.7301369000051636,0.370574951171875,-0.45025634765625,0.3123779296875,-0.7498779296875,0.06103515625,0.0,0.06103515625,0.4439697265625,-0.8033447265625,0.400634765625,-293.0,148.0,-149.0,101693.0,-3.065000057220459,0,0
1.7301930000103312,0.370574951171875,-0.45025634765625,0.3123779296875,-0.7498779296875,0.18310546875,-0.244140625,-0.30517578125,0.4434814453125,-0.80517578125,0.401611328125,-294.0,148.0,-149.0,101693.0,-3.065000057220459,0,0
1.7302502000093227,0.37066650390625,-0.4503173828125,0.31231689453125,-0.74981689453125,0.18310546875,0.0,0.0,0.4449462890625,-0.802978515625,0.399169921875,-294.0,148.0,-149.0,101693.0,-3.065000057220459,0,0
1.7303056000091601,0.37066650390625,-0.4503173828125,0.31231689453125,-0.74981689453125,-0.30517578125,0.0,0.0,0.446044921875,-0.804443359375,0.399169921875,-294.0,148.0,-149.0,101693.0,-3.065000057220459,0,0
1.8097241000068607,0.370697021484375,-0.450286865234375,0.31231689453125,-0.74981689453125,0.0,-0.06103515625,-0.3662109375,0.4434814453125,-0.80224609375,0.40234375,-294.0,148.0,-149.0,101693.0,-3.065000057220459,0,0
1.809807900004671,0.370697021484375,-0.450286865234375,0.31231689453125,-0.74981689453125,0.18310546875,0.244140625,0.06103515625,0.44140625,-0.802001953125,0.400390625,-294.0,148.0,-149.0,101693.0,-3.065000057220459,0,0
1.809871400007978,0.37066650390625,-0.450286865234375,0.31231689453125,-0.74981689453125,-0.06103515625,-0.06103515625,0.06103515625,0.443359375,-0.8038330078125,0.400146484375,-294.0,148.0,-149.0,101693.0,-3.065000057220459,0,0
1.8099304000061238,0.37066650390625,-0.450286865234375,0.31231689453125,-0.74981689453125,0.0,0.1220703125,-0.06103515625,0.448486328125,-0.8033447265625,0.3995361328125,-294.0,148.0,-149.0,101693.0,-3.065000057220459,0,0
1.8100476000108756,0.37066650390625,-0.450286865234375,0.31231689453125,-0.74981689453125,0.30517578125,0.06103515625,0.0,0.444580078125,-0.8018798828125,0.4007568359375,-294.0,148.0,-149.0,101693.0,-3.065000057220459,0,0
1.810131200007163,0.370697021484375,-0.450286865234375,0.312286376953125,-0.749847412109375,-0.1220703125,0.0,-0.1220703125,0.44287109375,-0.803955078125,0.4019775390625,-294.0,148.0,-149.0,101693.0,-3.065000057220459,0,0
1.8101906000083545,0.370697021484375,-0.450286865234375,0.312286376953125,-0.749847412109375,0.0,0.1220703125,-0.244140625,0.443115234375,-0.8009033203125,0.4010009765625,-294.0,148.0,-149.0,101693.0,-3.065000057220459,0,0
1.8102496000065003,0.370697021484375,-0.450286865234375,0.312286376953125,-0.749847412109375,0.06103515625,0.06103515625,-0.244140625,0.444091796875,-0.8023681640625,0.4005126953125,-294.0,148.0,-149.0,101693.0,-3.065000057220459,0,0
1.8103069000062533,0.370697021484375,-0.450286865234375,0.312286376953125,-0.749847412109375,0.06103515625,0.06103515625,-0.244140625,0.444091796875,-0.8023681640625,0.4005126953125,-294.0,148.0,-149.0,101693.0,-3.065000057220459,0,0
1.8103663000074448,0.370697021484375,-0.450286865234375,0.312286376953125,-0.749847412109375,-0.18310546875,-0.244140625,-0.1220703125,0.44482421875,-0.802734375,0.400146484375,-294.0,148.0,-149.0,101693.0,-3.065000057220459,0,0
1.8104222000110894,0.370697021484375,-0.450286865234375,0.312286376953125,-0.749847412109375,-0.06103515625,0.0,0.0,0.44482421875,-0.802734375,0.400390625,-294.0,148.0,-149.0,101693.0,-3.065000057220459,0,0
1.8639001999981701,0.370697021484375,-0.45025634765625,0.312286376953125,-0.749847412109375,0.06103515625,0.06103515625,0.06103515625,0.4415283203125,-0.80419921875,0.4013671875,-294.0,148.0,-149.0,101693.0,-3.062000036239624,0,0
1.8639682000066387,0.370697021484375,-0.45025634765625,0.312286376953125,-0.749847412109375,-0.06103515625,-0.06103515625,-0.18310546875,0.442626953125,-0.801513671875,0.4014892578125,-294.0,148.0,-149.0,101693.0,-3.062000036239624,0,0
1.8640269000025,0.370697021484375,-0.45025634765625,0.312286376953125,-0.749847412109375,-0.06103515625,0.06103515625,-0.06103515625,0.4449462890625,-0.8006591796875,0.400634765625,-294.0,148.0,-149.0,101693.0,-3.062000036239624,0,0
1.8640876999998,0.37078857421875,-0.450286865234375,0.312225341796875,-0.749786376953125,0.30517578125,-0.1220703125,0.1220703125,0.442626953125,-0.8031005859375,0.39990234375,-294.0,148.0,-149.0,101693.0,-3.062000036239624,0,0
1.864146100007929,0.37078857421875,-0.450286865234375,0.312225341796875,-0.749786376953125,0.30517578125,-0.1220703125,0.1220703125,0.442626953125,-0.8031005859375,0.39990234375,-294.0,148.0,-149.0,101693.0,-3.062000036239624,0,0
1.8642221000045538,0.37078857421875,-0.450286865234375,0.312225341796875,-0.749786376953125,0.06103515625,-0.18310546875,-0.06103515625,0.444091796875,-0.80419921875,0.400634765625,-294.0,148.0,-149.0,101693.0,-3.062000036239624,0,0
1.864279200002784,0.37078857421875,-0.450286865234375,0.312225341796875,-0.74981689453125,0.06103515625,0.0,0.18310546875,0.44384765625,-0.802734375,0.4012451171875,-294.0,148.0,-149.0,101693.0,-3.062000036239624,0,0
1.8643358000117587,0.37078857421875,-0.450286865234375,0.312225341796875,-0.74981689453125,-0.18310546875,-0.06103515625,0.0,0.44384765625,-0.8031005859375,0.4010009765625,-294.0,148.0,-149.0,101693.0,-3.062000036239624,0,0
1.8643920000031358,0.37078857421875,-0.450286865234375,0.312225341796875,-0.74981689453125,-0.18310546875,0.0,-0.244140625,0.4437255859375,-0.80224609375,0.398681640625,-294.0,148.0,-149.0,101693.0,-3.062000036239624,0,0
1.8644475000037346,0.37078857421875,-0.450286865234375,0.312225341796875,-0.74981689453125,0.30517578125,0.06103515625,-0.1220703125,0.4434814453125,-0.8037109375,0.400634765625,-294.0,148.0,-149.0,101693.0,-3.062000036239624,0,0
1.8645042999996804,0.370819091796875,-0.450286865234375,0.312225341796875,-0.74981689453125,-0.1220703125,-0.06103515625,-0.06103515625,0.444580078125,-0.802978515625,0.4002685546875,-294.0,148.0,-149.0,101693.0,-3.062000036239624,0,0
1.9181537999975262,0.37078857421875,-0.450286865234375,0.312225341796875,-0.74981689453125,0.1220703125,-0.1220703125,-0.244140625,0.445068359375,-0.80224609375,0.4005126953125,-294.0,148.0,-149.0,101693.0,-3.062000036239624,0,0
1.918229800008703,0.37078857421875,-0.450286865234375,0.312225341796875,-0.74981689453125,-0.18310546875,-0.1220703125,0.0,0.442626953125,-0.800048828125,0.3992919921875,-294.0,148.0,-149.0,101693.0,-3.062000036239624,0,0
1.9182922000036342,0.370819091796875,-0.450286865234375,0.312225341796875,-0.74981689453125,-0.1220703125,-0.18310546875,0.06103515625,0.44384765625,-0.8038330078125,0.4005126953125,-294.0,148.0,-149.0,101693.0,-3.062000036239624,0,0
1.918351000000257,0.370819091796875,-0.450286865234375,0.312225341796875,-0.74981689453125,-0.1220703125,-0.18310546875,0.06103515625,0.44384765625,-0.8038330078125,0.4005126953125,-294.0,148.0,-149.0,101693.0,-3.062000036239624,0,0
1.918408500001533,0.37078857421875,-0.450286865234375,0.31219482421875,-0.74981689453125,-0.06103515625,-0.06103515625,0.0,0.44580078125,-0.8037109375,0.40185546875,-294.0,148.0,-149.0,101693.0,-3.062000036239624,0,0
1.9184634999983246,0.370819091796875,-0.450286865234375,0.31219482421875,-0.74981689453125,-0.06103515625,0.1220703125,0.06103515625,0.4437255859375,-0.8037109375,0.4012451171875,-294.0,148.0,-149.0,101693.0,-3.062000036239624,0,0
1.9186816000001272,0.370819091796875,-0.45025634765625,0.31219482421875,-0.74981689453125,0.0,0.1220703125,0.06103515625,0.4422607421875,-0.8018798828125,0.4000244140625,-294.0,148.0,-149.0,101693.0,-3.062000036239624,0,0
1.918757600011304,0.370819091796875,-0.45025634765625,0.31219482421875,-0.74981689453125,0.18310546875,-0.1220703125,0.06103515625,0.44287109375,-0.80224609375,0.4002685546875,-294.0,148.0,-149.0,101693.0,-3.062000036239624,0,0
1.918813800002681,0.370819091796875,-0.45025634765625,0.31219482421875,-0.74981689453125,-0.1220703125,0.06103515625,-0.06103515625,0.44140625,-0.80126953125,0.3995361328125,-294.0,148.0,-149.0,101693.0,-3.062000036239624,0,0
1.918912300010561,0.370819091796875,-0.45025634765625,0.312225341796875,-0.74981689453125,-0.1220703125,0.06103515625,-0.06103515625,0.44140625,-0.80126953125,0.3995361328125,-294.0,148.0,-149.0,101693.0,-3.063000202178955,0,0
1.9189927999977954,0.370819091796875,-0.45025634765625,0.31219482421875,-0.74981689453125,0.06103515625,0.06103515625,0.0,0.441650390625,-0.802490234375,0.4014892578125,-294.0,148.0,-149.0,101693.0,-3.063000202178955,0,0
1.9190568000049097,0.370819091796875,-0.45025634765625,0.31219482421875,-0.74981689453125,-0.06103515625,-0.1220703125,-0.1220703125,0.44287109375,-0.8013916015625,0.401611328125,-294.0,148.0,-149.0,101693.0,-3.063000202178955,0,0
1.9191161000053398,0.370819091796875,-0.45025634765625,0.31219482421875,-0.74981689453125,-0.06103515625,-0.1220703125,-0.1220703125,0.44287109375,-0.8013916015625,0.401611328125,-294.0,148.0,-149.0,101693.0,-3.063000202178955,0,0
1.9855382000096142,0.37091064453125,-0.450286865234375,0.3121337890625,-0.749786376953125,-0.1220703125,0.0,0.0,0.444091796875,-0.8031005859375,0.3997802734375,-295.0,149.0,-149.0,101693.0,-3.063000202178955,0,0
1.985602700005984,0.37091064453125,-0.450286865234375,0.3121337890625,-0.749786376953125,0.3662109375,-0.06103515625,0.0,0.444091796875,-0.8038330078125,0.399169921875,-295.0,149.0,-149.0,101693.0,-3.063000202178955,0,0
1.985663300001761,0.37091064453125,-0.450286865234375,0.3121337890625,-0.749786376953125,-0.1220703125,-0.244140625,-0.06103515625,0.4443359375,-0.8048095703125,0.4012451171875,-295.0,149.0,-149.0,101693.0,-3.063000202178955,0,0
1.9857210000045598,0.37091064453125,-0.450286865234375,0.3121337890625,-0.749786376953125,0.30517578125,0.0,0.0,0.444091796875,-0.8026123046875,0.399658203125,-295.0,149.0,-149.0,101693.0,-3.063000202178955,0,0
1.9857782000035513,0.37091064453125,-0.450286865234375,0.3121337890625,-0.749786376953125,-0.06103515625,-0.18310546875,0.0,0.4443359375,-0.8028564453125,0.3994140625,-295.0,149.0,-149.0,101693.0,-3.063000202178955,0,0
1.98617170000216,0.37091064453125,-0.450286865234375,0.3121337890625,-0.749786376953125,0.0,-0.06103515625,-0.244140625,0.4444580078125,-0.802978515625,0.400634765625,-295.0,149.0,-149.0,101693.0,-3.063000202178955,0,0
1.9862540000031004,0.37091064453125,-0.450286865234375,0.3121337890625,-0.749786376953125,0.48828125,0.06103515625,0.0,0.4454345703125,-0.8021240234375,0.4010009765625,-295.0,149.0,-149.0,101693.0,-3.063000202178955,0,0
1.986350899998797,0.37091064453125,-0.450286865234375,0.3121337890625,-0.749786376953125,0.48828125,0.06103515625,0.0,0.4454345703125,-0.8021240234375,0.4010009765625,-295.0,149.0,-149.0,101693.0,-3.063000202178955,0,0
1.986408600001596,0.37091064453125,-0.450286865234375,0.3121337890625,-0.749786376953125,0.0,0.0,-0.1220703125,0.443115234375,-0.8013916015625,0.40185546875,-295.0,149.0,-149.0,101693.0,-3.063000202178955,0,0
1.986466800008202,0.37091064453125,-0.450286865234375,0.3121337890625,-0.749786376953125,0.1220703125,0.0,0.0,0.4423828125,-0.80078125,0.3995361328125,-295.0,149.0,-149.0,101693.0,-3.063000202178955,0,0
1.9865238000056706,0.37091064453125,-0.450286865234375,0.3121337890625,-0.749786376953125,-0.1220703125,-0.1220703125,-0.244140625,0.4462890625,-0.8013916015625,0.40185546875,-295.0,149.0,-149.0,101693.0,-3.063000202178955,0,0
2.0487724999984493,0.37091064453125,-0.450286865234375,0.312103271484375,-0.749786376953125,0.0,-0.18310546875,0.06103515625,0.44287109375,-0.8035888671875,0.4007568359375,-295.0,149.0,-149.0,101693.0,-3.063000202178955,0,0
2.0488494000019273,0.37091064453125,-0.450286865234375,0.312103271484375,-0.749786376953125,0.244140625,0.0,0.06103515625,0.442138671875,-0.8021240234375,0.4013671875,-295.0,149.0,-149.0,101693.0,-3.062000036239624,0,0
2.04891260000295,0.37091064453125,-0.450286865234375,0.312103271484375,-0.749786376953125,-0.1220703125,-0.1220703125,-0.1220703125,0.4439697265625,-0.8011474609375,0.3997802734375,-295.0,149.0,-149.0,101693.0,-3.062000036239624,0,0
2.0489712999988114,0.37091064453125,-0.450286865234375,0.312103271484375,-0.749786376953125,-0.1220703125,-0.1220703125,-0.1220703125,0.4439697265625,-0.8011474609375,0.3997802734375,-295.0,149.0,-149.0,101693.0,-3.062000036239624,0,0
2.0490303999977186,0.37091064453125,-0.450286865234375,0.3121337890625,-0.749786376953125,-0.06103515625,-0.18310546875,0.0,0.4434814453125,-0.803466796875,0.3992919921875,-295.0,149.0,-149.0,101693.0,-3.062000036239624,0,0
2.0519234000094,0.37091064453125,-0.450286865234375,0.3121337890625,-0.749786376953125,-0.06103515625,-0.18310546875,0.1220703125,0.4422607421875,-0.802001953125,0.3988037109375,-295.0,149.0,-150.0,101693.0,-3.062000036239624,0,0
2.0519906999979867,0.37091064453125,-0.450286865234375,0.3121337890625,-0.749786376953125,0.42724609375,0.06103515625,-0.244140625,0.44287109375,-0.802978515625,0.3992919921875,-295.0,149.0,-150.0,101693.0,-3.062000036239624,0,0
2.0520504000014625,0.37091064453125,-0.450286865234375,0.3121337890625,-0.749786376953125,0.0,-0.06103515625,0.06103515625,0.443359375,-0.8028564453125,0.399169921875,-295.0,149.0,-150.0,101693.0,-3.062000036239624,0,0
2.052109100011876,0.37091064453125,-0.450286865234375,0.3121337890625,-0.749786376953125,-0.1220703125,-0.244140625,-0.1220703125,0.4432373046875,-0.8011474609375,0.3997802734375,-295.0,149.0,-150.0,101693.0,-3.062000036239624,0,0
2.0558949999976903,0.37091064453125,-0.45025634765625,0.3121337890625,-0.749786376953125,-0.1220703125,0.1220703125,0.06103515625,0.4439697265625,-0.8004150390625,0.4007568359375,-295.0,149.0,-150.0,101693.0,-3.062000036239624,0,0
2.055968100001337,0.37091064453125,-0.45025634765625,0.3121337890625,-0.749786376953125,-0.1220703125,-0.06103515625,-0.1220703125,0.4442138671875,-0.801025390625,0.400146484375,-295.0,149.0,-150.0,101693.0,-3.062000036239624,0,0
2.1141540000098757,0.37091064453125,-0.45025634765625,0.3121337890625,-0.749786376953125,0.0,-0.06103515625,-0.1220703125,0.443603515625,-0.8033447265625,0.39990234375,-295.0,149.0,-150.0,101693.0,-3.062000036239624,0,0
2.1142179000016768,0.37091064453125,-0.45025634765625,0.3121337890625,-0.749786376953125,0.244140625,-0.18310546875,-0.1220703125,0.4434814453125,-0.8018798828125,0.399658203125,-295.0,149.0,-150.0,101693.0,-3.062000036239624,0,0
2.114274200008367,0.37091064453125,-0.45025634765625,0.3121337890625,-0.749786376953125,0.244140625,-0.18310546875,-0.1220703125,0.4434814453125,-0.8018798828125,0.399658203125,-295.0,149.0,-150.0,101693.0,-3.062000036239624,0,0
2.1143280000105733,0.37091064453125,-0.450286865234375,0.3121337890625,-0.749786376953125,0.18310546875,0.18310546875,-0.1220703125,0.4439697265625,-0.8011474609375,0.400390625,-295.0,149.0,-150.0,101693.0,-3.062000036239624,0,0
2.1143812000082107,0.37091064453125,-0.45025634765625,0.312103271484375,-0.749786376953125,0.0,0.0,-0.1220703125,0.444580078125,-0.802490234375,0.4017333984375,-295.0,149.0,-150.0,101693.0,-3.062000036239624,0,0
2.1144351000111783,0.37091064453125,-0.45025634765625,0.312103271484375,-0.74981689453125,0.06103515625,-0.06103515625,-0.06103515625,0.445556640625,-0.8038330078125,0.4014892578125,-295.0,149.0,-150.0,101693.0,-3.062000036239624,0,0
2.1144888999988325,0.37091064453125,-0.450286865234375,0.312103271484375,-0.74981689453125,0.6103515625,-0.1220703125,-0.18310546875,0.447021484375,-0.8035888671875,0.4010009765625,-295.0,149.0,-150.0,101693.0,-3.062000036239624,0,0
2.1157371000008425,0.37091064453125,-0.450286865234375,0.312103271484375,-0.74981689453125,-0.1220703125,-0.06103515625,0.0,0.4439697265625,-0.8028564453125,0.3992919921875,-295.0,149.0,-150.0,101693.0,-3.062000036239624,0,0
2.11579320000601,0.37091064453125,-0.450286865234375,0.312103271484375,-0.74981689453125,0.1220703125,0.18310546875,-0.18310546875,0.444091796875,-0.8018798828125,0.399658203125,-295.0,149.0,-150.0,101693.0,-3.062000036239624,0,0
2.1158469000074547,0.37091064453125,-0.45025634765625,0.312103271484375,-0.74981689453125,-0.1220703125,-0.1220703125,-0.06103515625,0.443115234375,-0.80078125,0.4010009765625,-295.0,149.0,-150.0,101693.0,-3.062000036239624,0,0
2.115899000011268,0.37091064453125,-0.45025634765625,0.312103271484375,-0.74981689453125,0.1220703125,-0.1220703125,-0.06103515625,0.444580078125,-0.8045654296875,0.4000244140625,-295.0,149.0,-150.0,101693.0,-3.062000036239624,0,0
2.1159524000104284,0.37091064453125,-0.45025634765625,0.312103271484375,-0.74981689453125,0.1220703125,-0.1220703125,-0.06103515625,0.444580078125,-0.8045654296875,0.4000244140625,-295.0,149.0,-150.0,101693.0,-3.062000036239624,0,0
2.11600370000815,0.37091064453125,-0.45025634765625,0.312103271484375,-0.74981689453125,0.30517578125,0.1220703125,-0.06103515625,0.442626953125,-0.8050537109375,0.4005126953125,-295.0,149.0,-150.0,101693.0,-3.063000202178955,0,0
2.176540800006478,0.37091064453125,-0.45025634765625,0.312103271484375,-0.74981689453125,-0.06103515625,-0.18310546875,-0.1220703125,0.4439697265625,-0.8026123046875,0.3997802734375,-294.0,149.0,-150.0,101693.0,-3.063000202178955,0,0
2.1766079000080936,0.37091064453125,-0.45025634765625,0.312103271484375,-0.74981689453125,0.0,-0.1220703125,0.18310546875,0.4437255859375,-0.8013916015625,0.39990234375,-294.0,149.0,-150.0,101693.0,-3.063000202178955,0,0
2.189494400008698,0.37091064453125,-0.45025634765625,0.312103271484375,-0.74981689453125,-0.06103515625,0.1220703125,-0.18310546875,0.4434814453125,-0.801513671875,0.4010009765625,-294.0,149.0,-150.0,101693.0,-3.063000202178955,0,0
2.189573299998301,0.37091064453125,-0.45025634765625,0.312103271484375,-0.74981689453125,0.0,-0.1220703125,-0.1220703125,0.4443359375,-0.8046875,0.398681640625,-294.0,149.0,-150.0,101693.0,-3.063000202178955,0,0
2.1896300000080373,0.37091064453125,-0.45025634765625,0.312103271484375,-0.74981689453125,0.06103515625,-0.06103515625,-0.18310546875,0.4443359375,-0.8018798828125,0.40087890625,-294.0,149.0,-150.0,101693.0,-3.063000202178955,0,0
2.1897686000011163,0.37091064453125,-0.45025634765625,0.312103271484375,-0.74981689453125,0.06103515625,-0.06103515625,-0.18310546875,0.4443359375,-0.8018798828125,0.40087890625,-294.0,149.0,-150.0,101693.0,-3.063000202178955,0,0
2.189828900009161,0.37091064453125,-0.45025634765625,0.312103271484375,-0.74981689453125,0.244140625,-0.1220703125,-0.06103515625,0.4447021484375,-0.8016357421875,0.39990234375,-294.0,149.0,-150.0,101693.0,-3.063000202178955,0,0
2.189927900006296,0.37091064453125,-0.45025634765625,0.312103271484375,-0.74981689453125,-0.06103515625,-0.06103515625,-0.1220703125,0.4437255859375,-0.8023681640625,0.4000244140625,-294.0,149.0,-150.0,101693.0,-3.063000202178955,0,0
2.1900064000074053,0.37091064453125,-0.45025634765625,0.312103271484375,-0.74981689453125,0.0,-0.244140625,-0.18310546875,0.4437255859375,-0.8009033203125,0.39990234375,-294.0,149.0,-150.0,101693.0,-3.063000202178955,0,0
2.1900663999986136,0.37091064453125,-0.45025634765625,0.312103271484375,-0.74981689453125,0.06103515625,-0.06103515625,0.0,0.44775390625,-0.8037109375,0.40087890625,-294.0,149.0,-150.0,101693.0,-3.063000202178955,0,0
2.190144899999723,0.37091064453125,-0.45025634765625,0.312103271484375,-0.74981689453125,0.244140625,-0.1220703125,-0.18310546875,0.441162109375,-0.8018798828125,0.40087890625,-294.0,149.0,-150.0,101693.0,-3.063000202178955,0,0
2.240620399999898,0.37091064453125,-0.45025634765625,0.312103271484375,-0.74981689453125,0.0,-0.42724609375,0.06103515625,0.4437255859375,-0.801025390625,0.4002685546875,-294.0,149.0,-150.0,101693.0,-3.063000202178955,0,0
2.2406835000001593,0.37091064453125,-0.45025634765625,0.312103271484375,-0.74981689453125,-0.30517578125,-0.1220703125,0.1220703125,0.4423828125,-0.8037109375,0.400146484375,-294.0,149.0,-150.0,101693.0,-3.063000202178955,0,0
2.2407391000015195,0.37091064453125,-0.45025634765625,0.312103271484375,-0.74981689453125,-0.30517578125,-0.1220703125,0.1220703125,0.4423828125,-0.8037109375,0.400146484375,-294.0,149.0,-150.0,101693.0,-3.063000202178955,0,0
2.2407927000022028,0.37091064453125,-0.45025634765625,0.312103271484375,-0.74981689453125,0.1220703125,-0.1220703125,0.06103515625,0.444580078125,-0.8026123046875,0.40087890625,-294.0,149.0,-150.0,101693.0,-3.063000202178955,0,0
2.2408455000113463,0.37091064453125,-0.45025634765625,0.312103271484375,-0.74981689453125,0.1220703125,-0.1220703125,-0.1220703125,0.4449462890625,-0.8031005859375,0.400146484375,-294.0,149.0,-150.0,101693.0,-3.063000202178955,0,0
2.2417405000014696,0.37091064453125,-0.45025634765625,0.31207275390625,-0.74981689453125,0.244140625,0.1220703125,0.06103515625,0.4444580078125,-0.802001953125,0.4000244140625,-294.0,149.0,-150.0,101693.0,-3.063000202178955,0,0
2.241803600001731,0.37091064453125,-0.45025634765625,0.31207275390625,-0.74981689453125,-0.06103515625,-0.06103515625,-0.06103515625,0.4439697265625,-0.802490234375,0.4010009765625,-295.0,149.0,-150.0,101693.0,-3.063000202178955,0,0
2.241858699999284,0.37091064453125,-0.45025634765625,0.31207275390625,-0.74981689453125,0.244140625,0.0,0.1220703125,0.4444580078125,-0.8018798828125,0.399658203125,-295.0,149.0,-150.0,101693.0,-3.063000202178955,0,0
2.2419144000014057,0.37091064453125,-0.45025634765625,0.31207275390625,-0.74981689453125,0.06103515625,0.0,0.0,0.441162109375,-0.8017578125,0.3992919921875,-295.0,149.0,-150.0,101693.0,-3.063000202178955,0,0
2.241968200003612,0.37091064453125,-0.45025634765625,0.312103271484375,-0.74981689453125,-0.18310546875,-0.1220703125,-0.06103515625,0.443359375,-0.8018798828125,0.3988037109375,-295.0,149.0,-150.0,101693.0,-3.063000202178955,0,0
2.2420219000050565,0.370941162109375,-0.45025634765625,0.312103271484375,-0.74981689453125,0.244140625,0.0,-0.244140625,0.4415283203125,-0.8038330078125,0.399658203125,-295.0,149.0,-150.0,101693.0,-3.063000202178955,0,0
2.2420761000103084,0.370941162109375,-0.45025634765625,0.312103271484375,-0.74981689453125,0.244140625,0.0,-0.244140625,0.4415283203125,-0.8038330078125,0.399658203125,-295.0,149.0,-150.0,101693.0,-3.063000202178955,0,0
2.3053721000032965,0.370941162109375,-0.450225830078125,0.312103271484375,-0.74981689453125,0.18310546875,-0.06103515625,0.06103515625,0.44189453125,-0.802001953125,0.401123046875,-295.0,149.0,-150.0,101693.0,-3.063000202178955,0,0
2.305433700006688,0.370941162109375,-0.450225830078125,0.312103271484375,-0.74981689453125,0.0,-0.06103515625,0.0,0.4420166015625,-0.8043212890625,0.39892578125,-295.0,149.0,-150.0,101693.0,-3.063000202178955,0,0
2.3054894000088098,0.370941162109375,-0.45025634765625,0.312103271484375,-0.74981689453125,-0.1220703125,-0.1220703125,0.06103515625,0.4449462890625,-0.802490234375,0.3985595703125,-295.0,149.0,-150.0,101693.0,-3.063000202178955,0,0
2.305542600006447,0.370941162109375,-0.450225830078125,0.312103271484375,-0.74981689453125,-0.1220703125,-0.06103515625,-0.18310546875,0.4434814453125,-0.8037109375,0.4007568359375,-295.0,149.0,-150.0,101693.0,-3.063000202178955,0,0
2.3058604000107152,0.370941162109375,-0.450225830078125,0.312103271484375,-0.74981689453125,0.244140625,-0.1220703125,-0.3662109375,0.444091796875,-0.80322265625,0.39990234375,-295.0,149.0,-150.0,101693.0,-3.063000202178955,0,0
2.3059133000060683,0.370941162109375,-0.45025634765625,0.312103271484375,-0.74981689453125,-0.1220703125,0.06103515625,0.06103515625,0.4437255859375,-0.803955078125,0.3985595703125,-295.0,149.0,-150.0,101693.0,-3.063000202178955,0,0
2.3059674000105588,0.370941162109375,-0.450225830078125,0.312103271484375,-0.74981689453125,-0.18310546875,-0.18310546875,-0.1220703125,0.4437255859375,-0.8035888671875,0.400146484375,-295.0,149.0,-150.0,101693.0,-3.063000202178955,0,0
2.306055599998217,0.370941162109375,-0.450225830078125,0.312103271484375,-0.74981689453125,-0.18310546875,-0.18310546875,-0.1220703125,0.4437255859375,-0.8035888671875,0.400146484375,-295.0,149.0,-150.0,101693.0,-3.063000202178955,0,0
2.3061072999989847,0.370941162109375,-0.45025634765625,0.312103271484375,-0.74981689453125,0.1220703125,-0.18310546875,0.0,0.4447021484375,-0.80419921875,0.399169921875,-295.0,149.0,-150.0,101693.0,-3.063000202178955,0,0
2.3061595000035595,0.370941162109375,-0.45025634765625,0.3121337890625,-0.74981689453125,0.0,-0.30517578125,-0.06103515625,0.4464111328125,-0.80419921875,0.3992919921875,-295.0,149.0,-150.0,101693.0,-3.063000202178955,0,0
2.3702470999996876,0.370941162109375,-0.45025634765625,0.312103271484375,-0.74981689453125,-0.06103515625,-0.1220703125,-0.1220703125,0.4447021484375,-0.8017578125,0.4002685546875,-296.0,149.0,-150.0,101693.0,-3.064000129699707,0,0
2.370310400001472,0.370941162109375,-0.45025634765625,0.3121337890625,-0.74981689453125,-0.18310546875,0.18310546875,-0.244140625,0.4434814453125,-0.80419921875,0.39892578125,-296.0,149.0,-150.0,101693.0,-3.064000129699707,0,0
2.370366600007401,0.370941162109375,-0.45025634765625,0.312103271484375,-0.74981689453125,0.06103515625,-0.1220703125,-0.3662109375,0.44384765625,-0.8016357421875,0.399658203125,-296.0,149.0,-150.0,101693.0,-3.064000129699707,0,0
2.3704218000057153,0.370941162109375,-0.45025634765625,0.3121337890625,-0.74981689453125,0.0,0.18310546875,-0.244140625,0.4425048828125,-0.80078125,0.400634765625,-296.0,149.0,-150.0,101693.0,-3.064000129699707,0,0
2.3704765000002226,0.370941162109375,-0.45025634765625,0.3121337890625,-0.74981689453125,0.0,0.18310546875,-0.244140625,0.4425048828125,-0.80078125,0.400634765625,-296.0,149.0,-150.0,101693.0,-3.064000129699707,0,0
2.370546200007084,0.370941162109375,-0.45025634765625,0.3121337890625,-0.74981689453125,0.1220703125,-0.244140625,-0.06103515625,0.4454345703125,-0.8023681640625,0.39892578125,-296.0,149.0,-150.0,101693.0,-3.064000129699707,0,0
2.370600700000068,0.370941162109375,-0.45025634765625,0.3121337890625,-0.74981689453125,0.18310546875,0.0,0.18310546875,0.4437255859375,-0.8013916015625,0.399658203125,-296.0,149.0,-150.0,101693.0,-3.064000129699707,0,0
2.370653300007689,0.370941162109375,-0.45025634765625,0.3121337890625,-0.749786376953125,-0.244140625,0.06103515625,0.0,0.4459228515625,-0.8026123046875,0.398193359375,-296.0,149.0,-150.0,101693.0,-3.064000129699707,0,0
2.3707083000044804,0.370941162109375,-0.45025634765625,0.3121337890625,-0.749786376953125,-0.06103515625,0.0,-0.1220703125,0.4439697265625,-0.802978515625,0.399658203125,-296.0,149.0,-150.0,101693.0,-3.064000129699707,0,0
2.3707614000013564,0.370941162109375,-0.45025634765625,0.3121337890625,-0.749786376953125,-0.1220703125,-0.1220703125,0.0,0.4427490234375,-0.8017578125,0.3997802734375,-296.0,149.0,-150.0,101693.0,-3.064000129699707,0,0
2.3708141000097385,0.370941162109375,-0.45025634765625,0.3121337890625,-0.749786376953125,-0.42724609375,0.0,-0.1220703125,0.44384765625,-0.8026123046875,0.3984375,-296.0,149.0,-150.0,101693.0,-3.064000129699707,0,0
2.370867800011183,0.370941162109375,-0.45025634765625,0.3121337890625,-0.749786376953125,0.3662109375,-0.06103515625,-0.06103515625,0.4442138671875,-0.80078125,0.398681640625,-296.0,149.0,-150.0,101693.0,-3.064000129699707,0,0
2.42805300001055,0.37091064453125,-0.450286865234375,0.3121337890625,-0.749786376953125,0.0,-0.06103515625,-0.06103515625,0.44580078125,-0.802490234375,0.39990234375,-296.0,149.0,-150.0,101693.0,-3.064000129699707,0,0
2.428135800000746,0.37091064453125,-0.450286865234375,0.3121337890625,-0.749786376953125,-0.54931640625,-0.42724609375,-0.18310546875,0.4439697265625,-0.80322265625,0.3995361328125,-296.0,149.0,-150.0,101693.0,-3.064000129699707,0,0
2.428195600004983,0.37091064453125,-0.450286865234375,0.312103271484375,-0.749786376953125,0.244140625,0.0,-0.18310546875,0.446044921875,-0.802490234375,0.400390625,-296.0,149.0,-150.0,101693.0,-3.064000129699707,0,0
2.428263900001184,0.37091064453125,-0.450286865234375,0.312103271484375,-0.749786376953125,-0.244140625,0.06103515625,0.0,0.443115234375,-0.8017578125,0.3994140625,-296.0,149.0,-150.0,101693.0,-3.064000129699707,0,0
2.4291816000040853,0.37091064453125,-0.450286865234375,0.3121337890625,-0.749786376953125,0.30517578125,0.06103515625,-0.1220703125,0.4420166015625,-0.8023681640625,0.3984375,-296.0,149.0,-150.0,101693.0,-3.064000129699707,0,0
2.4292376000084914,0.37091064453125,-0.450286865234375,0.3121337890625,-0.749786376953125,0.1220703125,0.0,0.0,0.443603515625,-0.8023681640625,0.400390625,-296.0,149.0,-150.0,101693.0,-3.064000129699707,0,0
2.42929240000376,0.37091064453125,-0.450286865234375,0.3121337890625,-0.749786376953125,0.0,0.0,-0.18310546875,0.4442138671875,-0.801025390625,0.3988037109375,-296.0,149.0,-150.0,101693.0,-3.064000129699707,0,0
2.4293782000022475,0.3712158203125,-0.450408935546875,0.31195068359375,-0.7496337890625,0.18310546875,0.06103515625,-0.06103515625,0.4443359375,-0.80224609375,0.39697265625,-297.0,148.0,-148.0,101693.0,-3.064000129699707,0,0
2.4294320000044536,0.3712158203125,-0.450408935546875,0.31195068359375,-0.7496337890625,0.1220703125,-0.1220703125,-0.1220703125,0.4432373046875,-0.8026123046875,0.3985595703125,-297.0,148.0,-148.0,101693.0,-3.064000129699707,0,0
2.4294826999976067,0.3712158203125,-0.450408935546875,0.31195068359375,-0.7496337890625,0.1220703125,-0.1220703125,-0.1220703125,0.4432373046875,-0.8026123046875,0.3985595703125,-297.0,148.0,-148.0,101693.0,-3.064000129699707,0,0
2.4295369000028586,0.3712158203125,-0.450408935546875,0.31195068359375,-0.7496337890625,-0.18310546875,-0.18310546875,-0.244140625,0.444091796875,-0.80322265625,0.39990234375,-297.0,148.0,-148.0,101693.0,-3.064000129699707,0,0
2.4973230000032345,0.3712158203125,-0.450408935546875,0.31195068359375,-0.7496337890625,-0.18310546875,-0.18310546875,0.0,0.4449462890625,-0.804931640625,0.39892578125,-297.0,148.0,-148.0,101693.0,-3.064000129699707,0,0
2.4973843000043416,0.3712158203125,-0.450439453125,0.31195068359375,-0.7496337890625,0.244140625,0.18310546875,-0.18310546875,0.4454345703125,-0.8031005859375,0.3983154296875,-297.0,148.0,-148.0,101693.0,-3.064000129699707,0,0
2.4974394000018947,0.3712158203125,-0.450439453125,0.31195068359375,-0.7496337890625,0.0,0.0,-0.06103515625,0.444580078125,-0.8021240234375,0.400146484375,-297.0,148.0,-148.0,101693.0,-3.064000129699707,0,0
2.497512000001734,0.3712158203125,-0.450439453125,0.31195068359375,-0.7496337890625,0.18310546875,0.06103515625,-0.06103515625,0.4429931640625,-0.802734375,0.3990478515625,-297.0,148.0,-148.0,101693.0,-3.064000129699707,0,0
2.4975698000052944,0.3712158203125,-0.450439453125,0.31195068359375,-0.7496337890625,0.18310546875,0.06103515625,-0.06103515625,0.4429931640625,-0.802734375,0.3990478515625,-297.0,148.0,-148.0,101693.0,-3.064000129699707,0,0
2.4976637000072515,0.3712158203125,-0.450439453125,0.31195068359375,-0.7496337890625,-0.06103515625,0.18310546875,0.1220703125,0.4443359375,-0.8023681640625,0.398681640625,-297.0,148.0,-148.0,101693.0,-3.064000129699707,0,0
2.4977356000017608,0.371185302734375,-0.450439453125,0.31195068359375,-0.7496337890625,0.3662109375,-0.06103515625,-0.1220703125,0.44482421875,-0.801025390625,0.3963623046875,-297.0,148.0,-148.0,101693.0,-3.064000129699707,0,0
2.4977900000085356,0.371185302734375,-0.450439453125,0.31195068359375,-0.7496337890625,0.18310546875,-0.18310546875,-0.18310546875,0.4444580078125,-0.80224609375,0.4002685546875,-297.0,148.0,-148.0,101693.0,-3.064000129699707,0,0
2.4978431000054115,0.371185302734375,-0.450439453125,0.31195068359375,-0.7496337890625,0.18310546875,-0.18310546875,-0.18310546875,0.4444580078125,-0.80224609375,0.4002685546875,-297.0,148.0,-148.0,101693.0,-3.064000129699707,0,0
2.4981904000014765,0.371185302734375,-0.450439453125,0.31195068359375,-0.749603271484375,-0.1220703125,-0.18310546875,0.1220703125,0.4442138671875,-0.8017578125,0.3983154296875,-297.0,148.0,-148.0,101693.0,-3.064000129699707,0,0
2.498253800004022,0.371185302734375,-0.450469970703125,0.31195068359375,-0.749603271484375,0.1220703125,0.1220703125,-0.244140625,0.443359375,-0.8026123046875,0.3992919921875,-297.0,148.0,-148.0,101693.0,-3.064000129699707,0,0
2.498328000001493,0.371185302734375,-0.450469970703125,0.31195068359375,-0.749603271484375,0.0,-0.244140625,-0.06103515625,0.44677734375,-0.8018798828125,0.398193359375,-297.0,148.0,-148.0,101693.0,-3.064000129699707,0,0
2.498601500003133,0.371185302734375,-0.450469970703125,0.31195068359375,-0.7496337890625,-0.06103515625,0.0,-0.06103515625,0.445068359375,-0.802978515625,0.3978271484375,-297.0,148.0,-148.0,101693.0,-3.064000129699707,0,0
2.5605795000010403,0.371185302734375,-0.450439453125,0.311981201171875,-0.749603271484375,-0.18310546875,-0.06103515625,-0.06103515625,0.4400634765625,-0.804443359375,0.3984375,-297.0,148.0,-148.0,101693.0,-3.064000129699707,0,0
2.5606470000057016,0.371185302734375,-0.450439453125,0.311981201171875,-0.749603271484375,0.0,-0.244140625,-0.18310546875,0.4410400390625,-0.8016357421875,0.3990478515625,-297.0,148.0,-148.0,101693.0,-3.064000129699707,0,0
2.561003200011328,0.371185302734375,-0.450439453125,0.311981201171875,-0.749603271484375,0.06103515625,-0.3662109375,0.0,0.4427490234375,-0.8017578125,0.3985595703125,-297.0,148.0,-148.0,101693.0,-3.064000129699707,0,0
2.561085200009984,0.371185302734375,-0.450439453125,0.311981201171875,-0.749603271484375,0.06103515625,-0.3662109375,0.0,0.4427490234375,-0.8017578125,0.3985595703125,-297.0,148.0,-148.0,101693.0,-3.064000129699707,0,0
2.561144700011937,0.371490478515625,-0.450592041015625,0.311798095703125,-0.74945068359375,0.0,-0.1220703125,0.18310546875,0.4432373046875,-0.8021240234375,0.3990478515625,-297.0,148.0,-148.0,101693.0,-3.064000129699707,0,0
2.5664076000102796,0.371490478515625,-0.450592041015625,0.311798095703125,-0.74945068359375,0.06103515625,-0.18310546875,-0.1220703125,0.44384765625,-0.8023681640625,0.3985595703125,-297.0,148.0,-148.0,101693.0,-3.064000129699707,0,0
2.5664702000067336,0.371490478515625,-0.450592041015625,0.311798095703125,-0.74945068359375,0.0,-0.06103515625,-0.244140625,0.443115234375,-0.8045654296875,0.3995361328125,-297.0,148.0,-148.0,101693.0,-3.064000129699707,0,0
2.5675253000081284,0.371490478515625,-0.450592041015625,0.311798095703125,-0.74945068359375,-0.1220703125,-0.1220703125,-0.3662109375,0.44384765625,-0.8028564453125,0.3994140625,-297.0,148.0,-148.0,101693.0,-3.064000129699707,0,0
2.567599700007122,0.371490478515625,-0.450592041015625,0.311798095703125,-0.74945068359375,-0.18310546875,-0.244140625,-0.1220703125,0.4456787109375,-0.802734375,0.3980712890625,-297.0,148.0,-148.0,101693.0,-3.064000129699707,0,0
2.567657400009921,0.371490478515625,-0.450592041015625,0.311798095703125,-0.74945068359375,0.1220703125,0.18310546875,-0.06103515625,0.4459228515625,-0.8031005859375,0.3974609375,-297.0,148.0,-148.0,101693.0,-3.064000129699707,0,0
2.567711600000621,0.371490478515625,-0.45062255859375,0.311798095703125,-0.74945068359375,-0.06103515625,0.06103515625,-0.06103515625,0.4449462890625,-0.8033447265625,0.3974609375,-297.0,148.0,-148.0,101693.0,-3.063000202178955,0,0
2.5677642000082415,0.371490478515625,-0.45062255859375,0.311798095703125,-0.74945068359375,0.06103515625,0.06103515625,0.1220703125,0.4444580078125,-0.8038330078125,0.3994140625,-297.0,148.0,-148.0,101693.0,-3.063000202178955,0,0
2.618755900010001,0.3714599609375,-0.45062255859375,0.31182861328125,-0.74945068359375,0.244140625,-0.1220703125,-0.06103515625,0.443359375,-0.803466796875,0.3997802734375,-297.0,148.0,-148.0,101693.0,-3.063000202178955,0,0
2.6188550000078976,0.3714599609375,-0.45062255859375,0.31182861328125,-0.749420166015625,-0.244140625,-0.1220703125,0.0,0.4444580078125,-0.802490234375,0.3970947265625,-297.0,148.0,-148.0,101693.0,-3.063000202178955,0,0
2.6189198000065517,0.3714599609375,-0.45062255859375,0.31182861328125,-0.749420166015625,0.18310546875,-0.1220703125,-0.1220703125,0.4462890625,-0.8046875,0.3995361328125,-297.0,148.0,-148.0,101693.0,-3.063000202178955,0,0
2.6189782000001287,0.3714599609375,-0.45062255859375,0.31182861328125,-0.749420166015625,0.244140625,0.06103515625,0.06103515625,0.44482421875,-0.8021240234375,0.398681640625,-297.0,148.0,-148.0,101693.0,-3.063000202178955,0,0
2.6190359000029275,0.3714599609375,-0.450653076171875,0.31182861328125,-0.749420166015625,0.06103515625,-0.18310546875,-0.244140625,0.4437255859375,-0.8026123046875,0.399169921875,-297.0,148.0,-148.0,101693.0,-3.063000202178955,0,0
2.6211213000060525,0.3714599609375,-0.450653076171875,0.31182861328125,-0.749420166015625,0.0,-0.06103515625,-0.06103515625,0.444580078125,-0.8038330078125,0.3973388671875,-297.0,148.0,-148.0,101693.0,-3.063000202178955,0,0
2.6352354000118794,0.3714599609375,-0.450653076171875,0.31182861328125,-0.749420166015625,0.18310546875,-0.1220703125,-0.06103515625,0.443115234375,-0.802490234375,0.3975830078125,-297.0,148.0,-148.0,101693.0,-3.063000202178955,0,0
2.635309999997844,0.3714599609375,-0.450653076171875,0.31182861328125,-0.749420166015625,-0.06103515625,-0.18310546875,0.30517578125,0.4425048828125,-0.801025390625,0.3975830078125,-297.0,148.0,-148.0,101693.0,-3.063000202178955,0,0
2.6354435000102967,0.3714599609375,-0.450653076171875,0.31182861328125,-0.749420166015625,-0.06103515625,-0.18310546875,0.30517578125,0.4425048828125,-0.801025390625,0.3975830078125,-297.0,148.0,-148.0,101693.0,-3.063000202178955,0,0
2.6355106999981217,0.3714599609375,-0.450653076171875,0.31182861328125,-0.749420166015625,-0.3662109375,-0.18310546875,-0.1220703125,0.443603515625,-0.8023681640625,0.39794921875,-297.0,149.0,-150.0,101693.0,-3.063000202178955,0,0
2.635571400009212,0.3714599609375,-0.450653076171875,0.31182861328125,-0.749420166015625,0.1220703125,-0.06103515625,-0.244140625,0.4434814453125,-0.8026123046875,0.3985595703125,-297.0,149.0,-150.0,101693.0,-3.063000202178955,0,0
2.6894844000053126,0.3714599609375,-0.450653076171875,0.31182861328125,-0.749420166015625,0.06103515625,0.0,-0.06103515625,0.444580078125,-0.802490234375,0.39892578125,-297.0,149.0,-150.0,101693.0,-3.063000202178955,0,0
2.689552299998468,0.3714599609375,-0.45068359375,0.31182861328125,-0.749420166015625,0.0,-0.244140625,-0.48828125,0.444580078125,-0.801513671875,0.3966064453125,-297.0,149.0,-150.0,101693.0,-3.063000202178955,0,0
2.6896089000074426,0.3714599609375,-0.45068359375,0.311859130859375,-0.7493896484375,0.1220703125,-0.18310546875,-0.06103515625,0.4444580078125,-0.803466796875,0.3975830078125,-297.0,149.0,-150.0,101693.0,-3.063000202178955,0,0
2.689667200000258,0.3714599609375,-0.45068359375,0.311859130859375,-0.7493896484375,0.0,-0.18310546875,0.0,0.443115234375,-0.8037109375,0.3997802734375,-297.0,149.0,-150.0,101693.0,-3.063000202178955,0,0
2.689722499999334,0.3714599609375,-0.45068359375,0.311859130859375,-0.7493896484375,-0.06103515625,0.0,-0.3662109375,0.4423828125,-0.8048095703125,0.3974609375,-297.0,149.0,-150.0,101693.0,-3.063000202178955,0,0
2.689777400009916,0.3714599609375,-0.45068359375,0.311859130859375,-0.7493896484375,-0.06103515625,-0.1220703125,-0.244140625,0.4444580078125,-0.8035888671875,0.3968505859375,-297.0,149.0,-150.0,101693.0,-3.063000202178955,0,0
2.6898522000119556,0.3714599609375,-0.45068359375,0.311859130859375,-0.7493896484375,0.06103515625,0.18310546875,-0.06103515625,0.4443359375,-0.8043212890625,0.39599609375,-297.0,149.0,-150.0,101693.0,-3.065000057220459,0,0
2.6899075000110315,0.3714599609375,-0.45068359375,0.311859130859375,-0.7493896484375,0.06103515625,0.18310546875,-0.06103515625,0.4443359375,-0.8043212890625,0.39599609375,-297.0,149.0,-150.0,101693.0,-3.065000057220459,0,0
2.6899604000063846,0.3714599609375,-0.45068359375,0.3118896484375,-0.7493896484375,-0.3662109375,0.0,-0.1220703125,0.44384765625,-0.8037109375,0.3984375,-297.0,149.0,-150.0,101693.0,-3.065000057220459,0,0
2.6900147999986075,0.3714599609375,-0.450714111328125,0.3118896484375,-0.7493896484375,0.06103515625,-0.18310546875,0.0,0.4447021484375,-0.801513671875,0.3980712890625,-297.0,149.0,-150.0,101693.0,-3.065000057220459,0,0
2.690066900002421,0.3714599609375,-0.450714111328125,0.3118896484375,-0.7493896484375,0.0,-0.06103515625,-0.244140625,0.4437255859375,-0.8033447265625,0.3978271484375,-297.0,149.0,-150.0,101693.0,-3.065000057220459,0,0
2.6901191000069957,0.3714599609375,-0.450714111328125,0.3118896484375,-0.7493896484375,0.06103515625,-0.1220703125,0.06103515625,0.44287109375,-0.8011474609375,0.3994140625,-297.0,149.0,-150.0,101693.0,-3.065000057220459,0,0
2.6901719000015873,0.3714599609375,-0.450714111328125,0.3118896484375,-0.7493896484375,0.1220703125,-0.1220703125,0.06103515625,0.4437255859375,-0.802734375,0.3988037109375,-297.0,149.0,-150.0,101693.0,-3.065000057220459,0,0
2.7554892000043765,0.371429443359375,-0.450714111328125,0.3118896484375,-0.7493896484375,0.06103515625,0.18310546875,0.18310546875,0.446044921875,-0.801513671875,0.3994140625,-297.0,149.0,-150.0,101693.0,-3.065000057220459,0,0
2.7555512000108138,0.371429443359375,-0.450714111328125,0.3118896484375,-0.7493896484375,0.06103515625,0.18310546875,0.18310546875,0.446044921875,-0.801513671875,0.3994140625,-297.0,149.0,-150.0,101693.0,-3.065000057220459,0,0
2.7556065000098897,0.371429443359375,-0.450714111328125,0.3118896484375,-0.749359130859375,-0.18310546875,-0.1220703125,-0.18310546875,0.4451904296875,-0.803466796875,0.3990478515625,-297.0,149.0,-150.0,101693.0,-3.065000057220459,0,0
2.7556591000029584,0.371429443359375,-0.450714111328125,0.3118896484375,-0.749359130859375,0.18310546875,-0.1220703125,-0.244140625,0.445068359375,-0.80322265625,0.3970947265625,-296.0,149.0,-151.0,101693.0,-3.065000057220459,0,0
2.7587887000117917,0.371337890625,-0.45068359375,0.311920166015625,-0.749420166015625,-0.06103515625,-0.06103515625,-0.244140625,0.4444580078125,-0.802734375,0.3997802734375,-296.0,149.0,-151.0,101693.0,-3.065000057220459,0,0
2.7588475000084145,0.371337890625,-0.45068359375,0.311920166015625,-0.749420166015625,0.06103515625,0.0,0.0,0.445068359375,-0.8017578125,0.3980712890625,-296.0,149.0,-151.0,101693.0,-3.065000057220459,0,0
2.7589011000090977,0.371337890625,-0.45068359375,0.311920166015625,-0.749420166015625,-0.06103515625,-0.244140625,0.06103515625,0.4444580078125,-0.8013916015625,0.39794921875,-296.0,149.0,-151.0,101693.0,-3.065000057220459,0,0
2.758954300006735,0.371337890625,-0.45068359375,0.311920166015625,-0.749420166015625,-0.18310546875,-0.06103515625,0.06103515625,0.442138671875,-0.801513671875,0.398193359375,-296.0,149.0,-151.0,101693.0,-3.065000057220459,0,0
2.75900650001131,0.371337890625,-0.45068359375,0.311920166015625,-0.749420166015625,0.18310546875,-0.06103515625,0.06103515625,0.44384765625,-0.8040771484375,0.3995361328125,-296.0,149.0,-151.0,101693.0,-3.065000057220459,0,0
2.7590590000036173,0.371337890625,-0.45068359375,0.311920166015625,-0.749420166015625,0.0,0.06103515625,0.18310546875,0.4443359375,-0.802001953125,0.399658203125,-296.0,149.0,-151.0,101693.0,-3.065000057220459,0,0
2.759111200008192,0.371337890625,-0.45068359375,0.311920166015625,-0.749420166015625,0.18310546875,-0.1220703125,0.0,0.4437255859375,-0.8021240234375,0.398681640625,-296.0,149.0,-151.0,101693.0,-3.062000036239624,0,0
2.826060500010499,0.371337890625,-0.450714111328125,0.31195068359375,-0.749420166015625,0.18310546875,0.06103515625,0.18310546875,0.4443359375,-0.8031005859375,0.398681640625,-296.0,149.0,-151.0,101693.0,-3.062000036239624,0,0
2.826133499998832,0.371307373046875,-0.450714111328125,0.31195068359375,-0.749420166015625,0.0,0.06103515625,-0.18310546875,0.4453125,-0.8018798828125,0.39794921875,-296.0,149.0,-151.0,101693.0,-3.062000036239624,0,0
2.826190799998585,0.371307373046875,-0.450714111328125,0.31195068359375,-0.749420166015625,-0.244140625,-0.1220703125,0.1220703125,0.44189453125,-0.801513671875,0.3984375,-296.0,149.0,-151.0,101693.0,-3.062000036239624,0,0
2.826245400006883,0.371307373046875,-0.450714111328125,0.31195068359375,-0.749420166015625,-0.18310546875,-0.06103515625,0.0,0.445068359375,-0.802001953125,0.3990478515625,-296.0,149.0,-151.0,101693.0,-3.062000036239624,0,0
2.8262995000113733,0.371307373046875,-0.450714111328125,0.31195068359375,-0.749420166015625,-0.244140625,0.1220703125,0.0,0.443603515625,-0.804443359375,0.396484375,-296.0,149.0,-151.0,101693.0,-3.062000036239624,0,0
2.8263727000012295,0.371307373046875,-0.450714111328125,0.31195068359375,-0.7493896484375,0.0,-0.244140625,0.1220703125,0.444091796875,-0.8043212890625,0.39794921875,-296.0,149.0,-151.0,101693.0,-3.062000036239624,0,0
2.826425500010373,0.371307373046875,-0.450714111328125,0.31195068359375,-0.7493896484375,0.0,-0.30517578125,-0.06103515625,0.443603515625,-0.802490234375,0.3988037109375,-296.0,149.0,-151.0,101693.0,-3.062000036239624,0,0
2.8264782000042032,0.371307373046875,-0.450714111328125,0.31195068359375,-0.7493896484375,0.0,-0.30517578125,-0.06103515625,0.443603515625,-0.802490234375,0.3988037109375,-296.0,149.0,-151.0,101693.0,-3.062000036239624,0,0
2.8265296000026865,0.371307373046875,-0.45074462890625,0.31195068359375,-0.7493896484375,0.0,-0.42724609375,0.18310546875,0.4453125,-0.80224609375,0.396728515625,-296.0,149.0,-151.0,101693.0,-3.062000036239624,0,0
2.8265803000103915,0.371307373046875,-0.45074462890625,0.31195068359375,-0.7493896484375,0.0,0.06103515625,-0.18310546875,0.445068359375,-0.8026123046875,0.3961181640625,-296.0,149.0,-151.0,101693.0,-3.062000036239624,0,0
2.8266327000019373,0.371307373046875,-0.45074462890625,0.31195068359375,-0.7493896484375,0.0,0.06103515625,-0.18310546875,0.445068359375,-0.8026123046875,0.3961181640625,-296.0,149.0,-150.0,101693.0,-3.062000036239624,0,0
2.877682200007257,0.371307373046875,-0.45074462890625,0.31195068359375,-0.7493896484375,-0.1220703125,0.1220703125,-0.06103515625,0.4451904296875,-0.80078125,0.3984375,-296.0,149.0,-150.0,101693.0,-3.062000036239624,0,0
2.8777535000117496,0.371307373046875,-0.45074462890625,0.31195068359375,-0.7493896484375,0.0,-0.18310546875,-0.1220703125,0.4442138671875,-0.8035888671875,0.3990478515625,-296.0,149.0,-150.0,101693.0,-3.062000036239624,0,0
2.8778105000092182,0.371307373046875,-0.45074462890625,0.31195068359375,-0.7493896484375,-0.18310546875,0.06103515625,-0.244140625,0.443115234375,-0.8031005859375,0.3983154296875,-296.0,149.0,-150.0,101693.0,-3.062000036239624,0,0
2.8778689000027953,0.371307373046875,-0.45074462890625,0.31195068359375,-0.7493896484375,-0.1220703125,0.1220703125,0.06103515625,0.4447021484375,-0.8018798828125,0.399169921875,-296.0,149.0,-150.0,101693.0,-3.062000036239624,0,0
2.8779273000109242,0.371307373046875,-0.45074462890625,0.31195068359375,-0.7493896484375,-0.06103515625,-0.1220703125,-0.244140625,0.4443359375,-0.8023681640625,0.39794921875,-296.0,149.0,-150.0,101693.0,-3.062000036239624,0,0
2.8779828999977326,0.371307373046875,-0.45074462890625,0.31195068359375,-0.7493896484375,-0.244140625,0.0,-0.1220703125,0.44384765625,-0.8026123046875,0.398681640625,-296.0,149.0,-150.0,101693.0,-3.062000036239624,0,0
2.8781459000019822,0.371307373046875,-0.45074462890625,0.31195068359375,-0.7493896484375,-0.244140625,0.0,-0.1220703125,0.44384765625,-0.8026123046875,0.398681640625,-296.0,149.0,-150.0,101693.0,-3.062000036239624,0,0
2.8782013000018196,0.371307373046875,-0.45074462890625,0.31195068359375,-0.7493896484375,0.244140625,0.0,-0.1220703125,0.443115234375,-0.8016357421875,0.398681640625,-296.0,149.0,-150.0,101693.0,-3.065000057220459,0,0
