Time stamp(sec),quaternion_0,quaternion_1,quaternion_2,quaternion_3,roll_angular_rate,pitch_angular_rate,yaw_angular_rate,acc_X,acc_Y,acc_Z,mag_X,mag_Y,mag_Z,pressure,altitude
2557.478037,0.05572509765625,0.195404052734375,0.978912353515625,-0.019805908203125,-0.1220703125,-2.25830078125,5.55419921875,-0.1337890625,-0.0194091796875,-0.9744873046875,46.0,13.0,349.0,101920.0,-4.946000099182129,0,0
2557.485021,0.055999755859375,0.196044921875,0.978759765625,-0.019866943359375,0.42724609375,-3.23486328125,6.34765625,-0.109375,-0.0157470703125,-0.99169921875,46.0,13.0,349.0,101920.0,-4.946000099182129,0,0
2557.492001,0.05615234375,0.196258544921875,0.978729248046875,-0.0198974609375,0.8544921875,-4.638671875,6.4697265625,-0.1102294921875,-0.013427734375,-0.9967041015625,46.0,13.0,349.0,101920.0,-4.946000099182129,0,0
2557.499015,0.056793212890625,0.1968994140625,0.978546142578125,-0.02008056640625,1.3427734375,-6.04248046875,6.16455078125,-0.1302490234375,-0.017333984375,-0.99462890625,46.0,13.0,349.0,101920.0,-4.946000099182129,0,0
2557.505999,0.057037353515625,0.197113037109375,0.978485107421875,-0.02020263671875,1.220703125,-5.615234375,5.7373046875,-0.138427734375,-0.0225830078125,-0.988037109375,46.0,13.0,349.0,101920.0,-4.946000099182129,0,0
2557.512998,0.057464599609375,0.19744873046875,0.9783935546875,-0.02032470703125,0.8544921875,-4.57763671875,5.37109375,-0.1414794921875,-0.02392578125,-0.98486328125,46.0,13.0,349.0,101920.0,-4.946000099182129,0,0
2557.520023,0.057861328125,0.19775390625,0.978302001953125,-0.020416259765625,0.1220703125,-2.44140625,3.7841796875,-0.151123046875,-0.014892578125,-0.984619140625,46.0,13.0,349.0,101920.0,-4.946000099182129,0,0
2557.527002,0.05810546875,0.19793701171875,0.978271484375,-0.02044677734375,0.244140625,-1.3427734375,3.173828125,-0.150390625,-0.0137939453125,-0.97900390625,46.0,13.0,349.0,101920.0,-4.946000099182129,0,0
2557.534018,0.058135986328125,0.197998046875,0.978240966796875,-0.02044677734375,0.48828125,1.3427734375,1.953125,-0.1475830078125,-0.01220703125,-0.97412109375,46.0,13.0,349.0,101920.0,-4.946000099182129,0,0
2557.540996,0.05810546875,0.198089599609375,0.978240966796875,-0.020416259765625,0.48828125,2.25830078125,0.79345703125,-0.1339111328125,-0.0020751953125,-0.9862060546875,46.0,13.0,349.0,101920.0,-4.945000171661377,0,0
2557.547996,0.05804443359375,0.1981201171875,0.978240966796875,-0.020355224609375,0.67138671875,2.9296875,0.1220703125,-0.128173828125,0.000732421875,-0.9825439453125,47.0,14.0,349.0,101920.0,-4.945000171661377,0,0
2557.55502,0.057830810546875,0.19775390625,0.978302001953125,-0.020233154296875,0.732421875,3.11279296875,-1.03759765625,-0.1171875,0.007080078125,-0.98681640625,47.0,14.0,349.0,101920.0,-4.945000171661377,0,0
2557.562004,0.0576171875,0.197662353515625,0.978363037109375,-0.02008056640625,0.6103515625,2.9296875,-2.01416015625,-0.111083984375,0.0106201171875,-0.9835205078125,47.0,14.0,349.0,101920.0,-4.945000171661377,0,0
2557.568037,0.0576171875,0.197662353515625,0.978363037109375,-0.02008056640625,0.6103515625,2.9296875,-2.01416015625,-0.111083984375,0.0106201171875,-0.9835205078125,47.0,14.0,349.0,101920.0,-4.945000171661377,0,0
2557.575021,0.05731201171875,0.197418212890625,0.978424072265625,-0.019805908203125,0.42724609375,2.8076171875,-2.74658203125,-0.1083984375,0.0174560546875,-0.9803466796875,47.0,14.0,349.0,101920.0,-4.945000171661377,0,0
2557.582001,0.057037353515625,0.197113037109375,0.978515625,-0.019500732421875,0.244140625,2.62451171875,-3.35693359375,-0.1121826171875,0.020263671875,-0.97216796875,47.0,14.0,349.0,101920.0,-4.945000171661377,0,0
2557.589015,0.056976318359375,0.197021484375,0.978515625,-0.019439697265625,0.91552734375,2.99072265625,-3.0517578125,-0.11962890625,0.0067138671875,-0.9642333984375,47.0,14.0,349.0,101920.0,-4.945000171661377,0,0
2557.595994,0.056884765625,0.196929931640625,0.978546142578125,-0.019439697265625,1.0986328125,3.0517578125,-3.11279296875,-0.1241455078125,0.0015869140625,-0.96044921875,47.0,14.0,349.0,101920.0,-4.945000171661377,0,0
2557.602998,0.056671142578125,0.1966552734375,0.978607177734375,-0.019500732421875,1.708984375,3.35693359375,-2.685546875,-0.1290283203125,-0.005859375,-0.9610595703125,47.0,14.0,349.0,101920.0,-4.945000171661377,0,0
2557.610018,0.056610107421875,0.19659423828125,0.9786376953125,-0.019561767578125,1.8310546875,2.74658203125,-2.38037109375,-0.1279296875,-0.017578125,-0.966064453125,47.0,14.0,349.0,101920.0,-4.945000171661377,0,0
2557.617002,0.056396484375,0.196441650390625,0.978668212890625,-0.019866943359375,1.89208984375,2.44140625,-1.8310546875,-0.1307373046875,-0.02685546875,-0.964111328125,47.0,14.0,349.0,101920.0,-4.945000171661377,0,0
2557.624018,0.0562744140625,0.196441650390625,0.978668212890625,-0.019989013671875,2.0751953125,2.5634765625,-0.54931640625,-0.1181640625,-0.03857421875,-0.96240234375,47.0,14.0,349.0,101920.0,-4.945000171661377,0,0
2557.630996,0.056182861328125,0.196441650390625,0.978668212890625,-0.020111083984375,1.77001953125,2.38037109375,0.0,-0.1153564453125,-0.0391845703125,-0.9630126953125,47.0,14.0,349.0,101920.0,-4.945000171661377,0,0
2557.652004,0.055877685546875,0.19775390625,0.978424072265625,-0.020782470703125,2.8076171875,0.6103515625,2.8076171875,-0.1044921875,-0.0321044921875,-0.9564208984375,47.0,13.0,347.0,101920.0,-4.946000099182129,0,0
2557.659018,0.055694580078125,0.1981201171875,0.97833251953125,-0.021148681640625,3.173828125,0.6103515625,3.47900390625,-0.1060791015625,-0.0341796875,-0.9500732421875,47.0,13.0,347.0,101920.0,-4.946000099182129,0,0
2557.665052,0.055694580078125,0.1981201171875,0.97833251953125,-0.021148681640625,3.173828125,0.6103515625,3.47900390625,-0.1060791015625,-0.0341796875,-0.9500732421875,47.0,13.0,347.0,101920.0,-4.946000099182129,0,0
2557.672001,0.05572509765625,0.1986083984375,0.978240966796875,-0.021514892578125,3.173828125,-0.91552734375,4.33349609375,-0.1103515625,-0.024169921875,-0.960205078125,47.0,13.0,347.0,101920.0,-4.946000099182129,0,0
2557.679015,0.055816650390625,0.198944091796875,0.9781494140625,-0.02191162109375,4.150390625,-2.38037109375,5.0048828125,-0.1104736328125,-0.0411376953125,-0.9510498046875,47.0,13.0,347.0,101920.0,-4.946000099182129,0,0
2557.685994,0.05584716796875,0.1990966796875,0.978118896484375,-0.022125244140625,4.2724609375,-2.8076171875,5.0048828125,-0.107666015625,-0.0421142578125,-0.956298828125,47.0,13.0,347.0,101920.0,-4.946000099182129,0,0
2557.692998,0.056060791015625,0.199432373046875,0.97802734375,-0.0225830078125,3.84521484375,-3.72314453125,4.69970703125,-0.11279296875,-0.0413818359375,-0.9630126953125,47.0,13.0,347.0,101920.0,-4.946000099182129,0,0
2557.700018,0.0562744140625,0.19970703125,0.977935791015625,-0.02301025390625,3.662109375,-3.2958984375,4.21142578125,-0.120849609375,-0.044677734375,-0.969482421875,47.0,13.0,347.0,101920.0,-4.946000099182129,0,0
2557.707002,0.056396484375,0.199981689453125,0.977874755859375,-0.02337646484375,3.41796875,-2.9296875,3.7841796875,-0.1156005859375,-0.0460205078125,-0.9703369140625,47.0,13.0,347.0,101920.0,-4.946000099182129,0,0
2557.714018,0.056427001953125,0.2000732421875,0.97784423828125,-0.02349853515625,1.89208984375,-2.3193359375,3.2958984375,-0.1103515625,-0.04345703125,-0.97802734375,47.0,13.0,347.0,101920.0,-4.946000099182129,0,0
2557.73502,0.0567626953125,0.200408935546875,0.977752685546875,-0.023834228515625,-0.06103515625,-1.0986328125,1.28173828125,-0.1251220703125,-0.0238037109375,-0.9876708984375,47.0,13.0,347.0,101920.0,-4.946000099182129,0,0
2557.742004,0.056915283203125,0.200439453125,0.977752685546875,-0.023773193359375,-0.48828125,-1.77001953125,-0.06103515625,-0.1246337890625,-0.0167236328125,-0.992431640625,48.0,13.0,348.0,101920.0,-4.945000171661377,0,0
2557.749018,0.05712890625,0.199310302734375,0.97796630859375,-0.023681640625,-0.42724609375,-1.64794921875,-0.30517578125,-0.1300048828125,-0.01513671875,-0.9884033203125,48.0,13.0,348.0,101920.0,-4.945000171661377,0,0
2557.755052,0.05712890625,0.199310302734375,0.97796630859375,-0.023681640625,-0.42724609375,-1.64794921875,-0.30517578125,-0.1300048828125,-0.01513671875,-0.9884033203125,48.0,13.0,348.0,101920.0,-4.945000171661377,0,0
2557.762001,0.057220458984375,0.199188232421875,0.977996826171875,-0.023681640625,-0.244140625,1.03759765625,-1.8310546875,-0.1319580078125,-0.01904296875,-0.9664306640625,48.0,13.0,348.0,101920.0,-4.945000171661377,0,0
2557.769015,0.05718994140625,0.19903564453125,0.97802734375,-0.0235595703125,-0.3662109375,1.64794921875,-2.38037109375,-0.1220703125,-0.008056640625,-0.9754638671875,48.0,13.0,348.0,101920.0,-4.945000171661377,0,0
2557.775999,0.05712890625,0.198944091796875,0.97802734375,-0.02349853515625,-0.48828125,2.01416015625,-2.74658203125,-0.1180419921875,-0.0050048828125,-0.972412109375,48.0,13.0,348.0,101920.0,-4.945000171661377,0,0
2557.782998,0.056671142578125,0.198638916015625,0.9781494140625,-0.023162841796875,-0.732421875,3.35693359375,-3.173828125,-0.09912109375,-0.0032958984375,-0.9669189453125,48.0,13.0,348.0,101920.0,-4.945000171661377,0,0
2557.790023,0.05645751953125,0.198516845703125,0.978179931640625,-0.0230712890625,-0.54931640625,3.5400390625,-3.60107421875,-0.0748291015625,-0.0028076171875,-0.97314453125,48.0,13.0,348.0,101920.0,-4.945000171661377,0,0
2557.797002,0.056243896484375,0.198394775390625,0.97821044921875,-0.02294921875,-0.67138671875,2.86865234375,-3.84521484375,-0.07373046875,-0.0057373046875,-0.9747314453125,48.0,13.0,348.0,101920.0,-4.945000171661377,0,0
2557.804018,0.055816650390625,0.197998046875,0.97833251953125,-0.022613525390625,-0.91552734375,0.79345703125,-3.5400390625,-0.0777587890625,-0.005859375,-0.9761962890625,48.0,13.0,348.0,101920.0,-4.945000171661377,0,0
2557.810996,0.055694580078125,0.1978759765625,0.978363037109375,-0.02252197265625,-1.28173828125,0.6103515625,-3.662109375,-0.080322265625,-0.007080078125,-0.9722900390625,48.0,13.0,348.0,101920.0,-4.945000171661377,0,0
2557.817996,0.055450439453125,0.197540283203125,0.97845458984375,-0.02215576171875,-1.40380859375,0.48828125,-3.35693359375,-0.0780029296875,-0.0087890625,-0.969970703125,48.0,13.0,348.0,101920.0,-4.945000171661377,0,0
2557.82502,0.055389404296875,0.19744873046875,0.978485107421875,-0.02203369140625,-2.50244140625,-0.42724609375,-2.685546875,-0.0830078125,-0.0054931640625,-0.961669921875,48.0,13.0,348.0,101920.0,-4.945000171661377,0,0
2557.832004,0.055419921875,0.197296142578125,0.978515625,-0.021697998046875,-3.0517578125,-0.30517578125,-2.197265625,-0.0927734375,-0.0020751953125,-0.958740234375,48.0,13.0,348.0,101920.0,-4.945000171661377,0,0
2557.839018,0.0555419921875,0.197235107421875,0.978515625,-0.02142333984375,-3.173828125,-0.6103515625,-0.79345703125,-0.1199951171875,-0.0052490234375,-0.9617919921875,48.0,13.0,348.0,101920.0,-4.945000171661377,0,0
2557.845998,0.055633544921875,0.197235107421875,0.978515625,-0.02130126953125,-2.86865234375,-0.54931640625,-0.1220703125,-0.1259765625,-0.0084228515625,-0.9571533203125,48.0,14.0,348.0,101920.0,-4.946000099182129,0,0
2557.852031,0.055633544921875,0.197235107421875,0.978515625,-0.02130126953125,-2.86865234375,-0.54931640625,-0.1220703125,-0.1259765625,-0.0084228515625,-0.9571533203125,48.0,14.0,348.0,101920.0,-4.946000099182129,0,0
2557.859015,0.05615234375,0.197906494140625,0.978363037109375,-0.020965576171875,-2.44140625,-0.8544921875,1.3427734375,-0.1343994140625,-0.012451171875,-0.9605712890625,48.0,14.0,348.0,101920.0,-4.946000099182129,0,0
2557.865999,0.05633544921875,0.197998046875,0.97833251953125,-0.0208740234375,-2.01416015625,-2.13623046875,3.11279296875,-0.146728515625,-0.0067138671875,-0.9732666015625,48.0,14.0,348.0,101920.0,-4.946000099182129,0,0
2557.872998,0.05670166015625,0.1982421875,0.978271484375,-0.020843505859375,-1.52587890625,-2.25830078125,3.35693359375,-0.1453857421875,-0.0113525390625,-0.974609375,48.0,14.0,348.0,101920.0,-4.946000099182129,0,0
2557.880018,0.057098388671875,0.198577880859375,0.978179931640625,-0.020965576171875,0.30517578125,-3.2958984375,5.18798828125,-0.1458740234375,-0.039794921875,-0.9759521484375,48.0,14.0,348.0,101920.0,-4.946000099182129,0,0
2557.887002,0.057403564453125,0.198974609375,0.97808837890625,-0.021240234375,0.732421875,-2.9296875,5.55419921875,-0.1441650390625,-0.047607421875,-0.9727783203125,48.0,14.0,348.0,101920.0,-4.946000099182129,0,0
2557.907995,0.058258056640625,0.2001953125,0.977752685546875,-0.022003173828125,-0.3662109375,-2.38037109375,7.9345703125,-0.1571044921875,-0.0679931640625,-0.9791259765625,48.0,14.0,348.0,101920.0,-4.946000099182129,0,0
2557.915016,0.058441162109375,0.200469970703125,0.977691650390625,-0.0220947265625,-1.46484375,-1.64794921875,8.1787109375,-0.1644287109375,-0.0623779296875,-0.982666015625,48.0,14.0,348.0,101920.0,-4.946000099182129,0,0
2557.922004,0.058929443359375,0.201263427734375,0.97747802734375,-0.022216796875,-2.01416015625,-0.48828125,8.1787109375,-0.1700439453125,-0.04833984375,-0.9803466796875,48.0,14.0,348.0,101920.0,-4.946000099182129,0,0
2557.929019,0.05908203125,0.2015380859375,0.9774169921875,-0.022216796875,-1.52587890625,0.244140625,7.75146484375,-0.172119140625,-0.0325927734375,-0.985107421875,48.0,14.0,348.0,101920.0,-4.946000099182129,0,0
2557.935998,0.059234619140625,0.2017822265625,0.97735595703125,-0.022216796875,-0.8544921875,0.67138671875,7.38525390625,-0.1717529296875,-0.0250244140625,-0.9842529296875,48.0,14.0,348.0,101920.0,-4.946000099182129,0,0
2557.942026,0.059234619140625,0.2017822265625,0.97735595703125,-0.022216796875,-0.8544921875,0.67138671875,7.38525390625,-0.1717529296875,-0.0250244140625,-0.9842529296875,48.0,14.0,348.0,101920.0,-4.946000099182129,0,0
2557.949015,0.059539794921875,0.201141357421875,0.97747802734375,-0.022064208984375,0.732421875,1.953125,6.103515625,-0.1622314453125,-0.0064697265625,-0.9832763671875,47.0,13.0,347.0,101920.0,-4.945000171661377,0,0
2557.955994,0.05950927734375,0.2012939453125,0.977447509765625,-0.022064208984375,1.28173828125,3.11279296875,4.5166015625,-0.1507568359375,-0.0048828125,-0.9752197265625,47.0,13.0,347.0,101920.0,-4.945000171661377,0,0
2557.962998,0.05914306640625,0.20166015625,0.977386474609375,-0.022064208984375,2.38037109375,5.0048828125,3.11279296875,-0.1353759765625,-0.0037841796875,-0.9698486328125,47.0,13.0,347.0,101920.0,-4.945000171661377,0,0
2557.970018,0.0589599609375,0.201751708984375,0.977386474609375,-0.022064208984375,2.197265625,4.150390625,1.89208984375,-0.1044921875,-0.0040283203125,-0.982666015625,47.0,13.0,347.0,101920.0,-4.945000171661377,0,0
2557.977002,0.05877685546875,0.2017822265625,0.977386474609375,-0.022064208984375,1.89208984375,3.662109375,0.79345703125,-0.097900390625,-0.0091552734375,-0.9781494140625,47.0,13.0,347.0,101920.0,-4.945000171661377,0,0
2557.997995,0.05755615234375,0.201416015625,0.9775390625,-0.0220947265625,0.6103515625,1.0986328125,-2.0751953125,-0.0750732421875,-0.0274658203125,-0.96142578125,47.0,13.0,347.0,101920.0,-4.945000171661377,0,0
2558.005016,0.0574951171875,0.2012939453125,0.977569580078125,-0.022064208984375,-0.67138671875,-0.06103515625,-4.0283203125,-0.087890625,-0.019287109375,-0.957275390625,47.0,13.0,347.0,101920.0,-4.945000171661377,0,0
2558.012004,0.05743408203125,0.201141357421875,0.97760009765625,-0.02203369140625,-1.15966796875,0.1220703125,-4.39453125,-0.0966796875,-0.0196533203125,-0.9564208984375,47.0,13.0,347.0,101920.0,-4.945000171661377,0,0
2558.019018,0.05718994140625,0.200592041015625,0.977752685546875,-0.021881103515625,-0.6103515625,2.13623046875,-5.615234375,-0.1007080078125,-0.003173828125,-0.95654296875,47.0,13.0,347.0,101920.0,-4.945000171661377,0,0
2558.025998,0.057098388671875,0.200408935546875,0.977783203125,-0.021728515625,-1.28173828125,2.3193359375,-6.103515625,-0.104736328125,0.0068359375,-0.96142578125,47.0,13.0,347.0,101920.0,-4.945000171661377,0,0
2558.032998,0.0570068359375,0.199981689453125,0.977874755859375,-0.021514892578125,-0.9765625,1.77001953125,-6.34765625,-0.107177734375,0.01171875,-0.96533203125,47.0,13.0,347.0,101920.0,-4.945000171661377,0,0
2558.03903,0.0570068359375,0.199981689453125,0.977874755859375,-0.021514892578125,-0.9765625,1.77001953125,-6.34765625,-0.107177734375,0.01171875,-0.96533203125,47.0,13.0,347.0,101920.0,-4.945000171661377,0,0
2558.045994,0.056793212890625,0.199371337890625,0.97802734375,-0.0213623046875,1.15966796875,3.0517578125,-6.16455078125,-0.1199951171875,0.0098876953125,-0.962646484375,47.0,12.0,347.0,101920.0,-4.946000099182129,0,0
2558.052998,0.056732177734375,0.199432373046875,0.97802734375,-0.021331787109375,1.3427734375,2.5634765625,-5.4931640625,-0.11669921875,0.0079345703125,-0.9669189453125,47.0,12.0,347.0,101920.0,-4.946000099182129,0,0
2558.060018,0.056549072265625,0.198883056640625,0.9781494140625,-0.021392822265625,2.197265625,1.46484375,-5.126953125,-0.112060546875,-0.0120849609375,-0.9547119140625,47.0,12.0,347.0,101920.0,-4.946000099182129,0,0
2558.067002,0.056427001953125,0.198760986328125,0.978179931640625,-0.021453857421875,2.50244140625,1.89208984375,-4.2724609375,-0.1068115234375,-0.0185546875,-0.9500732421875,47.0,12.0,347.0,101920.0,-4.946000099182129,0,0
2558.115998,0.0565185546875,0.19891357421875,0.97808837890625,-0.023529052734375,0.8544921875,-0.18310546875,3.90625,-0.1334228515625,-0.06201171875,-0.952392578125,47.0,12.0,347.0,101920.0,-4.946000099182129,0,0
2558.122998,0.056610107421875,0.199371337890625,0.97796630859375,-0.0238037109375,0.1220703125,-0.244140625,4.7607421875,-0.1280517578125,-0.0528564453125,-0.97265625,47.0,12.0,347.0,101920.0,-4.946000099182129,0,0
2558.129031,0.056610107421875,0.199371337890625,0.97796630859375,-0.0238037109375,0.1220703125,-0.244140625,4.7607421875,-0.1280517578125,-0.0528564453125,-0.97265625,47.0,12.0,347.0,101920.0,-4.946000099182129,0,0
2558.135999,0.056640625,0.19976806640625,0.9779052734375,-0.02386474609375,0.30517578125,-0.18310546875,5.55419921875,-0.1187744140625,-0.03076171875,-0.9820556640625,47.0,12.0,347.0,101920.0,-4.946000099182129,0,0
2558.142998,0.056671142578125,0.20013427734375,0.977813720703125,-0.023895263671875,0.67138671875,-0.91552734375,5.31005859375,-0.113525390625,-0.0260009765625,-0.990234375,48.0,11.0,349.0,101920.0,-4.947000026702881,0,0
2558.150023,0.056549072265625,0.2041015625,0.97698974609375,-0.024169921875,0.8544921875,-0.91552734375,5.18798828125,-0.1080322265625,-0.0284423828125,-0.98486328125,48.0,11.0,349.0,101920.0,-4.947000026702881,0,0
2558.170996,0.056427001953125,0.2047119140625,0.97686767578125,-0.024169921875,0.91552734375,-1.5869140625,2.38037109375,-0.0980224609375,-0.0091552734375,-0.9935302734375,48.0,11.0,349.0,101920.0,-4.947000026702881,0,0
2558.177995,0.056488037109375,0.204925537109375,0.976837158203125,-0.024017333984375,0.244140625,-1.52587890625,2.3193359375,-0.100341796875,-0.00927734375,-0.9879150390625,48.0,11.0,349.0,101920.0,-4.947000026702881,0,0
2558.18502,0.0565185546875,0.204925537109375,0.976837158203125,-0.02398681640625,-0.54931640625,-2.197265625,0.79345703125,-0.100830078125,-0.01123046875,-0.983642578125,48.0,11.0,349.0,101920.0,-4.947000026702881,0,0
2558.192004,0.056549072265625,0.2049560546875,0.976837158203125,-0.02392578125,-0.732421875,-1.64794921875,0.244140625,-0.099365234375,-0.009521484375,-0.9796142578125,48.0,11.0,349.0,101920.0,-4.947000026702881,0,0
2558.199018,0.05657958984375,0.204803466796875,0.97686767578125,-0.023681640625,-0.79345703125,-1.40380859375,-0.732421875,-0.09765625,-0.0089111328125,-0.977294921875,48.0,11.0,349.0,101920.0,-4.947000026702881,0,0
2558.205998,0.05657958984375,0.204742431640625,0.97686767578125,-0.0235595703125,-1.5869140625,-0.30517578125,-2.50244140625,-0.100341796875,-0.0028076171875,-0.9730224609375,48.0,11.0,349.0,101920.0,-4.947000026702881,0,0
2558.212997,0.056488037109375,0.204498291015625,0.9769287109375,-0.023284912109375,-1.89208984375,0.18310546875,-3.23486328125,-0.0975341796875,-0.0010986328125,-0.9744873046875,48.0,11.0,349.0,101920.0,-4.947000026702881,0,0
2558.220018,0.05645751953125,0.204132080078125,0.977020263671875,-0.022979736328125,-2.38037109375,0.1220703125,-5.43212890625,-0.1019287109375,0.0062255859375,-0.98095703125,48.0,11.0,349.0,101920.0,-4.947000026702881,0,0
2558.22605,0.05645751953125,0.204132080078125,0.977020263671875,-0.022979736328125,-2.38037109375,0.1220703125,-5.43212890625,-0.1019287109375,0.0062255859375,-0.98095703125,48.0,11.0,349.0,101920.0,-4.947000026702881,0,0
2558.232998,0.05633544921875,0.203521728515625,0.9771728515625,-0.022491455078125,-2.3193359375,0.91552734375,-6.40869140625,-0.10498046875,0.0059814453125,-0.9727783203125,48.0,11.0,349.0,101920.0,-4.947000026702881,0,0
2558.240018,0.056182861328125,0.2030029296875,0.977294921875,-0.02215576171875,-2.01416015625,1.28173828125,-7.8125,-0.09619140625,0.01611328125,-0.9754638671875,48.0,11.0,349.0,101920.0,-4.947000026702881,0,0
2558.260996,0.0560302734375,0.201629638671875,0.97760009765625,-0.021392822265625,-1.3427734375,-0.18310546875,-9.09423828125,-0.0985107421875,0.01123046875,-0.961181640625,48.0,12.0,350.0,101920.0,-4.947000026702881,0,0
2558.267995,0.05596923828125,0.20098876953125,0.977752685546875,-0.021209716796875,-1.03759765625,-0.42724609375,-9.033203125,-0.0931396484375,0.00732421875,-0.9620361328125,48.0,12.0,350.0,101920.0,-4.947000026702881,0,0
2558.275016,0.05596923828125,0.200714111328125,0.977813720703125,-0.021087646484375,-0.91552734375,-0.9765625,-8.72802734375,-0.0902099609375,0.009765625,-0.95947265625,48.0,12.0,350.0,101920.0,-4.947000026702881,0,0
2558.282004,0.056060791015625,0.20013427734375,0.9779052734375,-0.02093505859375,-0.732421875,-2.44140625,-8.4228515625,-0.1002197265625,0.0069580078125,-0.961181640625,48.0,12.0,350.0,101920.0,-4.947000026702881,0,0
2558.289018,0.056182861328125,0.199615478515625,0.97802734375,-0.020904541015625,-0.54931640625,-2.5634765625,-7.32421875,-0.10302734375,-0.011962890625,-0.9560546875,48.0,12.0,350.0,101920.0,-4.947000026702881,0,0
2558.295998,0.056243896484375,0.199371337890625,0.978057861328125,-0.020904541015625,-0.67138671875,-1.77001953125,-7.26318359375,-0.107421875,-0.02001953125,-0.9505615234375,48.0,12.0,350.0,101920.0,-4.947000026702881,0,0
2558.302998,0.056396484375,0.198760986328125,0.978179931640625,-0.020965576171875,-1.03759765625,-1.8310546875,-5.615234375,-0.11083984375,-0.02392578125,-0.9627685546875,48.0,12.0,350.0,101920.0,-4.947000026702881,0,0
2558.310018,0.056488037109375,0.1986083984375,0.97821044921875,-0.021026611328125,-0.6103515625,-2.0751953125,-4.2724609375,-0.12353515625,-0.03466796875,-0.9644775390625,48.0,12.0,350.0,101920.0,-4.947000026702881,0,0
2558.31605,0.056488037109375,0.1986083984375,0.97821044921875,-0.021026611328125,-0.6103515625,-2.0751953125,-4.2724609375,-0.12353515625,-0.03466796875,-0.9644775390625,48.0,12.0,350.0,101920.0,-4.947000026702881,0,0
2558.322998,0.056884765625,0.198333740234375,0.978240966796875,-0.0213623046875,-0.48828125,-1.89208984375,-1.40380859375,-0.1324462890625,-0.046630859375,-0.9696044921875,48.0,12.0,350.0,101920.0,-4.947000026702881,0,0
2558.330018,0.057037353515625,0.198333740234375,0.97821044921875,-0.021514892578125,0.54931640625,-2.3193359375,0.48828125,-0.1436767578125,-0.049560546875,-0.9801025390625,48.0,12.0,350.0,101920.0,-4.947000026702881,0,0
2558.337002,0.05718994140625,0.198394775390625,0.97821044921875,-0.02166748046875,0.3662109375,-2.74658203125,1.46484375,-0.1461181640625,-0.0511474609375,-0.97998046875,48.0,12.0,350.0,101920.0,-4.947000026702881,0,0
2558.344018,0.0574951171875,0.198577880859375,0.978118896484375,-0.02197265625,1.0986328125,-2.44140625,3.41796875,-0.152587890625,-0.051513671875,-0.979248046875,48.0,11.0,350.0,101920.0,-4.947000026702881,0,0
2558.350996,0.05780029296875,0.1990966796875,0.977996826171875,-0.0223388671875,1.64794921875,-2.50244140625,5.43212890625,-0.149658203125,-0.0543212890625,-0.98046875,48.0,11.0,350.0,101920.0,-4.947000026702881,0,0
2558.357995,0.057952880859375,0.199310302734375,0.977935791015625,-0.022552490234375,2.01416015625,-2.38037109375,6.28662109375,-0.1519775390625,-0.0546875,-0.97998046875,48.0,11.0,350.0,101920.0,-4.947000026702881,0,0
2558.365016,0.058349609375,0.2000732421875,0.977752685546875,-0.023162841796875,2.44140625,-1.46484375,8.4228515625,-0.1544189453125,-0.0572509765625,-0.97216796875,48.0,11.0,350.0,101920.0,-4.947000026702881,0,0
2558.372004,0.058441162109375,0.20037841796875,0.977691650390625,-0.023345947265625,2.74658203125,-0.91552734375,8.72802734375,-0.152099609375,-0.0543212890625,-0.9739990234375,48.0,11.0,350.0,101920.0,-4.947000026702881,0,0
2558.379018,0.058563232421875,0.201324462890625,0.977447509765625,-0.02386474609375,2.86865234375,0.3662109375,9.6435546875,-0.1414794921875,-0.045654296875,-0.9708251953125,48.0,11.0,350.0,101920.0,-4.947000026702881,0,0
2558.385998,0.05853271484375,0.20166015625,0.977386474609375,-0.024017333984375,3.2958984375,0.67138671875,9.46044921875,-0.134521484375,-0.0462646484375,-0.9715576171875,48.0,11.0,350.0,101920.0,-4.947000026702881,0,0
2558.392998,0.05853271484375,0.201995849609375,0.977325439453125,-0.024169921875,2.99072265625,0.6103515625,9.27734375,-0.13134765625,-0.045654296875,-0.97216796875,48.0,11.0,350.0,101920.0,-4.947000026702881,0,0
2558.400018,0.058380126953125,0.202911376953125,0.977142333984375,-0.024627685546875,2.9296875,1.15966796875,8.48388671875,-0.122314453125,-0.0455322265625,-0.9715576171875,48.0,11.0,350.0,101920.0,-4.947000026702881,0,0
2558.406051,0.058380126953125,0.202911376953125,0.977142333984375,-0.024627685546875,2.9296875,1.15966796875,8.48388671875,-0.122314453125,-0.0455322265625,-0.9715576171875,48.0,11.0,350.0,101920.0,-4.947000026702881,0,0
2558.412998,0.0582275390625,0.2037353515625,0.976959228515625,-0.024871826171875,2.0751953125,0.8544921875,7.6904296875,-0.1182861328125,-0.0382080078125,-0.9757080078125,48.0,11.0,350.0,101920.0,-4.947000026702881,0,0
2558.434018,0.05767822265625,0.204742431640625,0.976776123046875,-0.024505615234375,-0.30517578125,2.62451171875,4.2724609375,-0.08984375,0.01123046875,-0.98095703125,48.0,11.0,350.0,101920.0,-4.947000026702881,0,0
2558.440996,0.057403564453125,0.2049560546875,0.976776123046875,-0.024139404296875,-0.244140625,2.38037109375,2.5634765625,-0.0892333984375,0.029296875,-0.981689453125,48.0,11.0,350.0,101920.0,-4.947000026702881,0,0
2558.447996,0.05731201171875,0.205047607421875,0.97674560546875,-0.02392578125,-0.244140625,1.77001953125,2.25830078125,-0.0909423828125,0.0322265625,-0.981689453125,49.0,10.0,350.0,101920.0,-4.947000026702881,0,0
2558.45502,0.057159423828125,0.204193115234375,0.976959228515625,-0.02349853515625,0.0,1.28173828125,1.89208984375,-0.0904541015625,0.030029296875,-0.9732666015625,49.0,10.0,350.0,101920.0,-4.947000026702881,0,0
2558.462004,0.057037353515625,0.204193115234375,0.976959228515625,-0.023162841796875,-0.1220703125,0.06103515625,0.0,-0.087646484375,0.0301513671875,-0.9625244140625,49.0,10.0,350.0,101920.0,-4.947000026702881,0,0
2558.469018,0.0570068359375,0.204193115234375,0.97698974609375,-0.022857666015625,0.18310546875,-0.79345703125,-0.54931640625,-0.0882568359375,0.030517578125,-0.9620361328125,49.0,10.0,350.0,101920.0,-4.947000026702881,0,0
2558.475998,0.057037353515625,0.204132080078125,0.97698974609375,-0.022735595703125,0.3662109375,-1.40380859375,-1.708984375,-0.099365234375,0.02685546875,-0.9556884765625,49.0,10.0,350.0,101920.0,-4.947000026702881,0,0
2558.482997,0.057098388671875,0.20391845703125,0.97705078125,-0.022491455078125,0.54931640625,-1.220703125,-2.38037109375,-0.099853515625,0.01708984375,-0.951904296875,49.0,10.0,350.0,101920.0,-4.947000026702881,0,0
2558.490018,0.05712890625,0.203826904296875,0.97705078125,-0.022430419921875,-0.06103515625,-1.708984375,-2.9296875,-0.101806640625,0.008056640625,-0.9564208984375,49.0,10.0,350.0,101920.0,-4.947000026702881,0,0
2558.497001,0.057159423828125,0.203704833984375,0.977081298828125,-0.0223388671875,-0.06103515625,-1.708984375,-2.9296875,-0.101806640625,0.008056640625,-0.9564208984375,49.0,10.0,350.0,101920.0,-4.948000431060791,0,0
2558.503034,0.057159423828125,0.203704833984375,0.977081298828125,-0.0223388671875,-0.06103515625,-1.708984375,-2.9296875,-0.101806640625,0.008056640625,-0.9564208984375,49.0,10.0,350.0,101920.0,-4.948000431060791,0,0
2558.524018,0.057861328125,0.2030029296875,0.977203369140625,-0.02215576171875,0.42724609375,-1.5869140625,-2.0751953125,-0.1429443359375,-0.0223388671875,-0.9613037109375,49.0,10.0,350.0,101920.0,-4.948000431060791,0,0
2558.530996,0.0579833984375,0.20294189453125,0.977203369140625,-0.022216796875,0.42724609375,-1.708984375,-2.13623046875,-0.1461181640625,-0.0247802734375,-0.9632568359375,49.0,10.0,350.0,101920.0,-4.948000431060791,0,0
2558.537995,0.05841064453125,0.202728271484375,0.977203369140625,-0.02264404296875,1.15966796875,-1.77001953125,-2.25830078125,-0.149658203125,-0.0333251953125,-0.966064453125,49.0,10.0,350.0,101920.0,-4.948000431060791,0,0
2558.545016,0.058563232421875,0.202667236328125,0.977203369140625,-0.022796630859375,1.15966796875,-1.77001953125,-1.77001953125,-0.154541015625,-0.0467529296875,-0.95947265625,48.0,10.0,350.0,101920.0,-4.948000431060791,0,0
2558.552004,0.05865478515625,0.204193115234375,0.97686767578125,-0.0230712890625,0.732421875,-1.64794921875,-1.40380859375,-0.1529541015625,-0.0543212890625,-0.966796875,48.0,10.0,350.0,101920.0,-4.948000431060791,0,0
2558.559018,0.058990478515625,0.204071044921875,0.97686767578125,-0.023681640625,0.91552734375,-2.01416015625,-0.91552734375,-0.1500244140625,-0.061767578125,-0.9727783203125,48.0,10.0,350.0,101920.0,-4.948000431060791,0,0
2558.565998,0.05908203125,0.204071044921875,0.97686767578125,-0.023834228515625,0.54931640625,-1.0986328125,-0.30517578125,-0.148193359375,-0.06591796875,-0.9671630859375,48.0,10.0,350.0,101920.0,-4.948000431060791,0,0
2558.572998,0.059295654296875,0.204010009765625,0.97686767578125,-0.02410888671875,-0.06103515625,-1.40380859375,-0.3662109375,-0.1480712890625,-0.0572509765625,-0.9803466796875,48.0,10.0,350.0,101920.0,-4.948000431060791,0,0
2558.580018,0.05938720703125,0.2039794921875,0.976837158203125,-0.024322509765625,0.1220703125,0.18310546875,-0.54931640625,-0.1446533203125,-0.0545654296875,-0.982421875,48.0,10.0,350.0,101920.0,-4.948000431060791,0,0
2558.587001,0.059417724609375,0.2039794921875,0.976837158203125,-0.0244140625,-0.67138671875,0.732421875,-0.42724609375,-0.1380615234375,-0.049072265625,-0.977294921875,48.0,10.0,350.0,101920.0,-4.948000431060791,0,0
2558.593034,0.059417724609375,0.2039794921875,0.976837158203125,-0.0244140625,-0.67138671875,0.732421875,-0.42724609375,-0.1380615234375,-0.049072265625,-0.977294921875,48.0,10.0,350.0,101920.0,-4.948000431060791,0,0
2558.600018,0.05908203125,0.203887939453125,0.976898193359375,-0.024383544921875,-1.708984375,2.5634765625,-0.54931640625,-0.101318359375,-0.038330078125,-0.97705078125,48.0,10.0,350.0,101920.0,-4.946000099182129,0,0
2558.607002,0.058929443359375,0.203887939453125,0.976898193359375,-0.024322509765625,-1.64794921875,2.685546875,0.0,-0.0958251953125,-0.03125,-0.9783935546875,48.0,10.0,350.0,101920.0,-4.946000099182129,0,0
2558.614018,0.058624267578125,0.203857421875,0.9769287109375,-0.024169921875,-1.46484375,1.5869140625,-0.3662109375,-0.0894775390625,-0.0274658203125,-0.9833984375,48.0,10.0,350.0,101920.0,-4.946000099182129,0,0
2558.620996,0.058349609375,0.203857421875,0.976959228515625,-0.024017333984375,-1.28173828125,1.3427734375,0.06103515625,-0.081787109375,-0.0174560546875,-0.9771728515625,48.0,10.0,350.0,101920.0,-4.946000099182129,0,0
2558.627995,0.058013916015625,0.203857421875,0.976959228515625,-0.0238037109375,-1.3427734375,1.28173828125,-0.06103515625,-0.076904296875,-0.011962890625,-0.9775390625,48.0,10.0,350.0,101920.0,-4.946000099182129,0,0
2558.635016,0.057891845703125,0.203857421875,0.97698974609375,-0.023651123046875,-1.15966796875,0.54931640625,-0.06103515625,-0.0714111328125,-0.0025634765625,-0.981689453125,48.0,10.0,350.0,101920.0,-4.946000099182129,0,0
2558.642004,0.05767822265625,0.203857421875,0.97698974609375,-0.02349853515625,-0.79345703125,-1.0986328125,0.0,-0.0760498046875,-0.0062255859375,-0.974609375,48.0,10.0,350.0,101920.0,-4.946000099182129,0,0
2558.649018,0.057586669921875,0.203887939453125,0.97698974609375,-0.023406982421875,-0.42724609375,-0.48828125,-0.1220703125,-0.084228515625,-0.0068359375,-0.964599609375,47.0,9.0,351.0,101920.0,-4.946000099182129,0,0
2558.655998,0.0574951171875,0.20416259765625,0.976959228515625,-0.023284912109375,-0.30517578125,-0.9765625,0.18310546875,-0.097412109375,0.00146484375,-0.9676513671875,47.0,9.0,351.0,101920.0,-4.946000099182129,0,0
2558.662998,0.057647705078125,0.204193115234375,0.9769287109375,-0.02313232421875,0.06103515625,-2.44140625,-0.06103515625,-0.1171875,0.0086669921875,-0.9691162109375,47.0,9.0,351.0,101920.0,-4.946000099182129,0,0
2558.670018,0.057891845703125,0.2042236328125,0.9769287109375,-0.0230712890625,0.67138671875,-2.13623046875,0.1220703125,-0.1280517578125,-0.0015869140625,-0.9560546875,47.0,9.0,351.0,101920.0,-4.946000099182129,0,0
2558.677001,0.0579833984375,0.2042236328125,0.976898193359375,-0.0230712890625,0.42724609375,-1.708984375,0.6103515625,-0.1318359375,-0.002685546875,-0.9534912109375,47.0,9.0,351.0,101920.0,-4.946000099182129,0,0
2558.697002,0.058319091796875,0.204315185546875,0.97686767578125,-0.022857666015625,-0.48828125,-0.244140625,1.0986328125,-0.131103515625,-0.00439453125,-0.9609375,47.0,9.0,351.0,101920.0,-4.947000026702881,0,0
2558.704018,0.0584716796875,0.2044677734375,0.976837158203125,-0.02264404296875,-0.67138671875,-0.06103515625,1.40380859375,-0.1307373046875,-0.0020751953125,-0.95849609375,47.0,9.0,351.0,101920.0,-4.947000026702881,0,0
2558.710996,0.058563232421875,0.20452880859375,0.976837158203125,-0.0225830078125,-0.67138671875,-0.91552734375,1.64794921875,-0.1309814453125,-0.00537109375,-0.9693603515625,47.0,9.0,351.0,101920.0,-4.947000026702881,0,0
2558.717996,0.058929443359375,0.20477294921875,0.97674560546875,-0.022552490234375,-0.18310546875,-1.3427734375,2.0751953125,-0.1358642578125,-0.0048828125,-0.968505859375,47.0,9.0,351.0,101920.0,-4.947000026702881,0,0
2558.72502,0.059051513671875,0.204864501953125,0.976715087890625,-0.022552490234375,-0.06103515625,-1.46484375,2.62451171875,-0.1380615234375,-0.0166015625,-0.9571533203125,47.0,9.0,351.0,101920.0,-4.947000026702881,0,0
2558.732004,0.059112548828125,0.2049560546875,0.976715087890625,-0.0225830078125,0.18310546875,-0.9765625,2.5634765625,-0.1370849609375,-0.020263671875,-0.962890625,47.0,9.0,351.0,101920.0,-4.947000026702881,0,0
2558.739018,0.05938720703125,0.205230712890625,0.97662353515625,-0.02276611328125,0.67138671875,-1.220703125,2.685546875,-0.1331787109375,-0.0224609375,-0.96484375,47.0,9.0,351.0,101920.0,-4.947000026702881,0,0
2558.745998,0.059478759765625,0.205322265625,0.976593017578125,-0.02288818359375,0.79345703125,-2.197265625,2.74658203125,-0.1329345703125,-0.03369140625,-0.9688720703125,46.0,9.0,351.0,101920.0,-4.947000026702881,0,0
2558.752998,0.060089111328125,0.18499755859375,0.98065185546875,-0.021728515625,0.67138671875,-2.685546875,2.99072265625,-0.138916015625,-0.0430908203125,-0.9639892578125,46.0,9.0,351.0,101920.0,-4.947000026702881,0,0
2558.760018,0.0604248046875,0.185333251953125,0.980560302734375,-0.022186279296875,0.8544921875,-2.44140625,3.35693359375,-0.1397705078125,-0.0517578125,-0.9638671875,46.0,9.0,351.0,101920.0,-4.947000026702881,0,0
2558.767001,0.060577392578125,0.1854248046875,0.98052978515625,-0.0223388671875,0.54931640625,-2.685546875,3.23486328125,-0.141845703125,-0.0584716796875,-0.9705810546875,46.0,9.0,351.0,101920.0,-4.947000026702881,0,0
2558.787002,0.06103515625,0.185882568359375,0.980377197265625,-0.02301025390625,-0.1220703125,-0.244140625,2.685546875,-0.1478271484375,-0.0574951171875,-0.9715576171875,46.0,9.0,351.0,101920.0,-4.947000026702881,0,0
2558.794018,0.0611572265625,0.18603515625,0.9803466796875,-0.023193359375,-0.54931640625,-0.1220703125,2.197265625,-0.146484375,-0.057861328125,-0.973388671875,46.0,9.0,351.0,101920.0,-4.948000431060791,0,0
2558.800996,0.06121826171875,0.186126708984375,0.980316162109375,-0.0233154296875,-0.732421875,-0.18310546875,1.8310546875,-0.1356201171875,-0.04833984375,-0.9874267578125,46.0,9.0,351.0,101920.0,-4.948000431060791,0,0
2558.807995,0.06121826171875,0.18621826171875,0.980316162109375,-0.023345947265625,-0.9765625,0.06103515625,1.28173828125,-0.133544921875,-0.0435791015625,-0.9892578125,46.0,9.0,351.0,101920.0,-4.948000431060791,0,0
2558.815016,0.06121826171875,0.18621826171875,0.980316162109375,-0.02337646484375,-0.8544921875,-0.42724609375,0.67138671875,-0.12060546875,-0.03125,-0.9910888671875,46.0,9.0,351.0,101920.0,-4.948000431060791,0,0
2558.822004,0.0611572265625,0.18621826171875,0.980316162109375,-0.02337646484375,-0.3662109375,-0.67138671875,-0.244140625,-0.1192626953125,-0.0247802734375,-0.988525390625,46.0,9.0,351.0,101920.0,-4.948000431060791,0,0
2558.829018,0.061065673828125,0.18621826171875,0.980316162109375,-0.02337646484375,-0.06103515625,0.06103515625,-0.48828125,-0.1141357421875,-0.0250244140625,-0.9864501953125,46.0,9.0,351.0,101920.0,-4.948000431060791,0,0
2558.835998,0.06103515625,0.18621826171875,0.980316162109375,-0.02337646484375,-0.54931640625,0.18310546875,-0.91552734375,-0.1162109375,-0.0224609375,-0.9849853515625,46.0,9.0,351.0,101920.0,-4.948000431060791,0,0
2558.842998,0.060943603515625,0.186126708984375,0.9803466796875,-0.023284912109375,-0.67138671875,1.8310546875,-1.28173828125,-0.1248779296875,-0.012939453125,-0.9818115234375,47.0,8.0,351.0,101920.0,-4.948000431060791,0,0
2558.850018,0.060821533203125,0.1849365234375,0.9805908203125,-0.02294921875,-1.15966796875,2.44140625,-1.0986328125,-0.122802734375,-0.0048828125,-0.9864501953125,47.0,8.0,351.0,101920.0,-4.948000431060791,0,0
2558.857001,0.06072998046875,0.18487548828125,0.9805908203125,-0.02276611328125,-1.708984375,2.74658203125,-1.52587890625,-0.1171875,0.01171875,-0.9892578125,47.0,8.0,351.0,101920.0,-4.948000431060791,0,0
2558.864018,0.060455322265625,0.184722900390625,0.98065185546875,-0.02227783203125,-1.15966796875,3.11279296875,-1.5869140625,-0.12255859375,0.015625,-0.9749755859375,47.0,8.0,351.0,101920.0,-4.948000431060791,0,0
2558.870995,0.060302734375,0.184661865234375,0.980682373046875,-0.022125244140625,-0.9765625,4.08935546875,-1.89208984375,-0.11376953125,0.0091552734375,-0.9661865234375,47.0,8.0,351.0,101920.0,-4.948000431060791,0,0
2558.877028,0.060302734375,0.184661865234375,0.980682373046875,-0.022125244140625,-0.9765625,4.08935546875,-1.89208984375,-0.11376953125,0.0091552734375,-0.9661865234375,47.0,8.0,351.0,101920.0,-4.948000431060791,0,0
2558.884018,0.05987548828125,0.184478759765625,0.980743408203125,-0.021453857421875,-1.28173828125,2.9296875,-1.5869140625,-0.114501953125,0.02197265625,-0.9739990234375,47.0,8.0,351.0,101920.0,-4.948000431060791,0,0
2558.890996,0.059783935546875,0.1844482421875,0.98077392578125,-0.021240234375,-1.5869140625,2.62451171875,-1.28173828125,-0.1082763671875,0.0247802734375,-0.9666748046875,47.0,8.0,351.0,101920.0,-4.948000431060791,0,0
2558.897995,0.0596923828125,0.184417724609375,0.980804443359375,-0.021026611328125,-1.5869140625,2.8076171875,-1.03759765625,-0.1033935546875,0.0263671875,-0.966064453125,47.0,8.0,351.0,101920.0,-4.948000431060791,0,0
2558.905016,0.05950927734375,0.184295654296875,0.9808349609375,-0.02044677734375,-1.28173828125,0.8544921875,-1.3427734375,-0.109619140625,0.020263671875,-0.95361328125,47.0,8.0,351.0,101920.0,-4.948000431060791,0,0
2558.912004,0.05950927734375,0.184295654296875,0.9808349609375,-0.020355224609375,-0.3662109375,0.8544921875,-0.91552734375,-0.1209716796875,0.015625,-0.94189453125,47.0,8.0,351.0,101920.0,-4.948000431060791,0,0
2558.919018,0.059539794921875,0.18426513671875,0.9808349609375,-0.0201416015625,-0.06103515625,1.3427734375,-0.732421875,-0.1236572265625,0.010009765625,-0.941162109375,47.0,8.0,351.0,101920.0,-4.948000431060791,0,0
2558.925998,0.059539794921875,0.18426513671875,0.9808349609375,-0.02008056640625,0.42724609375,0.54931640625,-0.6103515625,-0.1212158203125,0.0098876953125,-0.9486083984375,47.0,8.0,351.0,101920.0,-4.948000431060791,0,0
2558.932997,0.059600830078125,0.184295654296875,0.9808349609375,-0.019927978515625,0.732421875,0.42724609375,-0.30517578125,-0.1229248046875,0.009765625,-0.9482421875,47.0,8.0,351.0,101920.0,-4.948000431060791,0,0
2558.940018,0.0595703125,0.184295654296875,0.9808349609375,-0.019866943359375,0.91552734375,-0.54931640625,0.1220703125,-0.113525390625,-0.007080078125,-0.9542236328125,47.0,8.0,351.0,101920.0,-4.948000431060791,0,0
2558.960995,0.05975341796875,0.18524169921875,0.98065185546875,-0.02032470703125,1.40380859375,-2.685546875,1.77001953125,-0.122802734375,-0.0333251953125,-0.9610595703125,48.0,8.0,352.0,101920.0,-4.948000431060791,0,0
2558.967028,0.05975341796875,0.18524169921875,0.98065185546875,-0.02032470703125,1.40380859375,-2.685546875,1.77001953125,-0.122802734375,-0.0333251953125,-0.9610595703125,48.0,8.0,352.0,101920.0,-4.948000431060791,0,0
2558.974018,0.0601806640625,0.1854248046875,0.980560302734375,-0.02081298828125,1.77001953125,-4.08935546875,1.953125,-0.131103515625,-0.045654296875,-0.95556640625,48.0,8.0,352.0,101920.0,-4.948000431060791,0,0
2558.980996,0.060546875,0.185577392578125,0.980499267578125,-0.021240234375,1.89208984375,-3.7841796875,2.38037109375,-0.148681640625,-0.0594482421875,-0.9456787109375,48.0,8.0,352.0,101920.0,-4.948000431060791,0,0
2558.987996,0.060821533203125,0.18572998046875,0.98046875,-0.021697998046875,1.953125,-3.0517578125,2.44140625,-0.1480712890625,-0.06298828125,-0.9462890625,48.0,8.0,352.0,101920.0,-4.948000431060791,0,0
2558.99502,0.060943603515625,0.185821533203125,0.980438232421875,-0.02191162109375,1.8310546875,-2.50244140625,2.197265625,-0.1470947265625,-0.0621337890625,-0.9508056640625,48.0,8.0,352.0,101920.0,-4.945000171661377,0,0
2559.002004,0.061065673828125,0.185943603515625,0.980377197265625,-0.022247314453125,1.708984375,-1.40380859375,2.0751953125,-0.1318359375,-0.0570068359375,-0.9638671875,48.0,8.0,352.0,101920.0,-4.945000171661377,0,0
2559.009018,0.06109619140625,0.18603515625,0.9803466796875,-0.022552490234375,1.708984375,-1.03759765625,1.708984375,-0.1302490234375,-0.0537109375,-0.9676513671875,48.0,8.0,352.0,101920.0,-4.945000171661377,0,0
2559.015998,0.06109619140625,0.18609619140625,0.9803466796875,-0.022705078125,1.5869140625,-0.91552734375,1.708984375,-0.12548828125,-0.0499267578125,-0.9752197265625,48.0,8.0,352.0,101920.0,-4.945000171661377,0,0
2559.022998,0.061065673828125,0.186248779296875,0.980316162109375,-0.0230712890625,1.89208984375,-0.18310546875,1.3427734375,-0.1231689453125,-0.040771484375,-0.978759765625,48.0,8.0,352.0,101920.0,-4.945000171661377,0,0
2559.044018,0.061065673828125,0.186309814453125,0.98028564453125,-0.02349853515625,1.46484375,0.30517578125,0.6103515625,-0.130615234375,-0.033447265625,-0.9747314453125,48.0,9.0,352.0,101920.0,-4.945000171661377,0,0
2559.050996,0.06109619140625,0.18487548828125,0.980560302734375,-0.0235595703125,1.64794921875,0.42724609375,0.18310546875,-0.1341552734375,-0.031005859375,-0.977783203125,48.0,9.0,352.0,101920.0,-4.945000171661377,0,0
2559.058,0.06109619140625,0.184906005859375,0.980560302734375,-0.023651123046875,1.52587890625,0.67138671875,0.06103515625,-0.1392822265625,-0.0338134765625,-0.9818115234375,48.0,9.0,352.0,101920.0,-4.945000171661377,0,0
2559.064033,0.06109619140625,0.184906005859375,0.980560302734375,-0.023651123046875,1.52587890625,0.67138671875,0.06103515625,-0.1392822265625,-0.0338134765625,-0.9818115234375,48.0,9.0,352.0,101920.0,-4.945000171661377,0,0
2559.070996,0.061065673828125,0.1849365234375,0.98052978515625,-0.023834228515625,1.15966796875,1.953125,0.06103515625,-0.140869140625,-0.018310546875,-0.978515625,48.0,9.0,352.0,101920.0,-4.945000171661377,0,0
2559.077995,0.06097412109375,0.184967041015625,0.98052978515625,-0.0238037109375,1.0986328125,1.708984375,0.30517578125,-0.1387939453125,-0.01123046875,-0.9818115234375,48.0,9.0,352.0,101920.0,-4.945000171661377,0,0
2559.085016,0.060943603515625,0.18499755859375,0.98052978515625,-0.02374267578125,0.6103515625,2.38037109375,0.3662109375,-0.1322021484375,-0.002685546875,-0.9769287109375,48.0,9.0,352.0,101920.0,-4.945000171661377,0,0
2559.092004,0.06085205078125,0.18499755859375,0.980560302734375,-0.023681640625,0.91552734375,2.5634765625,0.244140625,-0.1282958984375,0.004150390625,-0.9759521484375,48.0,9.0,352.0,101920.0,-4.947000026702881,0,0
2559.099018,0.060577392578125,0.185089111328125,0.980560302734375,-0.0234375,1.0986328125,2.99072265625,0.30517578125,-0.1287841796875,0.0111083984375,-0.9752197265625,48.0,9.0,352.0,101920.0,-4.947000026702881,0,0
2559.105998,0.060455322265625,0.18511962890625,0.980560302734375,-0.023345947265625,1.220703125,3.47900390625,0.54931640625,-0.1102294921875,0.0146484375,-0.963623046875,48.0,9.0,352.0,101920.0,-4.947000026702881,0,0
2559.112997,0.060089111328125,0.185150146484375,0.9805908203125,-0.023162841796875,1.5869140625,3.41796875,0.3662109375,-0.09912109375,0.0120849609375,-0.959716796875,48.0,9.0,352.0,101920.0,-4.947000026702881,0,0
2559.120018,0.059814453125,0.185211181640625,0.9805908203125,-0.023040771484375,1.953125,1.52587890625,0.06103515625,-0.0887451171875,0.0137939453125,-0.9613037109375,48.0,9.0,352.0,101920.0,-4.947000026702881,0,0
2559.127001,0.0596923828125,0.185211181640625,0.9805908203125,-0.022979736328125,1.89208984375,0.9765625,0.30517578125,-0.0927734375,0.01318359375,-0.9598388671875,48.0,9.0,352.0,101920.0,-4.947000026702881,0,0
2559.134018,0.059539794921875,0.18524169921875,0.9805908203125,-0.02288818359375,1.5869140625,0.6103515625,-0.06103515625,-0.0955810546875,0.0062255859375,-0.9544677734375,48.0,9.0,352.0,101920.0,-4.947000026702881,0,0
2559.140995,0.05938720703125,0.18524169921875,0.980621337890625,-0.022796630859375,0.6103515625,-0.30517578125,-0.1220703125,-0.08740234375,-0.0079345703125,-0.953369140625,48.0,9.0,352.0,101920.0,-4.947000026702881,0,0
2559.147995,0.059326171875,0.18524169921875,0.980621337890625,-0.02276611328125,0.18310546875,-1.220703125,-0.48828125,-0.0877685546875,-0.0126953125,-0.9501953125,47.0,8.0,351.0,101920.0,-4.947000026702881,0,0
2559.154027,0.059326171875,0.18524169921875,0.980621337890625,-0.02276611328125,0.18310546875,-1.220703125,-0.48828125,-0.0877685546875,-0.0126953125,-0.9501953125,47.0,8.0,351.0,101920.0,-4.947000026702881,0,0
2559.160996,0.0595703125,0.184844970703125,0.980682373046875,-0.022796630859375,-0.06103515625,-4.0283203125,-0.732421875,-0.115234375,-0.0294189453125,-0.95263671875,47.0,8.0,351.0,101920.0,-4.947000026702881,0,0
2559.167995,0.059722900390625,0.184783935546875,0.980682373046875,-0.02288818359375,0.06103515625,-3.90625,-1.220703125,-0.1226806640625,-0.037109375,-0.94775390625,47.0,8.0,351.0,101920.0,-4.947000026702881,0,0
2559.175016,0.060028076171875,0.1846923828125,0.980682373046875,-0.0230712890625,0.06103515625,-3.41796875,-1.52587890625,-0.1361083984375,-0.0394287109375,-0.9508056640625,47.0,8.0,351.0,101920.0,-4.947000026702881,0,0
2559.182004,0.060394287109375,0.1845703125,0.98065185546875,-0.02325439453125,-0.18310546875,-3.84521484375,-1.64794921875,-0.143310546875,-0.04150390625,-0.95947265625,47.0,8.0,351.0,101920.0,-4.947000026702881,0,0
2559.189019,0.06072998046875,0.184417724609375,0.980682373046875,-0.0234375,-0.06103515625,-3.60107421875,-1.8310546875,-0.14404296875,-0.04638671875,-0.9578857421875,47.0,8.0,351.0,101920.0,-4.947000026702881,0,0
2559.195998,0.06085205078125,0.184356689453125,0.980682373046875,-0.023529052734375,-0.8544921875,-2.5634765625,-2.01416015625,-0.144287109375,-0.0482177734375,-0.96533203125,47.0,8.0,351.0,101920.0,-4.947000026702881,0,0
2559.202998,0.06109619140625,0.184173583984375,0.980682373046875,-0.023651123046875,-1.28173828125,-2.25830078125,-2.44140625,-0.140380859375,-0.0472412109375,-0.9844970703125,47.0,8.0,351.0,101920.0,-4.947000026702881,0,0
2559.224018,0.0618896484375,0.18359375,0.980743408203125,-0.02410888671875,-0.6103515625,-3.84521484375,-2.685546875,-0.136962890625,-0.05224609375,-1.0001220703125,47.0,8.0,351.0,101920.0,-4.947000026702881,0,0
2559.230995,0.06207275390625,0.1834716796875,0.980743408203125,-0.024200439453125,-0.3662109375,-3.96728515625,-2.99072265625,-0.1441650390625,-0.0478515625,-0.9964599609375,47.0,8.0,351.0,101920.0,-4.947000026702881,0,0
2559.237995,0.062225341796875,0.183380126953125,0.980743408203125,-0.0242919921875,0.06103515625,-3.5400390625,-2.74658203125,-0.14599609375,-0.0467529296875,-0.9952392578125,47.0,8.0,351.0,101920.0,-4.947000026702881,0,0
2559.24502,0.0625,0.18316650390625,0.98077392578125,-0.024505615234375,0.18310546875,-2.197265625,-3.11279296875,-0.1494140625,-0.0482177734375,-0.981201171875,46.0,8.0,350.0,101920.0,-4.947000026702881,0,0
2559.251052,0.0625,0.18316650390625,0.98077392578125,-0.024505615234375,0.18310546875,-2.197265625,-3.11279296875,-0.1494140625,-0.0482177734375,-0.981201171875,46.0,8.0,350.0,101920.0,-4.947000026702881,0,0
2559.257995,0.0626220703125,0.183013916015625,0.98077392578125,-0.024658203125,-0.67138671875,1.28173828125,-2.5634765625,-0.1451416015625,-0.0352783203125,-0.97119140625,46.0,8.0,350.0,101920.0,-4.947000026702881,0,0
2559.26502,0.06243896484375,0.18280029296875,0.9808349609375,-0.0245361328125,-1.46484375,2.62451171875,-2.3193359375,-0.136962890625,-0.0269775390625,-0.974365234375,46.0,8.0,350.0,101920.0,-4.947000026702881,0,0
2559.272004,0.06231689453125,0.1827392578125,0.980865478515625,-0.024444580078125,-1.89208984375,3.0517578125,-1.77001953125,-0.118896484375,-0.022216796875,-0.9698486328125,46.0,8.0,350.0,101920.0,-4.947000026702881,0,0
2559.279018,0.061798095703125,0.182647705078125,0.980926513671875,-0.0240478515625,-1.89208984375,3.47900390625,-1.40380859375,-0.10791015625,-0.01904296875,-0.968017578125,46.0,8.0,350.0,101920.0,-4.947000026702881,0,0
2559.285998,0.0616455078125,0.182647705078125,0.980926513671875,-0.023834228515625,-2.685546875,2.50244140625,-0.1220703125,-0.087158203125,0.0050048828125,-0.9791259765625,46.0,8.0,350.0,101920.0,-4.947000026702881,0,0
2559.307001,0.060943603515625,0.182830810546875,0.98095703125,-0.022674560546875,-2.01416015625,0.06103515625,2.0751953125,-0.0745849609375,0.0213623046875,-0.9774169921875,46.0,8.0,350.0,101920.0,-4.948000431060791,0,0
2559.314019,0.06085205078125,0.18304443359375,0.98095703125,-0.022247314453125,-1.8310546875,-0.30517578125,2.50244140625,-0.0831298828125,0.0272216796875,-0.9786376953125,46.0,8.0,350.0,101920.0,-4.948000431060791,0,0
2559.320996,0.060882568359375,0.183319091796875,0.98089599609375,-0.0218505859375,-0.9765625,-1.0986328125,4.21142578125,-0.1090087890625,0.0269775390625,-0.969482421875,46.0,8.0,350.0,101920.0,-4.948000431060791,0,0
2559.328,0.060882568359375,0.183502197265625,0.980865478515625,-0.021697998046875,-1.3427734375,-0.732421875,5.37109375,-0.103515625,0.01025390625,-0.9552001953125,46.0,8.0,350.0,101920.0,-4.948000431060791,0,0
2559.33502,0.061065673828125,0.183929443359375,0.98077392578125,-0.02142333984375,-0.30517578125,-0.8544921875,6.04248046875,-0.12890625,0.0281982421875,-0.9639892578125,46.0,8.0,350.0,101920.0,-4.948000431060791,0,0
2559.341053,0.061065673828125,0.183929443359375,0.98077392578125,-0.02142333984375,-0.30517578125,-0.8544921875,6.04248046875,-0.12890625,0.0281982421875,-0.9639892578125,46.0,8.0,350.0,101920.0,-4.948000431060791,0,0
2559.347996,0.06146240234375,0.184722900390625,0.980621337890625,-0.021148681640625,0.3662109375,-2.01416015625,8.056640625,-0.145263671875,0.0084228515625,-0.9462890625,47.0,7.0,350.0,101920.0,-4.948000431060791,0,0
2559.35502,0.061859130859375,0.18365478515625,0.980804443359375,-0.02105712890625,0.6103515625,-2.38037109375,8.6669921875,-0.1524658203125,0.0,-0.9500732421875,47.0,7.0,350.0,101920.0,-4.948000431060791,0,0
2559.362004,0.06219482421875,0.184356689453125,0.98065185546875,-0.02117919921875,1.8310546875,-1.46484375,10.009765625,-0.1575927734375,-0.0224609375,-0.945068359375,47.0,7.0,350.0,101920.0,-4.948000431060791,0,0
2559.369018,0.062408447265625,0.18505859375,0.980499267578125,-0.021392822265625,2.13623046875,-1.0986328125,10.3759765625,-0.1519775390625,-0.025146484375,-0.9468994140625,47.0,7.0,350.0,101920.0,-4.948000431060791,0,0
2559.375998,0.0625,0.1854248046875,0.98040771484375,-0.02154541015625,2.197265625,-1.0986328125,10.80322265625,-0.146728515625,-0.0396728515625,-0.9505615234375,47.0,7.0,350.0,101920.0,-4.948000431060791,0,0
2559.382998,0.062652587890625,0.186187744140625,0.980255126953125,-0.02178955078125,1.708984375,-0.42724609375,10.8642578125,-0.1466064453125,-0.0450439453125,-0.9454345703125,47.0,7.0,350.0,101920.0,-4.948000431060791,0,0
2559.390018,0.062744140625,0.186920166015625,0.9801025390625,-0.022064208984375,1.46484375,-0.30517578125,10.986328125,-0.14013671875,-0.0498046875,-0.95654296875,47.0,7.0,350.0,101920.0,-4.948000431060791,0,0
2559.397001,0.062774658203125,0.18731689453125,0.980010986328125,-0.022186279296875,1.40380859375,-0.9765625,11.16943359375,-0.1376953125,-0.0504150390625,-0.9609375,47.0,7.0,350.0,101920.0,-4.947000026702881,0,0
2559.404018,0.06304931640625,0.188385009765625,0.97979736328125,-0.022552490234375,1.3427734375,-1.64794921875,10.55908203125,-0.14501953125,-0.047119140625,-0.962890625,47.0,7.0,350.0,101920.0,-4.947000026702881,0,0
2559.410995,0.063201904296875,0.188720703125,0.979705810546875,-0.02264404296875,1.28173828125,-2.197265625,9.46044921875,-0.1524658203125,-0.0360107421875,-0.9716796875,47.0,7.0,350.0,101920.0,-4.947000026702881,0,0
2559.417995,0.0633544921875,0.18902587890625,0.979644775390625,-0.02276611328125,1.64794921875,-2.62451171875,8.97216796875,-0.153076171875,-0.0345458984375,-0.9710693359375,47.0,7.0,350.0,101920.0,-4.947000026702881,0,0
2559.42502,0.063690185546875,0.189788818359375,0.979461669921875,-0.023162841796875,2.01416015625,-1.89208984375,7.38525390625,-0.149169921875,-0.0379638671875,-0.9659423828125,47.0,7.0,350.0,101920.0,-4.947000026702881,0,0
2559.431999,0.063751220703125,0.189971923828125,0.97943115234375,-0.0233154296875,2.50244140625,-1.3427734375,5.7373046875,-0.1458740234375,-0.0364990234375,-0.967041015625,47.0,7.0,350.0,101920.0,-4.947000026702881,0,0
2559.438031,0.063751220703125,0.189971923828125,0.97943115234375,-0.0233154296875,2.50244140625,-1.3427734375,5.7373046875,-0.1458740234375,-0.0364990234375,-0.967041015625,47.0,7.0,350.0,101920.0,-4.947000026702881,0,0
2559.445016,0.063873291015625,0.1904296875,0.97930908203125,-0.023773193359375,2.86865234375,-0.67138671875,3.35693359375,-0.138671875,-0.0430908203125,-0.9642333984375,47.0,6.0,350.0,101920.0,-4.947000026702881,0,0
2559.452004,0.06292724609375,0.228424072265625,0.97113037109375,-0.02655029296875,2.01416015625,-0.3662109375,1.89208984375,-0.1365966796875,-0.05322265625,-0.9697265625,47.0,6.0,350.0,101920.0,-4.947000026702881,0,0
2559.459018,0.06292724609375,0.22845458984375,0.97113037109375,-0.026702880859375,1.77001953125,-0.244140625,1.52587890625,-0.1370849609375,-0.0533447265625,-0.9718017578125,47.0,6.0,350.0,101920.0,-4.947000026702881,0,0
2559.465998,0.06280517578125,0.228485107421875,0.97113037109375,-0.027130126953125,1.15966796875,-5.415987671873539e+29,1.6964179464950201e-38,-1.8097249286098742e+29,-5.711048699533146e+34,5.7438722724135655e-36,1.1064934637980553e-35,-5.711049194709162e+34,1.3643311816326531e-33,1.5646198003418745e-38,-8.600832729690031e-35,56890,45400
2559.480018,0.062591552734375,0.228179931640625,0.97119140625,-0.02734375,0.732421875,0.3662109375,-1.89208984375,-0.126708984375,-0.0384521484375,-0.9825439453125,47.0,6.0,350.0,101920.0,-4.947000026702881,0,0
2559.487001,0.062530517578125,0.228057861328125,0.971221923828125,-0.02734375,-0.1220703125,1.28173828125,-3.60107421875,-0.1239013671875,-0.022705078125,-0.975341796875,47.0,6.0,350.0,101920.0,-4.947000026702881,0,0
2559.494018,0.062469482421875,0.227935791015625,0.971282958984375,-0.02728271484375,-0.18310546875,1.220703125,-3.90625,-0.1165771484375,-0.0147705078125,-0.9788818359375,47.0,6.0,350.0,101920.0,-4.949000358581543,0,0
2559.500995,0.06219482421875,0.22747802734375,0.971405029296875,-0.027130126953125,-0.06103515625,1.0986328125,-4.45556640625,-0.10986328125,-0.0086669921875,-0.9796142578125,47.0,6.0,350.0,101920.0,-4.949000358581543,0,0
2559.507995,0.06207275390625,0.227294921875,0.971435546875,-0.027069091796875,0.42724609375,1.52587890625,-5.126953125,-0.1064453125,-0.0015869140625,-0.9676513671875,47.0,6.0,350.0,101920.0,-4.949000358581543,0,0
2559.51502,0.061859130859375,0.226959228515625,0.9715576171875,-0.02691650390625,0.48828125,1.52587890625,-5.37109375,-0.1068115234375,-0.0009765625,-0.9674072265625,47.0,6.0,350.0,101920.0,-4.949000358581543,0,0
2559.521999,0.0616455078125,0.226593017578125,0.971649169921875,-0.026702880859375,-0.06103515625,1.46484375,-5.7373046875,-0.09814453125,0.01171875,-0.9630126953125,47.0,6.0,350.0,101920.0,-4.949000358581543,0,0
2559.528031,0.0616455078125,0.226593017578125,0.971649169921875,-0.026702880859375,-0.06103515625,1.46484375,-5.7373046875,-0.09814453125,0.01171875,-0.9630126953125,47.0,6.0,350.0,101920.0,-4.949000358581543,0,0
2559.535016,0.06134033203125,0.226043701171875,0.9718017578125,-0.026336669921875,-0.06103515625,0.9765625,-5.55419921875,-0.097412109375,0.0115966796875,-0.962158203125,47.0,6.0,350.0,101920.0,-4.949000358581543,0,0
2559.542004,0.061248779296875,0.225738525390625,0.971893310546875,-0.026092529296875,-0.6103515625,0.732421875,-5.43212890625,-0.09521484375,0.010986328125,-0.9615478515625,47.0,6.0,350.0,101920.0,-4.949000358581543,0,0
2559.549018,0.059783935546875,0.2757568359375,0.958892822265625,-0.02911376953125,-0.48828125,-0.732421875,-4.21142578125,-0.1046142578125,0.012451171875,-0.9583740234375,48.0,6.0,351.0,101920.0,-4.949000358581543,0,0
2559.570018,0.06011962890625,0.2752685546875,0.95904541015625,-0.02880859375,0.1220703125,-2.99072265625,-1.953125,-0.1202392578125,-0.0030517578125,-0.951416015625,48.0,6.0,351.0,101920.0,-4.949000358581543,0,0
2559.577001,0.060333251953125,0.27520751953125,0.95904541015625,-0.028839111328125,0.244140625,-2.44140625,-0.244140625,-0.134521484375,-0.0157470703125,-0.944091796875,48.0,6.0,351.0,101920.0,-4.949000358581543,0,0
2559.584018,0.06060791015625,0.2752685546875,0.959014892578125,-0.028900146484375,-0.48828125,-2.50244140625,1.03759765625,-0.1466064453125,-0.0235595703125,-0.9564208984375,48.0,6.0,351.0,101920.0,-4.949000358581543,0,0
2559.590996,0.06097412109375,0.275390625,0.95892333984375,-0.029052734375,-0.06103515625,-3.0517578125,1.77001953125,-0.152587890625,-0.027587890625,-0.9560546875,48.0,6.0,351.0,101920.0,-4.950000286102295,0,0
2559.598,0.0611572265625,0.275482177734375,0.958892822265625,-0.0291748046875,0.54931640625,-3.41796875,3.173828125,-0.1519775390625,-0.0367431640625,-0.961181640625,48.0,6.0,351.0,101920.0,-4.950000286102295,0,0
2559.60502,0.061553955078125,0.275726318359375,0.958770751953125,-0.029510498046875,1.953125,-4.638671875,4.21142578125,-0.158935546875,-0.0496826171875,-0.9560546875,48.0,6.0,351.0,101920.0,-4.950000286102295,0,0
2559.611999,0.062042236328125,0.27606201171875,0.958648681640625,-0.029937744140625,1.77001953125,-4.69970703125,5.4931640625,-0.1805419921875,-0.0516357421875,-0.9573974609375,48.0,6.0,351.0,101920.0,-4.950000286102295,0,0
2559.619016,0.062347412109375,0.276275634765625,0.95855712890625,-0.0301513671875,0.8544921875,-5.0048828125,6.4697265625,-0.1888427734375,-0.060302734375,-0.973388671875,48.0,6.0,351.0,101920.0,-4.950000286102295,0,0
2559.625051,0.062347412109375,0.276275634765625,0.95855712890625,-0.0301513671875,0.8544921875,-5.0048828125,6.4697265625,-0.1888427734375,-0.060302734375,-0.973388671875,48.0,6.0,351.0,101920.0,-4.950000286102295,0,0
2559.632004,0.0635986328125,0.27716064453125,0.95819091796875,-0.030853271484375,0.1220703125,-4.0283203125,7.080078125,-0.1845703125,-0.046630859375,-0.958740234375,48.0,6.0,351.0,101920.0,-4.950000286102295,0,0
2559.639018,0.0638427734375,0.277374267578125,0.9581298828125,-0.03094482421875,-0.6103515625,-3.60107421875,6.7138671875,-0.1800537109375,-0.045654296875,-0.96240234375,48.0,6.0,351.0,101920.0,-4.950000286102295,0,0
2559.645998,0.06427001953125,0.27777099609375,0.957977294921875,-0.0311279296875,-0.732421875,-2.8076171875,6.34765625,-0.1722412109375,-0.045654296875,-0.9669189453125,48.0,6.0,350.0,101920.0,-4.950000286102295,0,0
2559.652998,0.063262939453125,0.31494140625,0.946380615234375,-0.033782958984375,-0.18310546875,-2.197265625,5.9814453125,-0.168701171875,-0.0458984375,-0.9656982421875,48.0,6.0,350.0,101920.0,-4.950000286102295,0,0
2559.660018,0.06329345703125,0.315093994140625,0.946319580078125,-0.03387451171875,-0.1220703125,-0.48828125,5.43212890625,-0.1544189453125,-0.04931640625,-0.9725341796875,48.0,6.0,350.0,101920.0,-4.950000286102295,0,0
2559.667001,0.063323974609375,0.315582275390625,0.9461669921875,-0.033966064453125,-0.732421875,-0.244140625,4.8828125,-0.1390380859375,-0.044189453125,-0.982177734375,48.0,6.0,350.0,101920.0,-4.950000286102295,0,0
2559.674018,0.06329345703125,0.315673828125,0.946136474609375,-0.033935546875,-1.03759765625,0.18310546875,3.2958984375,-0.135498046875,-0.037109375,-0.98974609375,48.0,6.0,350.0,101920.0,-4.950000286102295,0,0
2559.680995,0.063232421875,0.315887451171875,0.946044921875,-0.033843994140625,-1.64794921875,0.1220703125,3.173828125,-0.13037109375,-0.0361328125,-0.9906005859375,48.0,6.0,350.0,101920.0,-4.950000286102295,0,0
2559.687996,0.063232421875,0.315948486328125,0.946044921875,-0.0338134765625,-1.3427734375,0.732421875,1.5869140625,-0.1341552734375,-0.02978515625,-0.986572265625,48.0,6.0,350.0,101920.0,-4.950000286102295,0,0
2559.69502,0.063201904296875,0.31597900390625,0.946044921875,-0.03375244140625,-1.52587890625,0.54931640625,0.67138671875,-0.13427734375,-0.02734375,-0.984130859375,48.0,6.0,350.0,101920.0,-4.950000286102295,0,0
2559.701999,0.063140869140625,0.315948486328125,0.946044921875,-0.033538818359375,-1.28173828125,0.42724609375,-0.91552734375,-0.1290283203125,-0.01708984375,-0.979248046875,48.0,6.0,350.0,101920.0,-4.950000286102295,0,0
2559.709016,0.0631103515625,0.315887451171875,0.946075439453125,-0.033477783203125,-1.03759765625,0.6103515625,-1.64794921875,-0.1287841796875,-0.017578125,-0.9732666015625,48.0,6.0,350.0,101920.0,-4.950000286102295,0,0
2559.715047,0.0631103515625,0.315887451171875,0.946075439453125,-0.033477783203125,-1.03759765625,0.6103515625,-1.64794921875,-0.1287841796875,-0.017578125,-0.9732666015625,48.0,6.0,350.0,101920.0,-4.950000286102295,0,0
2559.722004,0.062652587890625,0.315521240234375,0.946258544921875,-0.032958984375,-1.953125,3.47900390625,-3.96728515625,-0.1075439453125,0.0018310546875,-0.970947265625,48.0,6.0,350.0,101920.0,-4.950000286102295,0,0
2559.742998,0.061737060546875,0.314666748046875,0.946624755859375,-0.03179931640625,-1.8310546875,3.23486328125,-6.16455078125,-0.0855712890625,0.0189208984375,-0.969970703125,48.0,6.0,350.0,101921.0,-4.951000213623047,0,0
2559.750018,0.0615234375,0.31488037109375,0.94659423828125,-0.031585693359375,-1.40380859375,2.86865234375,-6.2255859375,-0.0850830078125,0.023193359375,-0.9744873046875,49.0,6.0,350.0,101921.0,-4.951000213623047,0,0
2559.757001,0.061248779296875,0.314239501953125,0.94683837890625,-0.0308837890625,-1.15966796875,2.13623046875,-6.9580078125,-0.088134765625,0.0296630859375,-0.9808349609375,49.0,6.0,350.0,101921.0,-4.951000213623047,0,0
2559.764018,0.06121826171875,0.313995361328125,0.946929931640625,-0.030670166015625,-1.220703125,-0.1220703125,-7.38525390625,-0.1019287109375,0.0411376953125,-0.9783935546875,49.0,6.0,350.0,101921.0,-4.951000213623047,0,0
2559.770995,0.061279296875,0.31353759765625,0.94708251953125,-0.030242919921875,-0.9765625,-0.48828125,-7.32421875,-0.1063232421875,0.0438232421875,-0.971435546875,49.0,6.0,350.0,101921.0,-4.951000213623047,0,0
2559.777995,0.06134033203125,0.313079833984375,0.947265625,-0.029937744140625,-0.732421875,-0.3662109375,-7.26318359375,-0.12109375,0.0289306640625,-0.960205078125,49.0,6.0,350.0,101921.0,-4.951000213623047,0,0
2559.78502,0.0614013671875,0.312835693359375,0.94732666015625,-0.029815673828125,-0.732421875,-0.48828125,-7.01904296875,-0.1282958984375,0.0245361328125,-0.959228515625,49.0,6.0,350.0,101921.0,-4.951000213623047,0,0
2559.791999,0.061553955078125,0.31243896484375,0.94744873046875,-0.02960205078125,-0.732421875,-0.6103515625,-6.65283203125,-0.1309814453125,0.0220947265625,-0.9549560546875,49.0,6.0,350.0,101921.0,-4.951000213623047,0,0
2559.799016,0.061676025390625,0.312103271484375,0.94757080078125,-0.029541015625,-0.18310546875,-1.3427734375,-4.94384765625,-0.133056640625,0.0013427734375,-0.95166015625,49.0,6.0,350.0,101921.0,-4.951000213623047,0,0
2559.805998,0.061798095703125,0.31182861328125,0.9476318359375,-0.029571533203125,0.244140625,-1.40380859375,-4.39453125,-0.1290283203125,-0.0059814453125,-0.9544677734375,49.0,6.0,350.0,101921.0,-4.951000213623047,0,0
2559.81203,0.061798095703125,0.31182861328125,0.9476318359375,-0.029571533203125,0.244140625,-1.40380859375,-4.39453125,-0.1290283203125,-0.0059814453125,-0.9544677734375,49.0,6.0,350.0,101921.0,-4.951000213623047,0,0
