Time stamp(sec),adc1,adc2,roll_angular_rate,pitch_angular_rate,yaw_angular_rate,acc_X,acc_Y,acc_Z,mag_X,mag_Y,mag_Z,pressure,altitude
0.0549161434173584,0.36138916015625,-0.451171875,0.310638427734375,-0.7545166015625,0.1220703125,-0.18310546875,-0.3662109375,0.4552001953125,-0.7926025390625,0.4000244140625,-282.0,148.0,-149.0,101713.0,-3.2300002574920654,0,0
0.0549161434173584,0.36138916015625,-0.451171875,0.310638427734375,-0.7545166015625,0.06103515625,-0.1220703125,-0.06103515625,0.45703125,-0.7947998046875,0.4012451171875,-282.0,148.0,-149.0,101713.0,-3.2300002574920654,0,0
0.0549161434173584,0.36138916015625,-0.451171875,0.31060791015625,-0.7545166015625,-0.1220703125,-0.06103515625,0.0,0.4588623046875,-0.7933349609375,0.3992919921875,-282.0,148.0,-149.0,101713.0,-3.2300002574920654,0,0
0.0549161434173584,0.36138916015625,-0.451171875,0.31060791015625,-0.7545166015625,-0.06103515625,-0.06103515625,0.06103515625,0.455078125,-0.79296875,0.400390625,-282.0,148.0,-149.0,101713.0,-3.2300002574920654,0,0
0.0549161434173584,0.36138916015625,-0.451171875,0.31060791015625,-0.7545166015625,-0.30517578125,0.1220703125,0.18310546875,0.4571533203125,-0.79345703125,0.4000244140625,-282.0,148.0,-149.0,101713.0,-3.2300002574920654,0,0
0.0549161434173584,0.36138916015625,-0.451171875,0.31060791015625,-0.7545166015625,-0.30517578125,0.1220703125,0.18310546875,0.4571533203125,-0.79345703125,0.4000244140625,-282.0,148.0,-149.0,101713.0,-3.2300002574920654,0,0
0.0549161434173584,0.36138916015625,-0.451171875,0.31060791015625,-0.7545166015625,0.06103515625,-0.3662109375,0.30517578125,0.4552001953125,-0.7933349609375,0.39892578125,-282.0,149.0,-149.0,101713.0,-3.2280001640319824,0,0
0.0549161434173584,0.36138916015625,-0.451171875,0.31060791015625,-0.7545166015625,-0.244140625,0.06103515625,0.244140625,0.4556884765625,-0.7908935546875,0.39794921875,-282.0,149.0,-149.0,101713.0,-3.2280001640319824,0,0
0.0549161434173584,0.36138916015625,-0.451171875,0.31060791015625,-0.7545166015625,0.18310546875,0.1220703125,0.1220703125,0.4539794921875,-0.7940673828125,0.3973388671875,-282.0,149.0,-149.0,101713.0,-3.2280001640319824,0,0
0.0549161434173584,0.36138916015625,-0.451171875,0.310638427734375,-0.7545166015625,0.0,-0.06103515625,0.18310546875,0.4544677734375,-0.7930908203125,0.3975830078125,-282.0,149.0,-149.0,101713.0,-3.2280001640319824,0,0
0.0549161434173584,0.36138916015625,-0.451171875,0.310638427734375,-0.7545166015625,0.0,-0.244140625,-0.1220703125,0.4541015625,-0.79296875,0.39990234375,-282.0,149.0,-149.0,101713.0,-3.2280001640319824,0,0
0.0549161434173584,0.36138916015625,-0.451171875,0.31060791015625,-0.7545166015625,0.244140625,-0.3662109375,-0.1220703125,0.4571533203125,-0.793212890625,0.399658203125,-282.0,149.0,-149.0,101713.0,-3.2280001640319824,0,0
0.0549161434173584,0.36138916015625,-0.451171875,0.31060791015625,-0.7545166015625,-0.1220703125,0.0,-0.244140625,0.4547119140625,-0.7935791015625,0.3997802734375,-282.0,149.0,-149.0,101713.0,-3.2280001640319824,0,0
0.1178579330444336,0.36138916015625,-0.451171875,0.31060791015625,-0.7545166015625,-0.06103515625,-0.244140625,-0.42724609375,0.4554443359375,-0.79150390625,0.4002685546875,-282.0,149.0,-149.0,101713.0,-3.2280001640319824,0,0
0.1178579330444336,0.36138916015625,-0.451202392578125,0.31060791015625,-0.7545166015625,0.18310546875,-0.1220703125,-0.30517578125,0.4576416015625,-0.7930908203125,0.3980712890625,-282.0,149.0,-149.0,101713.0,-3.2280001640319824,0,0
0.1178579330444336,0.36138916015625,-0.451202392578125,0.31060791015625,-0.7545166015625,0.244140625,-0.18310546875,-0.3662109375,0.4541015625,-0.792236328125,0.3970947265625,-282.0,149.0,-149.0,101713.0,-3.2280001640319824,0,0
0.11840629577636719,0.36138916015625,-0.451202392578125,0.31060791015625,-0.7545166015625,-0.18310546875,-0.30517578125,0.06103515625,0.4547119140625,-0.7933349609375,0.396728515625,-282.0,149.0,-149.0,101713.0,-3.2280001640319824,0,0
0.11840629577636719,0.36138916015625,-0.451202392578125,0.31060791015625,-0.7545166015625,-0.244140625,-0.18310546875,0.1220703125,0.455078125,-0.7930908203125,0.3978271484375,-282.0,149.0,-149.0,101713.0,-3.2280001640319824,0,0
0.11840629577636719,0.36138916015625,-0.451202392578125,0.31060791015625,-0.7545166015625,0.06103515625,-0.18310546875,-0.06103515625,0.4554443359375,-0.7923583984375,0.400146484375,-282.0,149.0,-149.0,101713.0,-3.2280001640319824,0,0
0.11840629577636719,0.36138916015625,-0.451202392578125,0.31060791015625,-0.7545166015625,0.06103515625,0.06103515625,0.06103515625,0.4556884765625,-0.792724609375,0.3974609375,-282.0,149.0,-149.0,101713.0,-3.2280001640319824,0,0
0.11840629577636719,0.36138916015625,-0.451202392578125,0.31060791015625,-0.7545166015625,-0.1220703125,0.0,0.1220703125,0.455078125,-0.79443359375,0.3997802734375,-282.0,149.0,-149.0,101713.0,-3.2280001640319824,0,0
0.11840629577636719,0.36138916015625,-0.451202392578125,0.31060791015625,-0.7545166015625,0.18310546875,-0.06103515625,0.06103515625,0.4554443359375,-0.793212890625,0.3978271484375,-282.0,149.0,-149.0,101713.0,-3.2280001640319824,0,0
0.11840629577636719,0.36138916015625,-0.451202392578125,0.31060791015625,-0.7545166015625,0.18310546875,-0.06103515625,0.06103515625,0.4554443359375,-0.793212890625,0.3978271484375,-282.0,149.0,-149.0,101713.0,-3.2280001640319824,0,0
0.11840629577636719,0.36138916015625,-0.451202392578125,0.31060791015625,-0.7545166015625,-0.18310546875,-0.06103515625,0.0,0.4542236328125,-0.791259765625,0.3992919921875,-282.0,149.0,-149.0,101713.0,-3.2280001640319824,0,0
0.18299221992492676,0.36126708984375,-0.451141357421875,0.3106689453125,-0.75457763671875,0.06103515625,0.06103515625,-0.30517578125,0.4532470703125,-0.7921142578125,0.4000244140625,-283.0,149.0,-150.0,101713.0,-3.2280001640319824,0,0
0.18299221992492676,0.361297607421875,-0.451141357421875,0.3106689453125,-0.75457763671875,0.30517578125,-0.1220703125,0.0,0.4532470703125,-0.7919921875,0.39697265625,-283.0,149.0,-150.0,101713.0,-3.2280001640319824,0,0
0.18299221992492676,0.36126708984375,-0.451141357421875,0.3106689453125,-0.75457763671875,-0.18310546875,-0.06103515625,-0.06103515625,0.4552001953125,-0.791748046875,0.3985595703125,-283.0,149.0,-150.0,101713.0,-3.2280001640319824,0,0
0.18299221992492676,0.36126708984375,-0.451141357421875,0.3106689453125,-0.75457763671875,-0.18310546875,-0.1220703125,0.0,0.4576416015625,-0.7908935546875,0.3983154296875,-283.0,149.0,-150.0,101713.0,-3.2280001640319824,0,0
0.18299221992492676,0.36126708984375,-0.451141357421875,0.3106689453125,-0.75457763671875,-0.06103515625,-0.18310546875,-0.18310546875,0.4566650390625,-0.790771484375,0.3973388671875,-283.0,149.0,-150.0,101713.0,-3.2280001640319824,0,0
0.18299221992492676,0.36126708984375,-0.451141357421875,0.3106689453125,-0.75457763671875,-0.244140625,-0.30517578125,-0.1220703125,0.4569091796875,-0.792724609375,0.3990478515625,-283.0,149.0,-150.0,101713.0,-3.2280001640319824,0,0
0.18299221992492676,0.36126708984375,-0.451141357421875,0.3106689453125,-0.75457763671875,-0.244140625,-0.30517578125,-0.1220703125,0.4569091796875,-0.792724609375,0.3990478515625,-283.0,149.0,-150.0,101713.0,-3.2280001640319824,0,0
0.18358898162841797,0.36126708984375,-0.451171875,0.3106689453125,-0.75457763671875,-0.06103515625,-0.1220703125,-0.18310546875,0.455810546875,-0.7939453125,0.397216796875,-283.0,149.0,-150.0,101713.0,-3.2280001640319824,0,0
0.18358898162841797,0.36126708984375,-0.451171875,0.3106689453125,-0.75457763671875,-0.18310546875,-0.3662109375,0.0,0.455322265625,-0.7933349609375,0.3978271484375,-283.0,149.0,-150.0,101713.0,-3.2310001850128174,0,0
0.18358898162841797,0.36126708984375,-0.451171875,0.3106689453125,-0.75457763671875,-0.06103515625,-0.1220703125,0.0,0.457763671875,-0.7919921875,0.3978271484375,-283.0,149.0,-150.0,101713.0,-3.2310001850128174,0,0
0.18358898162841797,0.36126708984375,-0.451171875,0.310638427734375,-0.75457763671875,-0.1220703125,-0.06103515625,-0.1220703125,0.455322265625,-0.79296875,0.3988037109375,-283.0,149.0,-150.0,101713.0,-3.2310001850128174,0,0
0.2452399730682373,0.36126708984375,-0.451171875,0.3106689453125,-0.75457763671875,0.0,-0.1220703125,-0.06103515625,0.4547119140625,-0.792724609375,0.3984375,-283.0,149.0,-150.0,101713.0,-3.2310001850128174,0,0
0.2452399730682373,0.36126708984375,-0.451171875,0.3106689453125,-0.75457763671875,0.06103515625,0.06103515625,-0.06103515625,0.4556884765625,-0.793701171875,0.398681640625,-283.0,149.0,-150.0,101713.0,-3.2310001850128174,0,0
0.24619698524475098,0.36126708984375,-0.451171875,0.310638427734375,-0.75457763671875,0.244140625,-0.244140625,-0.1220703125,0.4569091796875,-0.7911376953125,0.3975830078125,-283.0,149.0,-150.0,101713.0,-3.2310001850128174,0,0
0.24619698524475098,0.36126708984375,-0.451171875,0.310638427734375,-0.75457763671875,-0.06103515625,-0.18310546875,-0.1220703125,0.4571533203125,-0.790283203125,0.398681640625,-283.0,149.0,-150.0,101713.0,-3.2310001850128174,0,0
0.24619698524475098,0.36126708984375,-0.451171875,0.310638427734375,-0.75457763671875,-0.06103515625,-0.18310546875,-0.1220703125,0.4571533203125,-0.790283203125,0.398681640625,-283.0,149.0,-150.0,101713.0,-3.2310001850128174,0,0
0.24619698524475098,0.36126708984375,-0.451171875,0.310638427734375,-0.75457763671875,0.18310546875,-0.1220703125,-0.06103515625,0.4559326171875,-0.794921875,0.3994140625,-283.0,149.0,-150.0,101713.0,-3.2310001850128174,0,0
0.24619698524475098,0.36126708984375,-0.451171875,0.310638427734375,-0.75457763671875,-0.1220703125,-0.244140625,0.06103515625,0.4564208984375,-0.7904052734375,0.400390625,-283.0,149.0,-150.0,101713.0,-3.2310001850128174,0,0
0.24619698524475098,0.361236572265625,-0.451171875,0.310638427734375,-0.75457763671875,0.06103515625,-0.3662109375,-0.06103515625,0.458740234375,-0.79296875,0.3990478515625,-283.0,149.0,-150.0,101713.0,-3.2310001850128174,0,0
0.24619698524475098,0.36114501953125,-0.45111083984375,0.310699462890625,-0.754638671875,0.06103515625,-0.3662109375,-0.06103515625,0.458740234375,-0.79296875,0.3990478515625,-283.0,150.0,-151.0,101713.0,-3.2310001850128174,0,0
0.24619698524475098,0.36114501953125,-0.45111083984375,0.310699462890625,-0.754638671875,-0.1220703125,-0.18310546875,-0.06103515625,0.4560546875,-0.793701171875,0.4007568359375,-283.0,150.0,-151.0,101713.0,-3.2310001850128174,0,0
0.24619698524475098,0.36114501953125,-0.45111083984375,0.310699462890625,-0.754638671875,0.18310546875,-0.244140625,0.0,0.455322265625,-0.7918701171875,0.3990478515625,-283.0,150.0,-151.0,101713.0,-3.2310001850128174,0,0
0.24619698524475098,0.36114501953125,-0.45111083984375,0.310699462890625,-0.754638671875,-0.1220703125,-0.1220703125,-0.18310546875,0.455810546875,-0.7945556640625,0.3997802734375,-283.0,150.0,-151.0,101713.0,-3.2310001850128174,0,0
0.24619698524475098,0.36114501953125,-0.451141357421875,0.310699462890625,-0.754638671875,0.0,-0.06103515625,0.0,0.4559326171875,-0.7943115234375,0.3985595703125,-283.0,150.0,-151.0,101713.0,-3.2310001850128174,0,0
0.3105812072753906,0.36114501953125,-0.451141357421875,0.310699462890625,-0.754638671875,0.244140625,-0.3662109375,0.0,0.45458984375,-0.7923583984375,0.3980712890625,-283.0,150.0,-151.0,101713.0,-3.2310001850128174,0,0
0.3105812072753906,0.36114501953125,-0.45111083984375,0.310699462890625,-0.754638671875,-0.18310546875,-0.244140625,-0.06103515625,0.456787109375,-0.7911376953125,0.4005126953125,-283.0,150.0,-151.0,101713.0,-3.2310001850128174,0,0
0.3105812072753906,0.36114501953125,-0.45111083984375,0.310699462890625,-0.754638671875,0.0,-0.18310546875,-0.1220703125,0.45166015625,-0.7899169921875,0.3983154296875,-283.0,150.0,-151.0,101713.0,-3.2310001850128174,0,0
0.3105812072753906,0.36114501953125,-0.45111083984375,0.310699462890625,-0.754638671875,0.0,0.06103515625,-0.244140625,0.454345703125,-0.7890625,0.3975830078125,-283.0,150.0,-151.0,101713.0,-3.2250001430511475,0,0
0.3105812072753906,0.36114501953125,-0.45111083984375,0.310699462890625,-0.754638671875,0.06103515625,-0.06103515625,-0.06103515625,0.4541015625,-0.7916259765625,0.3988037109375,-283.0,150.0,-151.0,101713.0,-3.2250001430511475,0,0
0.31137537956237793,0.36114501953125,-0.45111083984375,0.3106689453125,-0.754638671875,0.06103515625,0.30517578125,-0.18310546875,0.4544677734375,-0.7918701171875,0.398681640625,-283.0,150.0,-151.0,101713.0,-3.2250001430511475,0,0
0.31137537956237793,0.36114501953125,-0.45111083984375,0.3106689453125,-0.754638671875,-0.1220703125,-0.244140625,-0.1220703125,0.455078125,-0.7928466796875,0.4013671875,-283.0,150.0,-151.0,101713.0,-3.2250001430511475,0,0
0.31137537956237793,0.36114501953125,-0.45111083984375,0.3106689453125,-0.754638671875,-0.06103515625,0.06103515625,-0.244140625,0.456298828125,-0.7926025390625,0.3995361328125,-283.0,150.0,-151.0,101713.0,-3.2250001430511475,0,0
0.31137537956237793,0.36114501953125,-0.45111083984375,0.3106689453125,-0.754638671875,-0.06103515625,0.06103515625,-0.244140625,0.456298828125,-0.7926025390625,0.3995361328125,-283.0,150.0,-151.0,101713.0,-3.2250001430511475,0,0
0.31137537956237793,0.36114501953125,-0.45111083984375,0.3106689453125,-0.754638671875,-0.18310546875,0.0,-0.18310546875,0.4549560546875,-0.7939453125,0.400146484375,-283.0,150.0,-151.0,101713.0,-3.2250001430511475,0,0
0.31137537956237793,0.36114501953125,-0.45111083984375,0.3106689453125,-0.754638671875,0.30517578125,0.1220703125,-0.06103515625,0.4566650390625,-0.79443359375,0.3988037109375,-283.0,150.0,-151.0,101713.0,-3.2250001430511475,0,0
0.375624418258667,0.36114501953125,-0.45111083984375,0.3106689453125,-0.754638671875,-0.1220703125,-0.1220703125,-0.06103515625,0.45458984375,-0.791748046875,0.4002685546875,-283.0,150.0,-151.0,101713.0,-3.2250001430511475,0,0
0.375624418258667,0.360809326171875,-0.450958251953125,0.310882568359375,-0.75482177734375,0.06103515625,0.0,0.1220703125,0.4542236328125,-0.791748046875,0.3988037109375,-283.0,150.0,-151.0,101713.0,-3.2250001430511475,0,0
0.375624418258667,0.360809326171875,-0.45098876953125,0.310882568359375,-0.754791259765625,-0.1220703125,0.0,-0.1220703125,0.457275390625,-0.79296875,0.396484375,-283.0,150.0,-151.0,101713.0,-3.2250001430511475,0,0
0.375624418258667,0.360809326171875,-0.45098876953125,0.310882568359375,-0.754791259765625,0.1220703125,0.0,-0.1220703125,0.455078125,-0.7933349609375,0.39794921875,-283.0,150.0,-151.0,101713.0,-3.2250001430511475,0,0
0.375624418258667,0.360809326171875,-0.45098876953125,0.310882568359375,-0.754791259765625,0.1220703125,0.06103515625,-0.42724609375,0.45458984375,-0.791015625,0.3974609375,-283.0,150.0,-151.0,101713.0,-3.2250001430511475,0,0
0.3760261535644531,0.360809326171875,-0.45098876953125,0.310882568359375,-0.754791259765625,0.1220703125,0.06103515625,-0.42724609375,0.45458984375,-0.791015625,0.3974609375,-283.0,150.0,-151.0,101713.0,-3.2250001430511475,0,0
0.3760261535644531,0.360809326171875,-0.45098876953125,0.310882568359375,-0.754791259765625,0.06103515625,-0.06103515625,-0.30517578125,0.455078125,-0.7926025390625,0.3966064453125,-283.0,150.0,-151.0,101713.0,-3.2250001430511475,0,0
0.3760261535644531,0.360809326171875,-0.45098876953125,0.310882568359375,-0.754791259765625,-0.1220703125,-0.1220703125,-0.18310546875,0.4549560546875,-0.79296875,0.3973388671875,-283.0,150.0,-151.0,101713.0,-3.2250001430511475,0,0
0.3760261535644531,0.360809326171875,-0.45098876953125,0.310882568359375,-0.754791259765625,0.06103515625,-0.244140625,-0.18310546875,0.4566650390625,-0.7921142578125,0.3985595703125,-283.0,150.0,-151.0,101713.0,-3.2250001430511475,0,0
0.3760261535644531,0.360809326171875,-0.45098876953125,0.310882568359375,-0.754791259765625,0.0,-0.06103515625,-0.1220703125,0.455078125,-0.791259765625,0.3988037109375,-283.0,150.0,-151.0,101713.0,-3.2250001430511475,0,0
0.3760261535644531,0.360809326171875,-0.45098876953125,0.310882568359375,-0.754791259765625,-0.1220703125,-0.30517578125,-0.1220703125,0.455322265625,-0.7926025390625,0.39990234375,-283.0,150.0,-151.0,101713.0,-3.2250001430511475,0,0
0.44232630729675293,0.360809326171875,-0.45098876953125,0.310882568359375,-0.754791259765625,-0.244140625,-0.06103515625,-0.1220703125,0.4534912109375,-0.7901611328125,0.3984375,-283.0,150.0,-151.0,101713.0,-3.2300002574920654,0,0
0.44232630729675293,0.360809326171875,-0.45098876953125,0.310882568359375,-0.754791259765625,-0.18310546875,0.18310546875,0.1220703125,0.4576416015625,-0.788818359375,0.3988037109375,-283.0,150.0,-151.0,101713.0,-3.2300002574920654,0,0
0.44232630729675293,0.360809326171875,-0.45098876953125,0.310882568359375,-0.754791259765625,-0.1220703125,-0.3662109375,0.18310546875,0.45703125,-0.7928466796875,0.39990234375,-283.0,150.0,-151.0,101713.0,-3.2300002574920654,0,0
0.44232630729675293,0.360809326171875,-0.45098876953125,0.310882568359375,-0.754791259765625,-0.1220703125,-0.3662109375,0.18310546875,0.45703125,-0.7928466796875,0.39990234375,-283.0,150.0,-151.0,101713.0,-3.2300002574920654,0,0
0.44232630729675293,0.360809326171875,-0.45098876953125,0.310882568359375,-0.754791259765625,-0.06103515625,0.18310546875,0.244140625,0.4541015625,-0.79248046875,0.400634765625,-283.0,150.0,-151.0,101713.0,-3.2300002574920654,0,0
0.44232630729675293,0.360809326171875,-0.45098876953125,0.310882568359375,-0.754791259765625,-0.244140625,-0.18310546875,0.18310546875,0.453857421875,-0.791748046875,0.3968505859375,-283.0,150.0,-151.0,101713.0,-3.2300002574920654,0,0
0.44232630729675293,0.360809326171875,-0.45098876953125,0.310882568359375,-0.754791259765625,0.06103515625,-0.06103515625,-0.18310546875,0.455322265625,-0.7906494140625,0.3990478515625,-283.0,150.0,-151.0,101713.0,-3.2300002574920654,0,0
0.44232630729675293,0.360809326171875,-0.45098876953125,0.310882568359375,-0.754791259765625,0.06103515625,-0.18310546875,-0.1220703125,0.4552001953125,-0.79248046875,0.3983154296875,-283.0,150.0,-151.0,101713.0,-3.2300002574920654,0,0
0.44232630729675293,0.360809326171875,-0.45098876953125,0.31085205078125,-0.75482177734375,0.1220703125,0.0,-0.244140625,0.4554443359375,-0.7908935546875,0.3994140625,-283.0,150.0,-151.0,101713.0,-3.2300002574920654,0,0
0.44291138648986816,0.360809326171875,-0.45098876953125,0.310882568359375,-0.75482177734375,0.1220703125,0.0,-0.244140625,0.4554443359375,-0.7908935546875,0.3994140625,-283.0,150.0,-151.0,101713.0,-3.2300002574920654,0,0
0.44291138648986816,0.360809326171875,-0.45098876953125,0.310882568359375,-0.75482177734375,0.1220703125,-0.244140625,-0.06103515625,0.453857421875,-0.7919921875,0.3978271484375,-284.0,150.0,-152.0,101713.0,-3.2300002574920654,0,0
0.44291138648986816,0.360595703125,-0.450897216796875,0.311004638671875,-0.754913330078125,-0.18310546875,-0.06103515625,-0.18310546875,0.4544677734375,-0.7916259765625,0.3997802734375,-284.0,150.0,-152.0,101713.0,-3.2300002574920654,0,0
0.44291138648986816,0.360595703125,-0.450897216796875,0.311004638671875,-0.754913330078125,0.0,-0.1220703125,-0.48828125,0.4547119140625,-0.7921142578125,0.3990478515625,-284.0,150.0,-152.0,101713.0,-3.2300002574920654,0,0
0.5015933513641357,0.360595703125,-0.450897216796875,0.31097412109375,-0.754913330078125,-0.18310546875,-0.244140625,-0.06103515625,0.4576416015625,-0.7921142578125,0.3968505859375,-284.0,150.0,-152.0,101713.0,-3.2300002574920654,0,0
0.5015933513641357,0.360595703125,-0.450897216796875,0.311004638671875,-0.754913330078125,-0.244140625,-0.244140625,-0.06103515625,0.455078125,-0.7933349609375,0.39892578125,-284.0,150.0,-152.0,101713.0,-3.2300002574920654,0,0
0.5015933513641357,0.360595703125,-0.450897216796875,0.311004638671875,-0.754913330078125,0.06103515625,-0.18310546875,0.06103515625,0.4539794921875,-0.793212890625,0.3994140625,-284.0,150.0,-152.0,101713.0,-3.2300002574920654,0,0
0.5015933513641357,0.360595703125,-0.450897216796875,0.311004638671875,-0.754913330078125,-0.1220703125,-0.244140625,0.0,0.4527587890625,-0.7930908203125,0.3975830078125,-284.0,150.0,-152.0,101713.0,-3.2300002574920654,0,0
0.5015933513641357,0.360595703125,-0.450897216796875,0.311004638671875,-0.754913330078125,0.30517578125,0.06103515625,0.244140625,0.4549560546875,-0.793701171875,0.396728515625,-284.0,150.0,-152.0,101713.0,-3.2260000705718994,0,0
0.5019638538360596,0.360595703125,-0.450897216796875,0.311004638671875,-0.754913330078125,-0.06103515625,0.0,-0.06103515625,0.4573974609375,-0.79248046875,0.39990234375,-284.0,150.0,-152.0,101713.0,-3.2260000705718994,0,0
0.5025873184204102,0.360595703125,-0.450897216796875,0.311004638671875,-0.754913330078125,-0.244140625,-0.18310546875,0.1220703125,0.455322265625,-0.7928466796875,0.4014892578125,-284.0,150.0,-152.0,101713.0,-3.2260000705718994,0,0
0.5025873184204102,0.360595703125,-0.450897216796875,0.311004638671875,-0.754913330078125,-0.244140625,-0.18310546875,0.1220703125,0.455322265625,-0.7928466796875,0.4014892578125,-284.0,150.0,-152.0,101713.0,-3.2260000705718994,0,0
0.5025873184204102,0.360595703125,-0.450897216796875,0.311004638671875,-0.754913330078125,-0.30517578125,-0.1220703125,0.1220703125,0.45458984375,-0.7919921875,0.398681640625,-284.0,150.0,-152.0,101713.0,-3.2260000705718994,0,0
0.5025873184204102,0.360595703125,-0.450897216796875,0.311004638671875,-0.754913330078125,-0.18310546875,-0.244140625,-0.18310546875,0.4542236328125,-0.7952880859375,0.3988037109375,-284.0,150.0,-152.0,101713.0,-3.2260000705718994,0,0
0.5025873184204102,0.360595703125,-0.450897216796875,0.311004638671875,-0.754913330078125,0.244140625,-0.06103515625,-0.1220703125,0.4554443359375,-0.792236328125,0.3990478515625,-284.0,150.0,-152.0,101713.0,-3.2260000705718994,0,0
0.561767578125,0.360595703125,-0.450897216796875,0.311004638671875,-0.754913330078125,0.06103515625,-0.18310546875,-0.3662109375,0.4552001953125,-0.79296875,0.398193359375,-284.0,150.0,-152.0,101713.0,-3.2260000705718994,0,0
0.561767578125,0.360595703125,-0.450897216796875,0.311004638671875,-0.754913330078125,0.1220703125,-0.3662109375,0.0,0.45654296875,-0.7926025390625,0.3973388671875,-284.0,150.0,-152.0,101713.0,-3.2260000705718994,0,0
0.562720537185669,0.360595703125,-0.450897216796875,0.311004638671875,-0.754913330078125,0.30517578125,-0.06103515625,-0.18310546875,0.455078125,-0.792724609375,0.39892578125,-284.0,150.0,-152.0,101713.0,-3.2260000705718994,0,0
0.562720537185669,0.36016845703125,-0.450714111328125,0.311279296875,-0.755126953125,0.18310546875,0.0,-0.18310546875,0.4559326171875,-0.792724609375,0.3985595703125,-282.0,150.0,-153.0,101713.0,-3.2260000705718994,0,0
0.562720537185669,0.36016845703125,-0.450714111328125,0.311279296875,-0.755126953125,0.18310546875,0.0,-0.18310546875,0.4559326171875,-0.792724609375,0.3985595703125,-282.0,150.0,-153.0,101713.0,-3.2260000705718994,0,0
0.5643620491027832,0.360137939453125,-0.450714111328125,0.311279296875,-0.755096435546875,-0.244140625,-0.18310546875,0.1220703125,0.4573974609375,-0.7926025390625,0.3975830078125,-282.0,150.0,-153.0,101713.0,-3.2260000705718994,0,0
0.5643620491027832,0.360137939453125,-0.450714111328125,0.311279296875,-0.755096435546875,0.0,-0.18310546875,-0.1220703125,0.4549560546875,-0.792724609375,0.3970947265625,-282.0,150.0,-153.0,101713.0,-3.2260000705718994,0,0
0.5643620491027832,0.360137939453125,-0.450714111328125,0.311279296875,-0.755096435546875,-0.18310546875,0.0,0.0,0.45361328125,-0.792236328125,0.3995361328125,-282.0,150.0,-153.0,101713.0,-3.2260000705718994,0,0
0.5643620491027832,0.360137939453125,-0.450714111328125,0.311279296875,-0.755096435546875,-0.06103515625,-0.18310546875,0.244140625,0.4561767578125,-0.7918701171875,0.3985595703125,-282.0,150.0,-153.0,101713.0,-3.2260000705718994,0,0
0.5643620491027832,0.360137939453125,-0.450714111328125,0.311279296875,-0.755096435546875,-0.06103515625,-0.1220703125,-0.06103515625,0.4539794921875,-0.79248046875,0.396728515625,-282.0,150.0,-153.0,101713.0,-3.2260000705718994,0,0
0.5643620491027832,0.360137939453125,-0.450714111328125,0.311279296875,-0.755096435546875,-0.42724609375,-0.06103515625,-0.18310546875,0.4547119140625,-0.7919921875,0.3974609375,-282.0,150.0,-153.0,101713.0,-3.2260000705718994,0,0
0.6255655288696289,0.360137939453125,-0.450714111328125,0.311279296875,-0.755096435546875,-0.18310546875,-0.1220703125,0.06103515625,0.4547119140625,-0.7913818359375,0.3988037109375,-282.0,150.0,-153.0,101713.0,-3.2260000705718994,0,0
0.6255655288696289,0.360137939453125,-0.450714111328125,0.311279296875,-0.755096435546875,0.0,-0.244140625,0.244140625,0.455078125,-0.791748046875,0.3970947265625,-282.0,150.0,-153.0,101713.0,-3.2300002574920654,0,0
0.6255655288696289,0.360137939453125,-0.450714111328125,0.311279296875,-0.755096435546875,0.0,-0.244140625,0.244140625,0.455078125,-0.791748046875,0.3970947265625,-282.0,150.0,-153.0,101713.0,-3.2300002574920654,0,0
0.6255655288696289,0.36016845703125,-0.450714111328125,0.311309814453125,-0.755096435546875,0.244140625,-0.244140625,-0.244140625,0.453369140625,-0.7921142578125,0.3988037109375,-282.0,150.0,-153.0,101713.0,-3.2300002574920654,0,0
0.6255655288696289,0.360137939453125,-0.45074462890625,0.311279296875,-0.755096435546875,0.1220703125,-0.1220703125,-0.06103515625,0.45703125,-0.7913818359375,0.39892578125,-282.0,150.0,-153.0,101713.0,-3.2300002574920654,0,0
0.6255655288696289,0.360137939453125,-0.45074462890625,0.311279296875,-0.755096435546875,-0.18310546875,-0.244140625,-0.30517578125,0.455810546875,-0.7918701171875,0.3983154296875,-282.0,150.0,-153.0,101713.0,-3.2300002574920654,0,0
0.6255655288696289,0.360137939453125,-0.450714111328125,0.311279296875,-0.755096435546875,0.06103515625,-0.30517578125,-0.06103515625,0.4542236328125,-0.792236328125,0.399169921875,-282.0,150.0,-153.0,101713.0,-3.2300002574920654,0,0
0.6265733242034912,0.360137939453125,-0.45074462890625,0.311279296875,-0.755096435546875,-0.18310546875,-0.244140625,-0.1220703125,0.45458984375,-0.793212890625,0.3975830078125,-282.0,150.0,-153.0,101713.0,-3.2300002574920654,0,0
0.6265733242034912,0.360137939453125,-0.45074462890625,0.311309814453125,-0.755096435546875,-0.06103515625,-0.06103515625,-0.3662109375,0.45556640625,-0.793212890625,0.3963623046875,-282.0,150.0,-153.0,101713.0,-3.2300002574920654,0,0
0.6265733242034912,0.360137939453125,-0.45074462890625,0.311309814453125,-0.755096435546875,-0.18310546875,-0.18310546875,-0.06103515625,0.4552001953125,-0.79052734375,0.3968505859375,-282.0,150.0,-153.0,101713.0,-3.2300002574920654,0,0
0.6265733242034912,0.360137939453125,-0.45074462890625,0.311279296875,-0.755096435546875,0.18310546875,-0.1220703125,-0.18310546875,0.4578857421875,-0.790771484375,0.39892578125,-282.0,150.0,-153.0,101713.0,-3.2300002574920654,0,0
0.6276719570159912,0.360137939453125,-0.45074462890625,0.311279296875,-0.755096435546875,0.18310546875,-0.1220703125,-0.18310546875,0.4578857421875,-0.790771484375,0.39892578125,-282.0,150.0,-153.0,101713.0,-3.2300002574920654,0,0
0.6276719570159912,0.360137939453125,-0.45074462890625,0.311279296875,-0.755096435546875,0.18310546875,-0.1220703125,-0.18310546875,0.4578857421875,-0.790771484375,0.39892578125,-282.0,150.0,-153.0,101713.0,-3.2300002574920654,0,0
0.6922369003295898,0.35992431640625,-0.450653076171875,0.311431884765625,-0.75518798828125,-0.244140625,-0.244140625,0.06103515625,0.4556884765625,-0.7939453125,0.3963623046875,-282.0,151.0,-153.0,101713.0,-3.2300002574920654,0,0
0.6922369003295898,0.35992431640625,-0.450653076171875,0.311431884765625,-0.75518798828125,-0.244140625,-0.1220703125,0.0,0.4571533203125,-0.7928466796875,0.400146484375,-282.0,151.0,-153.0,101713.0,-3.2300002574920654,0,0
0.6922369003295898,0.35992431640625,-0.450653076171875,0.311431884765625,-0.75518798828125,0.0,0.0,-0.18310546875,0.4566650390625,-0.79345703125,0.39892578125,-282.0,151.0,-153.0,101713.0,-3.2300002574920654,0,0
0.6922369003295898,0.35992431640625,-0.450653076171875,0.311431884765625,-0.75518798828125,-0.30517578125,-0.18310546875,0.18310546875,0.454345703125,-0.7947998046875,0.398193359375,-282.0,151.0,-153.0,101713.0,-3.2300002574920654,0,0
0.6922369003295898,0.35992431640625,-0.450653076171875,0.311431884765625,-0.75518798828125,0.06103515625,-0.244140625,0.0,0.4534912109375,-0.7923583984375,0.400146484375,-282.0,151.0,-153.0,101713.0,-3.2300002574920654,0,0
0.6932051181793213,0.35992431640625,-0.45068359375,0.311431884765625,-0.75518798828125,0.30517578125,-0.1220703125,-0.30517578125,0.45556640625,-0.7908935546875,0.398193359375,-282.0,151.0,-153.0,101713.0,-3.2300002574920654,0,0
0.6932051181793213,0.35992431640625,-0.45068359375,0.311431884765625,-0.75518798828125,0.30517578125,-0.1220703125,-0.30517578125,0.45556640625,-0.7908935546875,0.398193359375,-282.0,151.0,-153.0,101713.0,-3.2300002574920654,0,0
0.6932051181793213,0.35992431640625,-0.450653076171875,0.311431884765625,-0.75518798828125,0.0,-0.1220703125,-0.42724609375,0.4539794921875,-0.7911376953125,0.39990234375,-282.0,151.0,-153.0,101713.0,-3.2250001430511475,0,0
0.6932051181793213,0.35992431640625,-0.450653076171875,0.311431884765625,-0.75518798828125,0.0,-0.1220703125,-0.42724609375,0.4539794921875,-0.7911376953125,0.39990234375,-282.0,151.0,-153.0,101713.0,-3.2250001430511475,0,0
0.6932051181793213,0.35992431640625,-0.450653076171875,0.3114013671875,-0.75518798828125,0.06103515625,-0.18310546875,0.0,0.4556884765625,-0.79345703125,0.39892578125,-282.0,151.0,-153.0,101713.0,-3.2250001430511475,0,0
0.6932051181793213,0.35992431640625,-0.450653076171875,0.3114013671875,-0.75518798828125,0.244140625,-0.18310546875,0.0,0.4556884765625,-0.79248046875,0.3995361328125,-282.0,151.0,-153.0,101713.0,-3.2250001430511475,0,0
0.7544105052947998,0.35992431640625,-0.450653076171875,0.3114013671875,-0.75518798828125,0.244140625,-0.30517578125,-0.06103515625,0.454833984375,-0.7919921875,0.398193359375,-282.0,151.0,-153.0,101713.0,-3.2250001430511475,0,0
0.7545604705810547,0.35992431640625,-0.450653076171875,0.3114013671875,-0.75518798828125,0.0,-0.1220703125,-0.18310546875,0.454345703125,-0.79150390625,0.398681640625,-282.0,151.0,-153.0,101713.0,-3.2250001430511475,0,0
0.7545604705810547,0.35992431640625,-0.450653076171875,0.3114013671875,-0.75518798828125,0.06103515625,-0.1220703125,-0.244140625,0.4537353515625,-0.7923583984375,0.39794921875,-282.0,151.0,-153.0,101713.0,-3.2250001430511475,0,0
0.7545604705810547,0.35992431640625,-0.450653076171875,0.3114013671875,-0.75518798828125,0.06103515625,-0.1220703125,-0.244140625,0.4537353515625,-0.7923583984375,0.39794921875,-282.0,151.0,-153.0,101713.0,-3.2250001430511475,0,0
0.7545604705810547,0.35992431640625,-0.450653076171875,0.3114013671875,-0.755218505859375,0.0,0.0,0.1220703125,0.4541015625,-0.79150390625,0.4007568359375,-281.0,151.0,-152.0,101713.0,-3.2250001430511475,0,0
0.7555968761444092,0.35980224609375,-0.450592041015625,0.31146240234375,-0.7552490234375,-0.1220703125,0.0,-0.06103515625,0.4541015625,-0.7923583984375,0.39892578125,-281.0,151.0,-152.0,101713.0,-3.2250001430511475,0,0
0.7565686702728271,0.35980224609375,-0.450592041015625,0.311492919921875,-0.7552490234375,0.06103515625,-0.1220703125,0.06103515625,0.4554443359375,-0.7939453125,0.3988037109375,-281.0,151.0,-152.0,101713.0,-3.2250001430511475,0,0
0.7565686702728271,0.35980224609375,-0.45062255859375,0.311492919921875,-0.7552490234375,0.18310546875,0.18310546875,0.1220703125,0.45751953125,-0.79150390625,0.3975830078125,-281.0,151.0,-152.0,101713.0,-3.2250001430511475,0,0
0.7565686702728271,0.35980224609375,-0.45062255859375,0.31146240234375,-0.7552490234375,-0.42724609375,0.1220703125,0.06103515625,0.45703125,-0.792236328125,0.398193359375,-281.0,151.0,-152.0,101713.0,-3.2250001430511475,0,0
0.7568907737731934,0.35980224609375,-0.45062255859375,0.311492919921875,-0.7552490234375,0.18310546875,-0.1220703125,-0.3662109375,0.45361328125,-0.793212890625,0.3997802734375,-281.0,151.0,-152.0,101713.0,-3.2250001430511475,0,0
0.7568907737731934,0.35980224609375,-0.45062255859375,0.311492919921875,-0.7552490234375,-0.244140625,-0.1220703125,-0.244140625,0.455810546875,-0.7930908203125,0.398193359375,-281.0,151.0,-152.0,101713.0,-3.2250001430511475,0,0
0.7568907737731934,0.35980224609375,-0.45062255859375,0.311492919921875,-0.7552490234375,-0.18310546875,-0.30517578125,-0.1220703125,0.45361328125,-0.7930908203125,0.3974609375,-281.0,151.0,-152.0,101713.0,-3.2250001430511475,0,0
0.8229238986968994,0.35980224609375,-0.45062255859375,0.311492919921875,-0.7552490234375,-0.18310546875,-0.30517578125,-0.1220703125,0.45361328125,-0.7930908203125,0.3974609375,-281.0,151.0,-152.0,101713.0,-3.2250001430511475,0,0
0.8229238986968994,0.35980224609375,-0.45062255859375,0.311492919921875,-0.7552490234375,0.0,-0.3662109375,-0.3662109375,0.4544677734375,-0.7921142578125,0.3975830078125,-281.0,151.0,-152.0,101713.0,-3.2250001430511475,0,0
0.8229238986968994,0.35980224609375,-0.45062255859375,0.311492919921875,-0.7552490234375,0.0,-0.3662109375,-0.3662109375,0.4544677734375,-0.7921142578125,0.3975830078125,-281.0,151.0,-152.0,101713.0,-3.2290000915527344,0,0
0.8229238986968994,0.359832763671875,-0.450592041015625,0.311492919921875,-0.7552490234375,0.0,-0.244140625,-0.42724609375,0.4552001953125,-0.79150390625,0.3975830078125,-281.0,151.0,-152.0,101713.0,-3.2290000915527344,0,0
0.8229238986968994,0.35980224609375,-0.45062255859375,0.311492919921875,-0.7552490234375,0.18310546875,0.0,-0.06103515625,0.4564208984375,-0.79150390625,0.397216796875,-281.0,151.0,-152.0,101713.0,-3.2290000915527344,0,0
0.8229238986968994,0.35980224609375,-0.45062255859375,0.311492919921875,-0.7552490234375,0.06103515625,-0.1220703125,-0.244140625,0.45458984375,-0.791259765625,0.3988037109375,-281.0,151.0,-152.0,101713.0,-3.2290000915527344,0,0
0.8233339786529541,0.35980224609375,-0.45062255859375,0.311492919921875,-0.7552490234375,0.1220703125,-0.1220703125,0.244140625,0.455078125,-0.7913818359375,0.3975830078125,-281.0,151.0,-152.0,101713.0,-3.2290000915527344,0,0
0.8233339786529541,0.35980224609375,-0.45062255859375,0.311492919921875,-0.7552490234375,-0.18310546875,-0.3662109375,-0.1220703125,0.4560546875,-0.79296875,0.399658203125,-281.0,151.0,-152.0,101713.0,-3.2290000915527344,0,0
0.8233339786529541,0.35980224609375,-0.45062255859375,0.311492919921875,-0.7552490234375,0.06103515625,0.3662109375,-0.1220703125,0.45556640625,-0.7921142578125,0.3995361328125,-281.0,151.0,-152.0,101713.0,-3.2290000915527344,0,0
0.8233339786529541,0.35980224609375,-0.45062255859375,0.311492919921875,-0.7552490234375,0.0,0.0,0.0,0.455078125,-0.7918701171875,0.3975830078125,-281.0,151.0,-152.0,101713.0,-3.2290000915527344,0,0
0.8233339786529541,0.35980224609375,-0.45062255859375,0.311492919921875,-0.7552490234375,0.0,0.0,0.0,0.455078125,-0.7918701171875,0.3975830078125,-281.0,151.0,-152.0,101713.0,-3.2290000915527344,0,0
0.8233339786529541,0.35980224609375,-0.45062255859375,0.311492919921875,-0.7552490234375,-0.30517578125,-0.1220703125,-0.06103515625,0.456298828125,-0.7919921875,0.3990478515625,-281.0,151.0,-152.0,101713.0,-3.2290000915527344,0,0
0.8834562301635742,0.359710693359375,-0.4505615234375,0.311553955078125,-0.75531005859375,0.06103515625,0.0,-0.06103515625,0.4552001953125,-0.792724609375,0.3970947265625,-281.0,151.0,-152.0,101713.0,-3.2290000915527344,0,0
0.8834562301635742,0.359710693359375,-0.450592041015625,0.311553955078125,-0.755279541015625,-0.06103515625,0.06103515625,-0.1220703125,0.45703125,-0.7940673828125,0.3963623046875,-281.0,151.0,-152.0,101713.0,-3.2290000915527344,0,0
0.8834562301635742,0.35968017578125,-0.450592041015625,0.311553955078125,-0.755279541015625,0.0,-0.244140625,0.06103515625,0.457275390625,-0.7923583984375,0.398193359375,-281.0,151.0,-152.0,101713.0,-3.2290000915527344,0,0
0.8834562301635742,0.35968017578125,-0.450592041015625,0.311553955078125,-0.755279541015625,0.0,-0.1220703125,-0.18310546875,0.45849609375,-0.793701171875,0.3994140625,-281.0,151.0,-152.0,101713.0,-3.2290000915527344,0,0
0.8834562301635742,0.35968017578125,-0.450592041015625,0.311553955078125,-0.755279541015625,0.06103515625,-0.30517578125,-0.3662109375,0.4542236328125,-0.7919921875,0.3974609375,-281.0,151.0,-152.0,101713.0,-3.2290000915527344,0,0
0.8838884830474854,0.35968017578125,-0.450592041015625,0.311553955078125,-0.755279541015625,0.06103515625,-0.30517578125,-0.3662109375,0.4542236328125,-0.7919921875,0.3974609375,-281.0,151.0,-152.0,101713.0,-3.2290000915527344,0,0
0.8838884830474854,0.35968017578125,-0.450592041015625,0.311553955078125,-0.755279541015625,0.06103515625,0.0,-0.06103515625,0.4586181640625,-0.7938232421875,0.398681640625,-281.0,151.0,-152.0,101713.0,-3.2290000915527344,0,0
0.8838884830474854,0.35968017578125,-0.450592041015625,0.311553955078125,-0.755279541015625,-0.06103515625,-0.18310546875,0.18310546875,0.454833984375,-0.7900390625,0.3975830078125,-281.0,151.0,-152.0,101713.0,-3.2290000915527344,0,0
0.8838884830474854,0.35968017578125,-0.450592041015625,0.311553955078125,-0.75531005859375,-0.1220703125,-0.06103515625,0.06103515625,0.4539794921875,-0.7904052734375,0.3990478515625,-281.0,151.0,-152.0,101713.0,-3.2260000705718994,0,0
0.8838884830474854,0.35968017578125,-0.450592041015625,0.311553955078125,-0.75531005859375,-0.1220703125,-0.18310546875,-0.18310546875,0.457763671875,-0.794189453125,0.39892578125,-281.0,151.0,-152.0,101713.0,-3.2260000705718994,0,0
0.8838884830474854,0.35968017578125,-0.450592041015625,0.311553955078125,-0.75531005859375,0.1220703125,-0.30517578125,-0.06103515625,0.455322265625,-0.7911376953125,0.3992919921875,-281.0,151.0,-152.0,101713.0,-3.2260000705718994,0,0
0.9458365440368652,0.35968017578125,-0.450592041015625,0.311553955078125,-0.75531005859375,0.0,-0.06103515625,0.0,0.455078125,-0.7921142578125,0.398193359375,-281.0,151.0,-152.0,101713.0,-3.2260000705718994,0,0
0.9458365440368652,0.35968017578125,-0.450592041015625,0.311553955078125,-0.75531005859375,-0.1220703125,-0.06103515625,-0.06103515625,0.456298828125,-0.79296875,0.399169921875,-281.0,151.0,-152.0,101713.0,-3.2260000705718994,0,0
0.9458365440368652,0.35968017578125,-0.450592041015625,0.311553955078125,-0.75531005859375,-0.1220703125,-0.06103515625,-0.06103515625,0.456298828125,-0.79296875,0.399169921875,-281.0,151.0,-152.0,101713.0,-3.2260000705718994,0,0
0.9465665817260742,0.35968017578125,-0.450592041015625,0.311553955078125,-0.75531005859375,-0.06103515625,-0.18310546875,-0.06103515625,0.4547119140625,-0.7935791015625,0.3992919921875,-281.0,151.0,-152.0,101713.0,-3.2260000705718994,0,0
0.9465665817260742,0.35968017578125,-0.450592041015625,0.311553955078125,-0.755279541015625,0.1220703125,-0.244140625,0.0,0.4554443359375,-0.7926025390625,0.3980712890625,-281.0,151.0,-152.0,101713.0,-3.2260000705718994,0,0
0.9465665817260742,0.35968017578125,-0.450592041015625,0.311553955078125,-0.75531005859375,-0.18310546875,-0.18310546875,-0.06103515625,0.45751953125,-0.79248046875,0.398681640625,-281.0,151.0,-152.0,101713.0,-3.2260000705718994,0,0
0.9465665817260742,0.35968017578125,-0.450592041015625,0.311553955078125,-0.75531005859375,-0.18310546875,-0.18310546875,-0.06103515625,0.45751953125,-0.79248046875,0.398681640625,-283.0,149.0,-152.0,101713.0,-3.2260000705718994,0,0
0.9465665817260742,0.359466552734375,-0.45050048828125,0.311676025390625,-0.755401611328125,-0.1220703125,-0.30517578125,0.06103515625,0.4547119140625,-0.79248046875,0.398193359375,-283.0,149.0,-152.0,101713.0,-3.2260000705718994,0,0
0.9465665817260742,0.359466552734375,-0.45050048828125,0.311676025390625,-0.755401611328125,0.06103515625,-0.244140625,-0.244140625,0.455078125,-0.7923583984375,0.3984375,-283.0,149.0,-152.0,101713.0,-3.2260000705718994,0,0
0.9475705623626709,0.359466552734375,-0.45050048828125,0.311676025390625,-0.755401611328125,-0.18310546875,-0.06103515625,-0.18310546875,0.4541015625,-0.7933349609375,0.3978271484375,-283.0,149.0,-152.0,101713.0,-3.2260000705718994,0,0
0.9475705623626709,0.359466552734375,-0.45050048828125,0.311676025390625,-0.755401611328125,0.18310546875,-0.1220703125,-0.18310546875,0.456787109375,-0.7940673828125,0.3983154296875,-283.0,149.0,-152.0,101713.0,-3.2260000705718994,0,0
0.9475705623626709,0.359466552734375,-0.45050048828125,0.311676025390625,-0.755401611328125,0.18310546875,-0.1220703125,-0.18310546875,0.456787109375,-0.7940673828125,0.3983154296875,-283.0,149.0,-152.0,101713.0,-3.2260000705718994,0,0
1.0145275592803955,0.359466552734375,-0.45050048828125,0.311676025390625,-0.755401611328125,0.1220703125,-0.06103515625,-0.1220703125,0.4521484375,-0.7918701171875,0.3983154296875,-283.0,149.0,-152.0,101713.0,-3.2260000705718994,0,0
1.0145275592803955,0.359466552734375,-0.45050048828125,0.311676025390625,-0.755401611328125,-0.1220703125,-0.1220703125,-0.244140625,0.453369140625,-0.7916259765625,0.3978271484375,-283.0,149.0,-152.0,101713.0,-3.2260000705718994,0,0
1.0145275592803955,0.359466552734375,-0.45050048828125,0.311676025390625,-0.755401611328125,0.1220703125,-0.1220703125,-0.1220703125,0.455810546875,-0.79248046875,0.3983154296875,-283.0,149.0,-152.0,101713.0,-3.2260000705718994,0,0
1.0145275592803955,0.359466552734375,-0.45050048828125,0.311676025390625,-0.755401611328125,-0.1220703125,-0.18310546875,-0.18310546875,0.454833984375,-0.792236328125,0.3988037109375,-283.0,149.0,-152.0,101713.0,-3.2260000705718994,0,0
1.0145275592803955,0.359466552734375,-0.45050048828125,0.311676025390625,-0.755401611328125,-0.1220703125,-0.18310546875,-0.18310546875,0.454833984375,-0.792236328125,0.3988037109375,-283.0,149.0,-152.0,101713.0,-3.2290000915527344,0,0
1.0145275592803955,0.359466552734375,-0.45050048828125,0.311676025390625,-0.755401611328125,-0.18310546875,0.0,0.1220703125,0.455810546875,-0.79345703125,0.3975830078125,-283.0,149.0,-152.0,101713.0,-3.2290000915527344,0,0
1.0145275592803955,0.359466552734375,-0.450531005859375,0.311676025390625,-0.755401611328125,-0.30517578125,-0.06103515625,-0.1220703125,0.456298828125,-0.7928466796875,0.3963623046875,-283.0,149.0,-152.0,101713.0,-3.2290000915527344,0,0
1.0145275592803955,0.359466552734375,-0.450531005859375,0.311676025390625,-0.755401611328125,0.0,-0.18310546875,0.1220703125,0.456787109375,-0.79443359375,0.398193359375,-283.0,149.0,-152.0,101713.0,-3.2290000915527344,0,0
1.0155282020568848,0.359466552734375,-0.450531005859375,0.311676025390625,-0.755401611328125,-0.1220703125,-0.18310546875,0.0,0.4544677734375,-0.7921142578125,0.3985595703125,-283.0,149.0,-152.0,101713.0,-3.2290000915527344,0,0
1.0155282020568848,0.359466552734375,-0.450531005859375,0.311676025390625,-0.755401611328125,-0.1220703125,-0.18310546875,0.0,0.4544677734375,-0.7921142578125,0.3985595703125,-283.0,149.0,-152.0,101713.0,-3.2290000915527344,0,0
1.0155282020568848,0.359466552734375,-0.450531005859375,0.311676025390625,-0.755401611328125,-0.1220703125,0.0,-0.1220703125,0.4564208984375,-0.7943115234375,0.3992919921875,-283.0,149.0,-152.0,101713.0,-3.2290000915527344,0,0
1.0155282020568848,0.359466552734375,-0.450531005859375,0.31170654296875,-0.755401611328125,0.1220703125,-0.244140625,-0.18310546875,0.45458984375,-0.79345703125,0.398193359375,-283.0,149.0,-152.0,101713.0,-3.2290000915527344,0,0
1.074028730392456,0.359466552734375,-0.450531005859375,0.31170654296875,-0.75537109375,0.0,-0.18310546875,-0.1220703125,0.4556884765625,-0.793212890625,0.398193359375,-282.0,149.0,-152.0,101713.0,-3.2290000915527344,0,0
1.074028730392456,0.359466552734375,-0.450531005859375,0.31170654296875,-0.75537109375,-0.06103515625,-0.06103515625,-0.1220703125,0.4554443359375,-0.7926025390625,0.397216796875,-282.0,149.0,-152.0,101713.0,-3.2290000915527344,0,0
1.074028730392456,0.359130859375,-0.45037841796875,0.3118896484375,-0.755523681640625,0.06103515625,-0.30517578125,-0.06103515625,0.4541015625,-0.7935791015625,0.3978271484375,-282.0,149.0,-152.0,101713.0,-3.2290000915527344,0,0
1.074028730392456,0.359130859375,-0.45037841796875,0.3118896484375,-0.75555419921875,-0.1220703125,0.0,0.1220703125,0.4559326171875,-0.7913818359375,0.3974609375,-282.0,149.0,-152.0,101713.0,-3.2290000915527344,0,0
1.074028730392456,0.359130859375,-0.45037841796875,0.3118896484375,-0.75555419921875,-0.1220703125,0.0,0.1220703125,0.4559326171875,-0.7913818359375,0.3974609375,-282.0,149.0,-152.0,101713.0,-3.2290000915527344,0,0
1.0750341415405273,0.359130859375,-0.45037841796875,0.3118896484375,-0.75555419921875,-0.244140625,-0.1220703125,-0.06103515625,0.455810546875,-0.79345703125,0.39990234375,-282.0,149.0,-152.0,101713.0,-3.2290000915527344,0,0
1.0750341415405273,0.359130859375,-0.45037841796875,0.3118896484375,-0.755523681640625,0.1220703125,0.06103515625,-0.18310546875,0.456298828125,-0.7938232421875,0.39697265625,-282.0,149.0,-152.0,101713.0,-3.2290000915527344,0,0
1.0750341415405273,0.359130859375,-0.45037841796875,0.3118896484375,-0.75555419921875,0.30517578125,0.06103515625,-0.1220703125,0.4544677734375,-0.7940673828125,0.398681640625,-282.0,149.0,-152.0,101713.0,-3.2290000915527344,0,0
1.0750341415405273,0.359130859375,-0.45037841796875,0.3118896484375,-0.75555419921875,0.06103515625,-0.06103515625,-0.1220703125,0.4554443359375,-0.792236328125,0.400390625,-282.0,149.0,-152.0,101713.0,-3.2290000915527344,0,0
1.0750341415405273,0.359130859375,-0.45037841796875,0.3118896484375,-0.75555419921875,0.0,0.1220703125,-0.18310546875,0.4578857421875,-0.7933349609375,0.398193359375,-282.0,149.0,-152.0,101713.0,-3.2290000915527344,0,0
1.0750341415405273,0.359130859375,-0.45037841796875,0.3118896484375,-0.75555419921875,0.0,-0.06103515625,0.0,0.454345703125,-0.7928466796875,0.3975830078125,-282.0,149.0,-152.0,101713.0,-3.2260000705718994,0,0
1.0750341415405273,0.359130859375,-0.45037841796875,0.3118896484375,-0.75555419921875,-0.06103515625,-0.06103515625,0.244140625,0.453369140625,-0.79248046875,0.398681640625,-282.0,149.0,-152.0,101713.0,-3.2260000705718994,0,0
1.135477066040039,0.359130859375,-0.450408935546875,0.3118896484375,-0.755523681640625,-0.18310546875,0.06103515625,0.0,0.4544677734375,-0.7926025390625,0.3985595703125,-282.0,149.0,-152.0,101713.0,-3.2260000705718994,0,0
1.135477066040039,0.359130859375,-0.450408935546875,0.3118896484375,-0.755523681640625,0.06103515625,0.06103515625,-0.3662109375,0.4544677734375,-0.7923583984375,0.3985595703125,-282.0,149.0,-152.0,101713.0,-3.2260000705718994,0,0
1.135477066040039,0.359130859375,-0.45037841796875,0.3118896484375,-0.755523681640625,-0.06103515625,-0.18310546875,-0.18310546875,0.4537353515625,-0.79443359375,0.3983154296875,-282.0,149.0,-152.0,101713.0,-3.2260000705718994,0,0
1.135477066040039,0.359130859375,-0.45037841796875,0.3118896484375,-0.755523681640625,0.244140625,-0.244140625,-0.18310546875,0.4547119140625,-0.7918701171875,0.399169921875,-282.0,149.0,-152.0,101713.0,-3.2260000705718994,0,0
1.135477066040039,0.359130859375,-0.45037841796875,0.3118896484375,-0.755523681640625,-0.06103515625,-0.1220703125,0.1220703125,0.4554443359375,-0.7930908203125,0.3983154296875,-282.0,149.0,-152.0,101713.0,-3.2260000705718994,0,0
1.1364731788635254,0.359130859375,-0.450408935546875,0.3118896484375,-0.755523681640625,0.1220703125,-0.244140625,0.0,0.457275390625,-0.7913818359375,0.396240234375,-282.0,149.0,-152.0,101713.0,-3.2260000705718994,0,0
1.1364731788635254,0.359130859375,-0.450408935546875,0.3118896484375,-0.755523681640625,-0.1220703125,-0.1220703125,0.0,0.455322265625,-0.792236328125,0.399169921875,-282.0,149.0,-152.0,101713.0,-3.2260000705718994,0,0
1.1364731788635254,0.359130859375,-0.450408935546875,0.3118896484375,-0.755523681640625,-0.3662109375,-0.1220703125,-0.06103515625,0.4564208984375,-0.7916259765625,0.39892578125,-282.0,149.0,-152.0,101713.0,-3.2260000705718994,0,0
1.1364731788635254,0.358795166015625,-0.45025634765625,0.31207275390625,-0.755706787109375,0.1220703125,-0.30517578125,0.0,0.4549560546875,-0.791748046875,0.3983154296875,-282.0,149.0,-152.0,101713.0,-3.2260000705718994,0,0
1.1364731788635254,0.358795166015625,-0.45025634765625,0.31207275390625,-0.755706787109375,0.1220703125,-0.30517578125,0.0,0.4549560546875,-0.791748046875,0.3983154296875,-282.0,149.0,-152.0,101713.0,-3.2260000705718994,0,0
1.1364731788635254,0.358795166015625,-0.45025634765625,0.312103271484375,-0.75567626953125,-0.1220703125,-0.1220703125,0.0,0.454345703125,-0.7918701171875,0.3992919921875,-282.0,149.0,-152.0,101713.0,-3.2260000705718994,0,0
1.209838628768921,0.358795166015625,-0.45025634765625,0.31207275390625,-0.755706787109375,0.0,-0.244140625,0.06103515625,0.4547119140625,-0.7919921875,0.4000244140625,-282.0,149.0,-152.0,101713.0,-3.2260000705718994,0,0
1.209838628768921,0.358795166015625,-0.45025634765625,0.31207275390625,-0.755706787109375,0.0,-0.1220703125,-0.1220703125,0.4547119140625,-0.79248046875,0.399169921875,-282.0,149.0,-152.0,101713.0,-3.2260000705718994,0,0
1.209838628768921,0.358795166015625,-0.45025634765625,0.31207275390625,-0.755706787109375,0.244140625,-0.1220703125,-0.06103515625,0.455078125,-0.7918701171875,0.4000244140625,-282.0,149.0,-152.0,101713.0,-3.2260000705718994,0,0
1.209838628768921,0.358795166015625,-0.45025634765625,0.31207275390625,-0.755706787109375,0.0,-0.18310546875,0.0,0.4549560546875,-0.79345703125,0.3990478515625,-282.0,149.0,-152.0,101713.0,-3.2260000705718994,0,0
1.209838628768921,0.35882568359375,-0.45025634765625,0.31207275390625,-0.755706787109375,0.06103515625,-0.244140625,0.0,0.453369140625,-0.7908935546875,0.3997802734375,-282.0,149.0,-152.0,101713.0,-3.2260000705718994,0,0
1.209838628768921,0.35882568359375,-0.450225830078125,0.312103271484375,-0.755706787109375,0.0,-0.1220703125,-0.18310546875,0.451171875,-0.7933349609375,0.3992919921875,-282.0,149.0,-152.0,101713.0,-3.2260000705718994,0,0
1.209838628768921,0.35882568359375,-0.450225830078125,0.312103271484375,-0.755706787109375,0.0,0.0,-0.1220703125,0.4549560546875,-0.7938232421875,0.397216796875,-282.0,149.0,-152.0,101713.0,-3.2290000915527344,0,0
1.209838628768921,0.35882568359375,-0.450225830078125,0.312103271484375,-0.755706787109375,0.0,0.0,-0.1220703125,0.4549560546875,-0.7938232421875,0.397216796875,-282.0,149.0,-152.0,101713.0,-3.2290000915527344,0,0
1.209838628768921,0.35882568359375,-0.450225830078125,0.312103271484375,-0.755706787109375,0.0,-0.06103515625,0.0,0.454345703125,-0.791748046875,0.3997802734375,-282.0,149.0,-152.0,101713.0,-3.2290000915527344,0,0
1.209838628768921,0.35882568359375,-0.450225830078125,0.312103271484375,-0.755706787109375,-0.1220703125,-0.18310546875,-0.06103515625,0.455810546875,-0.792236328125,0.3975830078125,-282.0,149.0,-152.0,101713.0,-3.2290000915527344,0,0
1.209838628768921,0.35882568359375,-0.45025634765625,0.312103271484375,-0.755706787109375,0.06103515625,-0.1220703125,-0.18310546875,0.4569091796875,-0.7921142578125,0.39892578125,-282.0,149.0,-152.0,101713.0,-3.2290000915527344,0,0
1.209838628768921,0.358795166015625,-0.45025634765625,0.31207275390625,-0.755706787109375,-0.18310546875,0.244140625,-0.1220703125,0.4564208984375,-0.7926025390625,0.39892578125,-282.0,149.0,-152.0,101713.0,-3.2290000915527344,0,0
1.209838628768921,0.35882568359375,-0.45025634765625,0.31207275390625,-0.755706787109375,-0.18310546875,-0.244140625,0.0,0.4544677734375,-0.7921142578125,0.399169921875,-282.0,149.0,-152.0,101713.0,-3.2290000915527344,0,0
1.2655937671661377,0.358795166015625,-0.45025634765625,0.31207275390625,-0.755706787109375,-0.18310546875,-0.18310546875,-0.06103515625,0.45556640625,-0.791259765625,0.3994140625,-282.0,149.0,-152.0,101713.0,-3.2290000915527344,0,0
1.2655937671661377,0.358795166015625,-0.45025634765625,0.31207275390625,-0.755706787109375,-0.18310546875,-0.18310546875,-0.06103515625,0.45556640625,-0.791259765625,0.3994140625,-282.0,149.0,-152.0,101713.0,-3.2290000915527344,0,0
1.2655937671661377,0.358795166015625,-0.45025634765625,0.31207275390625,-0.755706787109375,-0.18310546875,-0.18310546875,-0.06103515625,0.45556640625,-0.791259765625,0.3994140625,-282.0,149.0,-152.0,101713.0,-3.2290000915527344,0,0
1.2655937671661377,0.35858154296875,-0.45013427734375,0.31219482421875,-0.75579833984375,0.0,-0.06103515625,-0.06103515625,0.4537353515625,-0.7921142578125,0.3983154296875,-282.0,149.0,-152.0,101713.0,-3.2290000915527344,0,0
1.2665576934814453,0.35858154296875,-0.45013427734375,0.31219482421875,-0.75579833984375,-0.1220703125,0.0,-0.06103515625,0.4547119140625,-0.792236328125,0.3990478515625,-282.0,149.0,-152.0,101713.0,-3.2290000915527344,0,0
1.2665576934814453,0.358612060546875,-0.45013427734375,0.312225341796875,-0.75579833984375,-0.18310546875,-0.1220703125,-0.1220703125,0.4537353515625,-0.7921142578125,0.3980712890625,-282.0,149.0,-152.0,101713.0,-3.2290000915527344,0,0
1.2665576934814453,0.35858154296875,-0.45013427734375,0.31219482421875,-0.75579833984375,0.06103515625,-0.1220703125,-0.06103515625,0.4566650390625,-0.7921142578125,0.3975830078125,-282.0,149.0,-152.0,101713.0,-3.2290000915527344,0,0
1.2665576934814453,0.35858154296875,-0.45013427734375,0.31219482421875,-0.75579833984375,0.06103515625,-0.42724609375,0.0,0.4547119140625,-0.79248046875,0.400146484375,-282.0,149.0,-152.0,101713.0,-3.2290000915527344,0,0
1.2665576934814453,0.35858154296875,-0.450164794921875,0.31219482421875,-0.75579833984375,0.06103515625,-0.244140625,-0.06103515625,0.4571533203125,-0.792724609375,0.3985595703125,-282.0,149.0,-152.0,101713.0,-3.2290000915527344,0,0
1.2665576934814453,0.35858154296875,-0.450164794921875,0.31219482421875,-0.75579833984375,0.0,-0.244140625,0.0,0.456787109375,-0.791748046875,0.3980712890625,-282.0,149.0,-152.0,101713.0,-3.2290000915527344,0,0
1.2665576934814453,0.35858154296875,-0.450164794921875,0.31219482421875,-0.75579833984375,0.1220703125,-0.30517578125,-0.1220703125,0.456787109375,-0.796142578125,0.3978271484375,-282.0,149.0,-152.0,101713.0,-3.2290000915527344,0,0
1.332488775253296,0.35858154296875,-0.450164794921875,0.31219482421875,-0.755828857421875,0.0,-0.06103515625,-0.18310546875,0.45654296875,-0.79248046875,0.399169921875,-282.0,149.0,-152.0,101713.0,-3.2270002365112305,0,0
1.332488775253296,0.35858154296875,-0.450164794921875,0.31219482421875,-0.755828857421875,-0.3662109375,-0.3662109375,0.06103515625,0.4544677734375,-0.7933349609375,0.39990234375,-282.0,149.0,-152.0,101713.0,-3.2270002365112305,0,0
1.332488775253296,0.35858154296875,-0.450164794921875,0.31219482421875,-0.755828857421875,0.06103515625,-0.1220703125,0.1220703125,0.4541015625,-0.7919921875,0.4007568359375,-282.0,149.0,-152.0,101713.0,-3.2270002365112305,0,0
1.332488775253296,0.35858154296875,-0.45013427734375,0.31219482421875,-0.755828857421875,0.06103515625,-0.18310546875,-0.1220703125,0.4530029296875,-0.7908935546875,0.3975830078125,-282.0,149.0,-152.0,101713.0,-3.2270002365112305,0,0
1.332488775253296,0.35858154296875,-0.450164794921875,0.31219482421875,-0.755828857421875,-0.06103515625,-0.18310546875,-0.18310546875,0.4559326171875,-0.791748046875,0.3973388671875,-282.0,149.0,-152.0,101713.0,-3.2270002365112305,0,0
1.332488775253296,0.35858154296875,-0.450164794921875,0.31219482421875,-0.755828857421875,0.244140625,0.0,-0.18310546875,0.45556640625,-0.79296875,0.400146484375,-282.0,149.0,-152.0,101713.0,-3.2270002365112305,0,0
1.3334980010986328,0.35858154296875,-0.450164794921875,0.31219482421875,-0.755828857421875,-0.06103515625,-0.30517578125,-0.06103515625,0.4549560546875,-0.792236328125,0.39697265625,-282.0,149.0,-152.0,101713.0,-3.2270002365112305,0,0
1.3334980010986328,0.35858154296875,-0.450164794921875,0.31219482421875,-0.755828857421875,-0.06103515625,0.0,-0.1220703125,0.4552001953125,-0.7913818359375,0.3992919921875,-282.0,149.0,-152.0,101713.0,-3.2270002365112305,0,0
1.3334980010986328,0.35858154296875,-0.450164794921875,0.31219482421875,-0.755828857421875,-0.06103515625,0.0,-0.1220703125,0.4552001953125,-0.7913818359375,0.3992919921875,-282.0,149.0,-152.0,101713.0,-3.2270002365112305,0,0
1.3334980010986328,0.35858154296875,-0.450164794921875,0.31219482421875,-0.755828857421875,0.06103515625,-0.18310546875,-0.1220703125,0.45556640625,-0.7923583984375,0.39892578125,-282.0,151.0,-151.0,101713.0,-3.2270002365112305,0,0
1.3334980010986328,0.35858154296875,-0.450164794921875,0.31219482421875,-0.755828857421875,-0.06103515625,-0.30517578125,0.0,0.4566650390625,-0.791748046875,0.398681640625,-282.0,151.0,-151.0,101713.0,-3.2270002365112305,0,0
1.3972983360290527,0.35858154296875,-0.450164794921875,0.312164306640625,-0.755828857421875,0.06103515625,0.06103515625,-0.18310546875,0.4561767578125,-0.7911376953125,0.39892578125,-282.0,151.0,-151.0,101713.0,-3.2270002365112305,0,0
1.3972983360290527,0.35858154296875,-0.450164794921875,0.31219482421875,-0.755828857421875,0.06103515625,-0.18310546875,-0.06103515625,0.455078125,-0.7923583984375,0.3975830078125,-282.0,151.0,-151.0,101713.0,-3.2270002365112305,0,0
1.3972983360290527,0.35858154296875,-0.450164794921875,0.312164306640625,-0.755828857421875,-0.06103515625,0.1220703125,0.1220703125,0.455078125,-0.7916259765625,0.398193359375,-282.0,151.0,-151.0,101713.0,-3.2270002365112305,0,0
1.3972983360290527,0.35858154296875,-0.450164794921875,0.312164306640625,-0.755828857421875,-0.06103515625,-0.18310546875,-0.06103515625,0.453857421875,-0.790771484375,0.3975830078125,-282.0,151.0,-151.0,101713.0,-3.2270002365112305,0,0
1.3972983360290527,0.35858154296875,-0.450164794921875,0.312164306640625,-0.755828857421875,0.1220703125,-0.06103515625,-0.18310546875,0.4566650390625,-0.792236328125,0.398193359375,-282.0,151.0,-151.0,101713.0,-3.2270002365112305,0,0
1.3972983360290527,0.35858154296875,-0.450164794921875,0.312164306640625,-0.755828857421875,0.06103515625,-0.1220703125,-0.1220703125,0.455810546875,-0.7916259765625,0.3980712890625,-282.0,151.0,-151.0,101713.0,-3.2270002365112305,0,0
1.3972983360290527,0.35858154296875,-0.450164794921875,0.312164306640625,-0.755828857421875,0.06103515625,-0.1220703125,-0.1220703125,0.455810546875,-0.7916259765625,0.3980712890625,-282.0,151.0,-151.0,101713.0,-3.2270002365112305,0,0
1.3972983360290527,0.35858154296875,-0.450164794921875,0.312164306640625,-0.755828857421875,0.06103515625,-0.3662109375,-0.18310546875,0.4556884765625,-0.792236328125,0.399169921875,-282.0,151.0,-151.0,101713.0,-3.2270002365112305,0,0
1.3972983360290527,0.35858154296875,-0.450164794921875,0.312164306640625,-0.755828857421875,0.06103515625,-0.3662109375,-0.18310546875,0.4556884765625,-0.792236328125,0.399169921875,-282.0,151.0,-151.0,101713.0,-3.2300002574920654,0,0
1.3972983360290527,0.35858154296875,-0.450164794921875,0.312164306640625,-0.755828857421875,-0.1220703125,-0.06103515625,0.06103515625,0.4547119140625,-0.793212890625,0.4010009765625,-282.0,151.0,-151.0,101713.0,-3.2300002574920654,0,0
1.398120403289795,0.35858154296875,-0.450164794921875,0.312164306640625,-0.755828857421875,0.0,-0.1220703125,0.0,0.4554443359375,-0.79345703125,0.3983154296875,-282.0,151.0,-151.0,101713.0,-3.2300002574920654,0,0
1.398120403289795,0.35858154296875,-0.450164794921875,0.312164306640625,-0.755828857421875,-0.244140625,-0.244140625,-0.244140625,0.4544677734375,-0.792724609375,0.3978271484375,-282.0,151.0,-151.0,101713.0,-3.2300002574920654,0,0
1.398120403289795,0.35858154296875,-0.450164794921875,0.312164306640625,-0.755828857421875,-0.1220703125,0.06103515625,0.0,0.4561767578125,-0.791748046875,0.39794921875,-282.0,151.0,-151.0,101713.0,-3.2300002574920654,0,0
1.4559528827667236,0.35858154296875,-0.450164794921875,0.312164306640625,-0.755828857421875,-0.1220703125,-0.06103515625,-0.1220703125,0.4566650390625,-0.79248046875,0.3995361328125,-282.0,151.0,-151.0,101713.0,-3.2300002574920654,0,0
1.456951379776001,0.35858154296875,-0.450164794921875,0.312164306640625,-0.755828857421875,-0.1220703125,-0.06103515625,-0.1220703125,0.4566650390625,-0.79248046875,0.3995361328125,-282.0,151.0,-151.0,101713.0,-3.2300002574920654,0,0
1.456951379776001,0.35858154296875,-0.450164794921875,0.312164306640625,-0.755828857421875,-0.1220703125,-0.1220703125,-0.18310546875,0.4552001953125,-0.7918701171875,0.3990478515625,-282.0,151.0,-151.0,101713.0,-3.2300002574920654,0,0
1.456951379776001,0.35858154296875,-0.450164794921875,0.312164306640625,-0.755828857421875,0.0,-0.30517578125,0.06103515625,0.4560546875,-0.79248046875,0.398681640625,-282.0,152.0,-151.0,101713.0,-3.2300002574920654,0,0
1.456951379776001,0.35858154296875,-0.450164794921875,0.312164306640625,-0.755828857421875,-0.1220703125,-0.06103515625,0.06103515625,0.4566650390625,-0.7916259765625,0.3975830078125,-282.0,152.0,-151.0,101713.0,-3.2300002574920654,0,0
1.456951379776001,0.35858154296875,-0.450164794921875,0.312164306640625,-0.755828857421875,0.06103515625,-0.18310546875,-0.06103515625,0.4552001953125,-0.79052734375,0.39892578125,-282.0,152.0,-151.0,101713.0,-3.2300002574920654,0,0
1.456951379776001,0.358551025390625,-0.450164794921875,0.3121337890625,-0.755828857421875,-0.1220703125,-0.06103515625,-0.1220703125,0.45751953125,-0.7921142578125,0.3983154296875,-282.0,152.0,-151.0,101713.0,-3.2300002574920654,0,0
1.456951379776001,0.358551025390625,-0.450164794921875,0.3121337890625,-0.755828857421875,-0.3662109375,-0.06103515625,0.0,0.4554443359375,-0.7919921875,0.3992919921875,-282.0,152.0,-151.0,101713.0,-3.2300002574920654,0,0
1.4579479694366455,0.358551025390625,-0.450164794921875,0.3121337890625,-0.755828857421875,-0.244140625,-0.244140625,0.0,0.45703125,-0.7923583984375,0.39892578125,-282.0,152.0,-151.0,101713.0,-3.2300002574920654,0,0
1.4579479694366455,0.358551025390625,-0.450164794921875,0.3121337890625,-0.755828857421875,0.0,-0.1220703125,0.06103515625,0.45703125,-0.791015625,0.39697265625,-282.0,152.0,-151.0,101713.0,-3.2300002574920654,0,0
1.4579479694366455,0.358551025390625,-0.450164794921875,0.3121337890625,-0.755828857421875,0.0,-0.1220703125,0.06103515625,0.45703125,-0.791015625,0.39697265625,-282.0,152.0,-151.0,101713.0,-3.2300002574920654,0,0
1.5224418640136719,0.35858154296875,-0.450164794921875,0.3121337890625,-0.755828857421875,-0.06103515625,-0.06103515625,-0.18310546875,0.45361328125,-0.7916259765625,0.3990478515625,-282.0,152.0,-151.0,101713.0,-3.2300002574920654,0,0
1.5224418640136719,0.35858154296875,-0.45013427734375,0.3121337890625,-0.755828857421875,0.06103515625,-0.18310546875,-0.1220703125,0.453125,-0.791015625,0.4000244140625,-282.0,152.0,-151.0,101713.0,-3.2300002574920654,0,0
1.5224418640136719,0.35858154296875,-0.45013427734375,0.3121337890625,-0.755859375,0.0,-0.1220703125,-0.18310546875,0.453857421875,-0.792236328125,0.4002685546875,-282.0,152.0,-151.0,101713.0,-3.2300002574920654,0,0
1.5224418640136719,0.35858154296875,-0.45013427734375,0.3121337890625,-0.755859375,-0.18310546875,-0.1220703125,-0.06103515625,0.45556640625,-0.7938232421875,0.39794921875,-282.0,152.0,-151.0,101713.0,-3.2300002574920654,0,0
1.5224418640136719,0.35858154296875,-0.45013427734375,0.3121337890625,-0.755859375,-0.1220703125,-0.18310546875,-0.1220703125,0.4571533203125,-0.793701171875,0.400390625,-282.0,152.0,-151.0,101713.0,-3.2300002574920654,0,0
1.5229761600494385,0.35858154296875,-0.45013427734375,0.3121337890625,-0.755859375,-0.1220703125,-0.1220703125,0.06103515625,0.4560546875,-0.79296875,0.3975830078125,-282.0,152.0,-151.0,101713.0,-3.2300002574920654,0,0
1.5229761600494385,0.35858154296875,-0.45013427734375,0.3121337890625,-0.755859375,-0.18310546875,-0.06103515625,0.1220703125,0.453857421875,-0.790283203125,0.399169921875,-282.0,152.0,-151.0,101713.0,-3.2300002574920654,0,0
1.5229761600494385,0.35858154296875,-0.45013427734375,0.3121337890625,-0.755859375,-0.18310546875,-0.06103515625,0.1220703125,0.453857421875,-0.790283203125,0.399169921875,-282.0,152.0,-151.0,101713.0,-3.2300002574920654,0,0
1.5229761600494385,0.35858154296875,-0.45013427734375,0.312164306640625,-0.755828857421875,0.18310546875,0.18310546875,-0.18310546875,0.4542236328125,-0.7938232421875,0.398193359375,-282.0,152.0,-151.0,101713.0,-3.2300002574920654,0,0
1.5229761600494385,0.35858154296875,-0.45013427734375,0.312164306640625,-0.755828857421875,-0.1220703125,0.0,0.1220703125,0.45556640625,-0.7923583984375,0.398681640625,-282.0,152.0,-151.0,101713.0,-3.2300002574920654,0,0
1.5229761600494385,0.35858154296875,-0.45013427734375,0.312164306640625,-0.755859375,0.18310546875,-0.30517578125,-0.1220703125,0.45654296875,-0.79248046875,0.399169921875,-282.0,152.0,-151.0,101713.0,-3.2300002574920654,0,0
1.5843303203582764,0.358795166015625,-0.450225830078125,0.31201171875,-0.7557373046875,0.18310546875,-0.30517578125,-0.1220703125,0.45654296875,-0.79248046875,0.399169921875,-283.0,152.0,-150.0,101713.0,-3.2260000705718994,0,0
1.5843303203582764,0.358795166015625,-0.450225830078125,0.31201171875,-0.7557373046875,-0.244140625,0.1220703125,0.06103515625,0.4534912109375,-0.791748046875,0.3985595703125,-283.0,152.0,-150.0,101713.0,-3.2260000705718994,0,0
1.5843303203582764,0.358795166015625,-0.450225830078125,0.31201171875,-0.7557373046875,0.1220703125,-0.18310546875,-0.1220703125,0.4541015625,-0.79248046875,0.3974609375,-283.0,152.0,-150.0,101713.0,-3.2260000705718994,0,0
1.5843303203582764,0.358795166015625,-0.450225830078125,0.31201171875,-0.7557373046875,0.06103515625,0.1220703125,0.0,0.4578857421875,-0.79296875,0.3994140625,-283.0,152.0,-150.0,101713.0,-3.2260000705718994,0,0
1.5843303203582764,0.358795166015625,-0.450225830078125,0.31201171875,-0.7557373046875,-0.1220703125,-0.18310546875,-0.06103515625,0.453857421875,-0.7923583984375,0.3994140625,-283.0,152.0,-150.0,101713.0,-3.2260000705718994,0,0
1.5843303203582764,0.358795166015625,-0.450225830078125,0.31201171875,-0.7557373046875,-0.1220703125,-0.18310546875,-0.06103515625,0.453857421875,-0.7923583984375,0.3994140625,-283.0,152.0,-150.0,101713.0,-3.2260000705718994,0,0
1.585278034210205,0.358795166015625,-0.450225830078125,0.31201171875,-0.7557373046875,-0.244140625,-0.244140625,0.1220703125,0.4564208984375,-0.7940673828125,0.3980712890625,-283.0,152.0,-150.0,101713.0,-3.2260000705718994,0,0
1.585278034210205,0.358795166015625,-0.450225830078125,0.31201171875,-0.7557373046875,-0.06103515625,-0.1220703125,-0.06103515625,0.4559326171875,-0.7918701171875,0.3983154296875,-283.0,152.0,-150.0,101713.0,-3.2260000705718994,0,0
1.585278034210205,0.358795166015625,-0.450225830078125,0.31201171875,-0.7557373046875,-0.06103515625,-0.1220703125,-0.18310546875,0.45703125,-0.7921142578125,0.3997802734375,-283.0,152.0,-150.0,101713.0,-3.2260000705718994,0,0
1.585278034210205,0.358795166015625,-0.450225830078125,0.31201171875,-0.7557373046875,-0.244140625,-0.1220703125,-0.1220703125,0.455322265625,-0.7947998046875,0.3980712890625,-283.0,152.0,-150.0,101713.0,-3.2260000705718994,0,0
1.585278034210205,0.358795166015625,-0.450225830078125,0.31201171875,-0.7557373046875,-0.244140625,-0.1220703125,-0.1220703125,0.455322265625,-0.7947998046875,0.3980712890625,-283.0,152.0,-150.0,101713.0,-3.2260000705718994,0,0
1.585278034210205,0.358795166015625,-0.450225830078125,0.31201171875,-0.7557373046875,-0.1220703125,0.0,-0.06103515625,0.455078125,-0.79296875,0.4012451171875,-283.0,152.0,-150.0,101713.0,-3.2260000705718994,0,0
1.585278034210205,0.358795166015625,-0.450225830078125,0.31201171875,-0.7557373046875,-0.06103515625,0.0,0.06103515625,0.4559326171875,-0.792724609375,0.3988037109375,-283.0,152.0,-150.0,101713.0,-3.2260000705718994,0,0
1.6498186588287354,0.358795166015625,-0.450225830078125,0.31201171875,-0.7557373046875,-0.06103515625,-0.18310546875,-0.06103515625,0.4547119140625,-0.790283203125,0.399169921875,-283.0,152.0,-150.0,101713.0,-3.2260000705718994,0,0
1.6498186588287354,0.358795166015625,-0.450225830078125,0.31201171875,-0.7557373046875,-0.1220703125,-0.1220703125,0.06103515625,0.4571533203125,-0.791748046875,0.3995361328125,-283.0,152.0,-150.0,101713.0,-3.2260000705718994,0,0
1.6498186588287354,0.358795166015625,-0.450225830078125,0.31201171875,-0.7557373046875,-0.06103515625,-0.3662109375,-0.1220703125,0.4559326171875,-0.792724609375,0.398193359375,-283.0,152.0,-150.0,101713.0,-3.2260000705718994,0,0
1.6498186588287354,0.358795166015625,-0.450225830078125,0.31201171875,-0.7557373046875,-0.06103515625,-0.06103515625,0.0,0.453369140625,-0.7926025390625,0.3983154296875,-283.0,152.0,-150.0,101713.0,-3.2260000705718994,0,0
1.6498186588287354,0.358795166015625,-0.450225830078125,0.31201171875,-0.7557373046875,0.0,0.0,0.0,0.455078125,-0.792236328125,0.3980712890625,-283.0,152.0,-150.0,101713.0,-3.2260000705718994,0,0
1.6501412391662598,0.358795166015625,-0.450225830078125,0.31201171875,-0.7557373046875,0.06103515625,-0.18310546875,0.1220703125,0.4532470703125,-0.7918701171875,0.3973388671875,-282.0,151.0,-151.0,101713.0,-3.2310001850128174,0,0
1.6501412391662598,0.35870361328125,-0.450164794921875,0.31207275390625,-0.75579833984375,-0.244140625,-0.18310546875,-0.1220703125,0.454833984375,-0.79248046875,0.398681640625,-282.0,151.0,-151.0,101713.0,-3.2310001850128174,0,0
1.650780200958252,0.35870361328125,-0.4501953125,0.31207275390625,-0.75579833984375,0.18310546875,-0.06103515625,0.06103515625,0.45751953125,-0.7939453125,0.3974609375,-282.0,151.0,-151.0,101713.0,-3.2310001850128174,0,0
1.650780200958252,0.35870361328125,-0.4501953125,0.31207275390625,-0.75579833984375,-0.1220703125,-0.06103515625,0.0,0.455322265625,-0.79345703125,0.3988037109375,-282.0,151.0,-151.0,101713.0,-3.2310001850128174,0,0
1.650780200958252,0.35870361328125,-0.4501953125,0.31207275390625,-0.75579833984375,-0.1220703125,-0.06103515625,0.0,0.455322265625,-0.79345703125,0.3988037109375,-282.0,151.0,-151.0,101713.0,-3.2310001850128174,0,0
1.650780200958252,0.35870361328125,-0.450164794921875,0.31207275390625,-0.75579833984375,-0.18310546875,-0.1220703125,-0.18310546875,0.455810546875,-0.7906494140625,0.4002685546875,-282.0,151.0,-151.0,101713.0,-3.2310001850128174,0,0
1.7177848815917969,0.358673095703125,-0.4501953125,0.31207275390625,-0.75579833984375,-0.06103515625,-0.1220703125,-0.18310546875,0.4578857421875,-0.79345703125,0.3970947265625,-282.0,151.0,-151.0,101713.0,-3.2310001850128174,0,0
1.7177848815917969,0.358673095703125,-0.4501953125,0.31207275390625,-0.75579833984375,0.18310546875,-0.42724609375,-0.1220703125,0.454833984375,-0.793212890625,0.398193359375,-282.0,151.0,-151.0,101713.0,-3.2310001850128174,0,0
1.7177848815917969,0.35870361328125,-0.4501953125,0.31207275390625,-0.75579833984375,-0.1220703125,-0.54931640625,-0.18310546875,0.4544677734375,-0.7921142578125,0.399169921875,-282.0,151.0,-151.0,101713.0,-3.2310001850128174,0,0
1.7177848815917969,0.35870361328125,-0.450164794921875,0.31207275390625,-0.75579833984375,-0.18310546875,-0.18310546875,-0.18310546875,0.4542236328125,-0.791259765625,0.3984375,-282.0,151.0,-151.0,101713.0,-3.2310001850128174,0,0
1.7177848815917969,0.358673095703125,-0.4501953125,0.31207275390625,-0.75579833984375,0.30517578125,-0.30517578125,-0.18310546875,0.455322265625,-0.7921142578125,0.3968505859375,-282.0,151.0,-151.0,101713.0,-3.2310001850128174,0,0
1.7183222770690918,0.358673095703125,-0.4501953125,0.31207275390625,-0.75579833984375,0.0,-0.06103515625,-0.06103515625,0.4561767578125,-0.7928466796875,0.399169921875,-282.0,151.0,-151.0,101713.0,-3.2310001850128174,0,0
1.7183222770690918,0.358673095703125,-0.4501953125,0.31207275390625,-0.75579833984375,0.0,-0.06103515625,-0.06103515625,0.4561767578125,-0.7928466796875,0.399169921875,-282.0,151.0,-151.0,101713.0,-3.2310001850128174,0,0
1.7183222770690918,0.358673095703125,-0.4501953125,0.31207275390625,-0.75579833984375,0.06103515625,-0.244140625,-0.1220703125,0.4581298828125,-0.7908935546875,0.39697265625,-282.0,151.0,-151.0,101713.0,-3.2310001850128174,0,0
1.7183222770690918,0.358673095703125,-0.4501953125,0.31207275390625,-0.75579833984375,-0.1220703125,-0.244140625,0.1220703125,0.455078125,-0.794189453125,0.3978271484375,-282.0,151.0,-151.0,101713.0,-3.2310001850128174,0,0
1.7183222770690918,0.358673095703125,-0.4501953125,0.31207275390625,-0.75579833984375,0.18310546875,-0.18310546875,0.1220703125,0.453369140625,-0.7939453125,0.3990478515625,-282.0,151.0,-151.0,101713.0,-3.2310001850128174,0,0
1.7183222770690918,0.358673095703125,-0.4501953125,0.31207275390625,-0.75579833984375,0.06103515625,0.0,0.18310546875,0.4559326171875,-0.7943115234375,0.39892578125,-282.0,151.0,-151.0,101713.0,-3.2310001850128174,0,0
1.7755961418151855,0.35870361328125,-0.4501953125,0.31207275390625,-0.75579833984375,0.0,0.0,0.0,0.453369140625,-0.7935791015625,0.3990478515625,-282.0,151.0,-151.0,101713.0,-3.2310001850128174,0,0
1.7755961418151855,0.35870361328125,-0.450164794921875,0.31207275390625,-0.75579833984375,-0.06103515625,-0.18310546875,0.06103515625,0.453857421875,-0.79345703125,0.3992919921875,-282.0,151.0,-151.0,101713.0,-3.2260000705718994,0,0
1.7755961418151855,0.358795166015625,-0.450225830078125,0.31201171875,-0.7557373046875,-0.06103515625,-0.18310546875,0.06103515625,0.453857421875,-0.79345703125,0.3992919921875,-283.0,151.0,-151.0,101713.0,-3.2260000705718994,0,0
1.7755961418151855,0.358795166015625,-0.450225830078125,0.31201171875,-0.7557373046875,0.1220703125,0.0,0.0,0.4564208984375,-0.792724609375,0.39892578125,-283.0,151.0,-151.0,101713.0,-3.2260000705718994,0,0
1.7755961418151855,0.358795166015625,-0.450225830078125,0.31201171875,-0.7557373046875,0.1220703125,0.0,0.0,0.4564208984375,-0.792724609375,0.39892578125,-283.0,151.0,-151.0,101713.0,-3.2260000705718994,0,0
1.7755961418151855,0.358795166015625,-0.450225830078125,0.31201171875,-0.7557373046875,-0.18310546875,-0.18310546875,0.1220703125,0.4559326171875,-0.7928466796875,0.3975830078125,-283.0,151.0,-151.0,101713.0,-3.2260000705718994,0,0
1.7765529155731201,0.358795166015625,-0.450225830078125,0.31201171875,-0.7557373046875,0.06103515625,-0.30517578125,-0.18310546875,0.456298828125,-0.793701171875,0.399658203125,-283.0,151.0,-151.0,101713.0,-3.2260000705718994,0,0
1.7841918468475342,0.358795166015625,-0.450225830078125,0.31201171875,-0.7557373046875,0.06103515625,0.06103515625,0.0,0.4566650390625,-0.792724609375,0.3974609375,-283.0,151.0,-151.0,101713.0,-3.2260000705718994,0,0
1.7851536273956299,0.358795166015625,-0.450225830078125,0.31201171875,-0.7557373046875,0.06103515625,-0.244140625,-0.3662109375,0.45556640625,-0.79443359375,0.3983154296875,-283.0,151.0,-151.0,101713.0,-3.2260000705718994,0,0
1.7851536273956299,0.358795166015625,-0.450225830078125,0.31201171875,-0.7557373046875,0.0,-0.30517578125,0.0,0.4561767578125,-0.79248046875,0.40087890625,-283.0,151.0,-151.0,101713.0,-3.2260000705718994,0,0
1.7851536273956299,0.358795166015625,-0.450225830078125,0.31201171875,-0.7557373046875,-0.06103515625,-0.244140625,0.18310546875,0.458251953125,-0.7926025390625,0.396240234375,-283.0,151.0,-151.0,101713.0,-3.2260000705718994,0,0
1.7851536273956299,0.358795166015625,-0.450225830078125,0.31201171875,-0.7557373046875,-0.06103515625,-0.244140625,0.18310546875,0.458251953125,-0.7926025390625,0.396240234375,-283.0,151.0,-151.0,101713.0,-3.2260000705718994,0,0
1.7851536273956299,0.358795166015625,-0.450225830078125,0.31201171875,-0.7557373046875,-0.18310546875,0.06103515625,-0.18310546875,0.453857421875,-0.7913818359375,0.39794921875,-283.0,151.0,-151.0,101713.0,-3.2260000705718994,0,0
1.8427588939666748,0.358795166015625,-0.450225830078125,0.31201171875,-0.7557373046875,-0.18310546875,-0.1220703125,-0.1220703125,0.4561767578125,-0.792724609375,0.39892578125,-283.0,151.0,-151.0,101713.0,-3.2260000705718994,0,0
1.8427588939666748,0.358795166015625,-0.450225830078125,0.31201171875,-0.7557373046875,-0.1220703125,-0.18310546875,0.06103515625,0.4554443359375,-0.7928466796875,0.3985595703125,-283.0,151.0,-151.0,101713.0,-3.2260000705718994,0,0
1.8427588939666748,0.358795166015625,-0.450225830078125,0.31201171875,-0.7557373046875,0.3662109375,0.06103515625,-0.244140625,0.45263671875,-0.7919921875,0.39892578125,-283.0,151.0,-151.0,101713.0,-3.2260000705718994,0,0
1.8427588939666748,0.358795166015625,-0.450225830078125,0.31201171875,-0.7557373046875,0.06103515625,-0.1220703125,-0.06103515625,0.4544677734375,-0.7923583984375,0.398193359375,-283.0,151.0,-151.0,101713.0,-3.2260000705718994,0,0
1.8427588939666748,0.358795166015625,-0.450225830078125,0.312042236328125,-0.7557373046875,-0.48828125,-0.18310546875,0.0,0.4534912109375,-0.794189453125,0.399658203125,-283.0,151.0,-151.0,101713.0,-3.2260000705718994,0,0
1.8427588939666748,0.358795166015625,-0.450225830078125,0.312042236328125,-0.7557373046875,0.1220703125,-0.06103515625,-0.1220703125,0.4542236328125,-0.7930908203125,0.3975830078125,-283.0,151.0,-151.0,101713.0,-3.2260000705718994,0,0
1.8427588939666748,0.358795166015625,-0.450225830078125,0.312042236328125,-0.7557373046875,-0.30517578125,-0.244140625,-0.18310546875,0.454345703125,-0.792236328125,0.3983154296875,-284.0,151.0,-150.0,101713.0,-3.2300002574920654,0,0
1.8427588939666748,0.358795166015625,-0.450225830078125,0.312042236328125,-0.7557373046875,0.06103515625,0.0,-0.1220703125,0.4556884765625,-0.791748046875,0.397216796875,-284.0,151.0,-150.0,101713.0,-3.2300002574920654,0,0
1.8427588939666748,0.358795166015625,-0.450225830078125,0.312042236328125,-0.7557373046875,0.06103515625,0.0,-0.1220703125,0.4556884765625,-0.791748046875,0.397216796875,-284.0,151.0,-150.0,101713.0,-3.2300002574920654,0,0
1.8427588939666748,0.358795166015625,-0.450225830078125,0.312042236328125,-0.7557373046875,-0.1220703125,-0.06103515625,-0.1220703125,0.455322265625,-0.793701171875,0.3980712890625,-284.0,151.0,-150.0,101713.0,-3.2300002574920654,0,0
1.8427588939666748,0.358795166015625,-0.45025634765625,0.312042236328125,-0.7557373046875,0.0,-0.1220703125,-0.1220703125,0.4566650390625,-0.793212890625,0.3966064453125,-284.0,151.0,-150.0,101713.0,-3.2300002574920654,0,0
1.9174342155456543,0.358795166015625,-0.450225830078125,0.312042236328125,-0.7557373046875,-0.18310546875,-0.30517578125,-0.244140625,0.4541015625,-0.7919921875,0.3975830078125,-284.0,151.0,-150.0,101713.0,-3.2300002574920654,0,0
1.9174342155456543,0.358795166015625,-0.450225830078125,0.312042236328125,-0.7557373046875,0.0,-0.1220703125,-0.244140625,0.4539794921875,-0.793701171875,0.39990234375,-284.0,151.0,-150.0,101713.0,-3.2300002574920654,0,0
1.9174342155456543,0.358795166015625,-0.450225830078125,0.312042236328125,-0.7557373046875,-0.30517578125,-0.3662109375,-0.18310546875,0.4554443359375,-0.7926025390625,0.3983154296875,-284.0,151.0,-150.0,101713.0,-3.2300002574920654,0,0
1.9174342155456543,0.358795166015625,-0.450225830078125,0.312042236328125,-0.7557373046875,0.1220703125,-0.06103515625,-0.3662109375,0.4547119140625,-0.793212890625,0.39892578125,-284.0,151.0,-150.0,101713.0,-3.2300002574920654,0,0
1.9174342155456543,0.358795166015625,-0.450225830078125,0.312042236328125,-0.7557373046875,0.0,0.30517578125,0.1220703125,0.4552001953125,-0.79150390625,0.4000244140625,-284.0,151.0,-150.0,101713.0,-3.2300002574920654,0,0
1.9184725284576416,0.358795166015625,-0.450225830078125,0.312042236328125,-0.7557373046875,0.0,0.30517578125,0.1220703125,0.4552001953125,-0.79150390625,0.4000244140625,-284.0,151.0,-150.0,101713.0,-3.2300002574920654,0,0
1.9190452098846436,0.358795166015625,-0.450225830078125,0.312042236328125,-0.7557373046875,-0.1220703125,-0.3662109375,-0.1220703125,0.4547119140625,-0.7921142578125,0.3980712890625,-284.0,151.0,-150.0,101713.0,-3.2300002574920654,0,0
1.9190452098846436,0.358795166015625,-0.450225830078125,0.31201171875,-0.7557373046875,-0.06103515625,-0.1220703125,0.06103515625,0.4566650390625,-0.7913818359375,0.39794921875,-284.0,151.0,-150.0,101713.0,-3.2300002574920654,0,0
1.9190452098846436,0.358795166015625,-0.45025634765625,0.31201171875,-0.7557373046875,-0.1220703125,-0.1220703125,-0.30517578125,0.456298828125,-0.791748046875,0.3984375,-284.0,151.0,-150.0,101713.0,-3.2300002574920654,0,0
1.9190452098846436,0.358795166015625,-0.45025634765625,0.312042236328125,-0.7557373046875,0.1220703125,-0.1220703125,-0.1220703125,0.45556640625,-0.7938232421875,0.3980712890625,-284.0,151.0,-150.0,101713.0,-3.2300002574920654,0,0
1.9190452098846436,0.358795166015625,-0.45025634765625,0.312042236328125,-0.7557373046875,-0.06103515625,-0.06103515625,-0.1220703125,0.4561767578125,-0.794189453125,0.3983154296875,-284.0,151.0,-150.0,101713.0,-3.2300002574920654,0,0
1.9662127494812012,0.358795166015625,-0.45025634765625,0.312042236328125,-0.7557373046875,0.1220703125,0.0,-0.1220703125,0.45556640625,-0.7940673828125,0.398681640625,-284.0,151.0,-150.0,101713.0,-3.2300002574920654,0,0
1.9662127494812012,0.358795166015625,-0.45025634765625,0.312042236328125,-0.7557373046875,0.244140625,-0.1220703125,-0.06103515625,0.4573974609375,-0.7923583984375,0.3985595703125,-284.0,151.0,-150.0,101713.0,-3.2300002574920654,0,0
1.9662127494812012,0.358795166015625,-0.45025634765625,0.31201171875,-0.7557373046875,-0.244140625,0.1220703125,0.0,0.454833984375,-0.7916259765625,0.3995361328125,-284.0,151.0,-150.0,101713.0,-3.2300002574920654,0,0
1.9662127494812012,0.358795166015625,-0.45025634765625,0.31201171875,-0.7557373046875,-0.244140625,0.1220703125,0.0,0.454833984375,-0.7916259765625,0.3995361328125,-284.0,151.0,-150.0,101713.0,-3.2300002574920654,0,0
1.9662127494812012,0.358795166015625,-0.45025634765625,0.31201171875,-0.7557373046875,0.1220703125,-0.18310546875,0.0,0.45654296875,-0.79443359375,0.3984375,-283.0,151.0,-150.0,101713.0,-3.2260000705718994,0,0
1.9662127494812012,0.358917236328125,-0.450286865234375,0.31195068359375,-0.75567626953125,-0.06103515625,-0.244140625,0.0,0.4556884765625,-0.7926025390625,0.3988037109375,-283.0,151.0,-150.0,101713.0,-3.2260000705718994,0,0
1.9662127494812012,0.358917236328125,-0.450286865234375,0.31195068359375,-0.75567626953125,-0.30517578125,-0.30517578125,-0.06103515625,0.45556640625,-0.7921142578125,0.3990478515625,-283.0,151.0,-150.0,101713.0,-3.2260000705718994,0,0
1.9669532775878906,0.358917236328125,-0.450286865234375,0.31195068359375,-0.75567626953125,-0.06103515625,0.0,-0.06103515625,0.4561767578125,-0.793701171875,0.3992919921875,-283.0,151.0,-150.0,101713.0,-3.2260000705718994,0,0
1.9669532775878906,0.358917236328125,-0.450286865234375,0.31195068359375,-0.75567626953125,0.06103515625,0.18310546875,0.0,0.453857421875,-0.79296875,0.3990478515625,-283.0,151.0,-150.0,101713.0,-3.2260000705718994,0,0
1.9669532775878906,0.358917236328125,-0.450286865234375,0.311981201171875,-0.75567626953125,0.06103515625,-0.18310546875,0.1220703125,0.4559326171875,-0.7945556640625,0.398681640625,-283.0,151.0,-150.0,101713.0,-3.2260000705718994,0,0
1.9669532775878906,0.358917236328125,-0.450286865234375,0.31195068359375,-0.75567626953125,0.0,-0.18310546875,0.0,0.4544677734375,-0.79248046875,0.3973388671875,-283.0,151.0,-150.0,101713.0,-3.2260000705718994,0,0
1.9669532775878906,0.358917236328125,-0.450286865234375,0.311981201171875,-0.75567626953125,0.06103515625,-0.18310546875,0.06103515625,0.4559326171875,-0.7933349609375,0.3990478515625,-283.0,151.0,-150.0,101713.0,-3.2260000705718994,0,0
1.9679501056671143,0.358917236328125,-0.450286865234375,0.311981201171875,-0.75567626953125,-0.06103515625,-0.48828125,-0.18310546875,0.4556884765625,-0.795166015625,0.399658203125,-283.0,151.0,-150.0,101713.0,-3.2260000705718994,0,0
2.052131175994873,0.358917236328125,-0.450286865234375,0.31195068359375,-0.75567626953125,-0.18310546875,-0.06103515625,-0.06103515625,0.455078125,-0.79296875,0.400634765625,-283.0,151.0,-150.0,101713.0,-3.2260000705718994,0,0
2.052131175994873,0.358917236328125,-0.450286865234375,0.31195068359375,-0.75567626953125,0.18310546875,0.0,-0.244140625,0.456787109375,-0.79296875,0.3980712890625,-283.0,151.0,-150.0,101713.0,-3.2260000705718994,0,0
2.052131175994873,0.358917236328125,-0.450286865234375,0.31195068359375,-0.75567626953125,0.06103515625,-0.18310546875,-0.18310546875,0.4580078125,-0.7938232421875,0.39990234375,-283.0,151.0,-150.0,101713.0,-3.2260000705718994,0,0
2.052131175994873,0.358917236328125,-0.450286865234375,0.31195068359375,-0.75567626953125,-0.06103515625,0.1220703125,-0.18310546875,0.4561767578125,-0.7923583984375,0.398193359375,-283.0,151.0,-150.0,101713.0,-3.2260000705718994,0,0
2.052131175994873,0.35888671875,-0.450286865234375,0.31195068359375,-0.75567626953125,-0.1220703125,0.0,0.0,0.453857421875,-0.791015625,0.3983154296875,-283.0,151.0,-150.0,101713.0,-3.2260000705718994,0,0
2.0537209510803223,0.35888671875,-0.450286865234375,0.31195068359375,-0.75567626953125,0.0,0.244140625,-0.244140625,0.455810546875,-0.7900390625,0.3984375,-283.0,151.0,-150.0,101713.0,-3.2260000705718994,0,0
2.0537209510803223,0.35888671875,-0.450286865234375,0.31195068359375,-0.75567626953125,-0.3662109375,-0.30517578125,-0.244140625,0.4525146484375,-0.7889404296875,0.3983154296875,-283.0,151.0,-150.0,101713.0,-3.2260000705718994,0,0
2.0537209510803223,0.35888671875,-0.450286865234375,0.31195068359375,-0.75567626953125,-0.3662109375,-0.30517578125,-0.244140625,0.4525146484375,-0.7889404296875,0.3983154296875,-283.0,151.0,-150.0,101713.0,-3.2260000705718994,0,0
2.0537209510803223,0.358917236328125,-0.450286865234375,0.31195068359375,-0.75567626953125,0.1220703125,-0.244140625,0.1220703125,0.455810546875,-0.7926025390625,0.39794921875,-283.0,151.0,-150.0,101713.0,-3.2260000705718994,0,0
2.0537209510803223,0.358917236328125,-0.450286865234375,0.31195068359375,-0.75567626953125,-0.18310546875,-0.30517578125,-0.1220703125,0.4549560546875,-0.7916259765625,0.3983154296875,-282.0,152.0,-150.0,101713.0,-3.2290000915527344,0,0
2.0537209510803223,0.35888671875,-0.450286865234375,0.31195068359375,-0.75567626953125,0.0,-0.1220703125,0.0,0.4566650390625,-0.791259765625,0.39990234375,-282.0,152.0,-150.0,101713.0,-3.2290000915527344,0,0
2.1244938373565674,0.35888671875,-0.4503173828125,0.31195068359375,-0.75567626953125,0.1220703125,-0.244140625,0.0,0.457275390625,-0.792724609375,0.39892578125,-282.0,152.0,-150.0,101713.0,-3.2290000915527344,0,0
2.1244938373565674,0.35888671875,-0.4503173828125,0.31195068359375,-0.75567626953125,-0.06103515625,-0.06103515625,-0.06103515625,0.4566650390625,-0.7938232421875,0.399658203125,-282.0,152.0,-150.0,101713.0,-3.2290000915527344,0,0
2.1244938373565674,0.35888671875,-0.4503173828125,0.31195068359375,-0.75567626953125,-0.1220703125,-0.3662109375,-0.1220703125,0.4554443359375,-0.7918701171875,0.3980712890625,-282.0,152.0,-150.0,101713.0,-3.2290000915527344,0,0
2.1244938373565674,0.35888671875,-0.4503173828125,0.31195068359375,-0.75567626953125,0.0,0.1220703125,-0.06103515625,0.453369140625,-0.7930908203125,0.3978271484375,-282.0,152.0,-150.0,101713.0,-3.2290000915527344,0,0
2.1244938373565674,0.35888671875,-0.4503173828125,0.31195068359375,-0.75567626953125,0.0,0.1220703125,-0.06103515625,0.453369140625,-0.7930908203125,0.3978271484375,-282.0,152.0,-150.0,101713.0,-3.2290000915527344,0,0
2.1244938373565674,0.35888671875,-0.4503173828125,0.31195068359375,-0.75567626953125,-0.244140625,0.0,-0.06103515625,0.45654296875,-0.794189453125,0.3988037109375,-282.0,152.0,-150.0,101713.0,-3.2290000915527344,0,0
2.1244938373565674,0.35888671875,-0.450286865234375,0.31195068359375,-0.75567626953125,0.244140625,-0.18310546875,-0.30517578125,0.45361328125,-0.7911376953125,0.3997802734375,-282.0,152.0,-150.0,101713.0,-3.2290000915527344,0,0
2.125483989715576,0.35888671875,-0.450286865234375,0.31195068359375,-0.75567626953125,0.42724609375,-0.18310546875,-0.1220703125,0.4547119140625,-0.792724609375,0.3997802734375,-282.0,152.0,-150.0,101713.0,-3.2290000915527344,0,0
2.125483989715576,0.35888671875,-0.450286865234375,0.31195068359375,-0.75567626953125,0.244140625,-0.1220703125,-0.1220703125,0.4564208984375,-0.7926025390625,0.39892578125,-282.0,152.0,-150.0,101713.0,-3.2290000915527344,0,0
2.125483989715576,0.35888671875,-0.450286865234375,0.31195068359375,-0.75567626953125,0.0,-0.244140625,0.0,0.4544677734375,-0.792724609375,0.3988037109375,-282.0,152.0,-150.0,101713.0,-3.2290000915527344,0,0
2.125483989715576,0.35888671875,-0.450286865234375,0.31195068359375,-0.75567626953125,-0.06103515625,-0.30517578125,0.0,0.4544677734375,-0.7911376953125,0.398681640625,-282.0,152.0,-150.0,101713.0,-3.2290000915527344,0,0
2.1577470302581787,0.35888671875,-0.450286865234375,0.31195068359375,-0.75567626953125,0.0,0.0,-0.1220703125,0.4544677734375,-0.7926025390625,0.40087890625,-282.0,152.0,-150.0,101713.0,-3.2290000915527344,0,0
2.1577470302581787,0.358917236328125,-0.450286865234375,0.31195068359375,-0.75567626953125,0.1220703125,-0.18310546875,-0.06103515625,0.454345703125,-0.7923583984375,0.4000244140625,-282.0,152.0,-150.0,101713.0,-3.2290000915527344,0,0
2.1577470302581787,0.358917236328125,-0.450286865234375,0.31195068359375,-0.75567626953125,0.1220703125,-0.18310546875,-0.06103515625,0.454345703125,-0.7923583984375,0.4000244140625,-282.0,152.0,-150.0,101713.0,-3.2290000915527344,0,0
2.1577470302581787,0.358917236328125,-0.450286865234375,0.31195068359375,-0.75567626953125,0.1220703125,-0.1220703125,0.0,0.454833984375,-0.7916259765625,0.3985595703125,-282.0,152.0,-150.0,101713.0,-3.2290000915527344,0,0
2.1577470302581787,0.358917236328125,-0.450286865234375,0.31195068359375,-0.75567626953125,0.1220703125,-0.18310546875,-0.06103515625,0.455810546875,-0.790283203125,0.3974609375,-282.0,152.0,-150.0,101713.0,-3.2290000915527344,0,0
2.1577470302581787,0.358917236328125,-0.450286865234375,0.31195068359375,-0.75567626953125,0.1220703125,-0.18310546875,-0.06103515625,0.455810546875,-0.790283203125,0.3974609375,-282.0,151.0,-149.0,101713.0,-3.2260000705718994,0,0
2.1577470302581787,0.358917236328125,-0.450286865234375,0.31195068359375,-0.75567626953125,0.06103515625,-0.244140625,-0.06103515625,0.456298828125,-0.7943115234375,0.399658203125,-282.0,151.0,-149.0,101713.0,-3.2260000705718994,0,0
2.1577470302581787,0.3590087890625,-0.450347900390625,0.3118896484375,-0.755645751953125,0.1220703125,-0.1220703125,0.0,0.4552001953125,-0.7933349609375,0.399658203125,-282.0,151.0,-149.0,101713.0,-3.2260000705718994,0,0
2.1577470302581787,0.3590087890625,-0.450347900390625,0.311859130859375,-0.755645751953125,0.06103515625,-0.1220703125,-0.18310546875,0.455810546875,-0.7921142578125,0.398193359375,-282.0,151.0,-149.0,101713.0,-3.2260000705718994,0,0
2.158419132232666,0.3590087890625,-0.450347900390625,0.311859130859375,-0.755645751953125,-0.1220703125,-0.30517578125,-0.18310546875,0.4556884765625,-0.7933349609375,0.3985595703125,-282.0,151.0,-149.0,101713.0,-3.2260000705718994,0,0
2.158419132232666,0.3590087890625,-0.450347900390625,0.3118896484375,-0.755645751953125,0.06103515625,-0.06103515625,-0.1220703125,0.455322265625,-0.793701171875,0.3985595703125,-282.0,151.0,-149.0,101713.0,-3.2260000705718994,0,0
2.158419132232666,0.3590087890625,-0.4503173828125,0.3118896484375,-0.755645751953125,-0.244140625,-0.30517578125,-0.18310546875,0.4530029296875,-0.79150390625,0.3978271484375,-282.0,151.0,-149.0,101713.0,-3.2260000705718994,0,0
2.158419132232666,0.3590087890625,-0.4503173828125,0.3118896484375,-0.755645751953125,-0.244140625,-0.30517578125,-0.18310546875,0.4530029296875,-0.79150390625,0.3978271484375,-282.0,151.0,-149.0,101713.0,-3.2260000705718994,0,0
2.2240383625030518,0.3590087890625,-0.4503173828125,0.311859130859375,-0.755645751953125,-0.3662109375,-0.06103515625,-0.06103515625,0.4527587890625,-0.792236328125,0.400390625,-282.0,151.0,-149.0,101713.0,-3.2260000705718994,0,0
2.2240383625030518,0.3590087890625,-0.4503173828125,0.311859130859375,-0.755645751953125,0.0,-0.1220703125,-0.1220703125,0.4537353515625,-0.7899169921875,0.398681640625,-282.0,151.0,-149.0,101713.0,-3.2260000705718994,0,0
2.2240383625030518,0.3590087890625,-0.4503173828125,0.311859130859375,-0.755645751953125,-0.06103515625,-0.18310546875,0.18310546875,0.45703125,-0.7899169921875,0.399169921875,-282.0,151.0,-149.0,101713.0,-3.2260000705718994,0,0
2.2253880500793457,0.3590087890625,-0.4503173828125,0.311859130859375,-0.755645751953125,0.06103515625,-0.06103515625,-0.244140625,0.455810546875,-0.79296875,0.3978271484375,-282.0,151.0,-149.0,101713.0,-3.2260000705718994,0,0
2.2253880500793457,0.3590087890625,-0.4503173828125,0.311859130859375,-0.755645751953125,0.06103515625,-0.06103515625,0.0,0.4541015625,-0.7908935546875,0.400390625,-282.0,151.0,-149.0,101713.0,-3.2260000705718994,0,0
2.2273919582366943,0.3590087890625,-0.4503173828125,0.311859130859375,-0.755645751953125,-0.1220703125,-0.244140625,0.0,0.455322265625,-0.790771484375,0.3994140625,-282.0,151.0,-149.0,101713.0,-3.2260000705718994,0,0
2.2273919582366943,0.3590087890625,-0.4503173828125,0.311859130859375,-0.755645751953125,-0.1220703125,-0.244140625,0.0,0.455322265625,-0.790771484375,0.3994140625,-282.0,151.0,-149.0,101713.0,-3.2260000705718994,0,0
2.2273919582366943,0.3590087890625,-0.4503173828125,0.311859130859375,-0.755645751953125,-0.30517578125,-0.30517578125,-0.3662109375,0.45556640625,-0.79150390625,0.399169921875,-282.0,151.0,-149.0,101713.0,-3.2260000705718994,0,0
2.2273919582366943,0.3590087890625,-0.4503173828125,0.311859130859375,-0.755645751953125,-0.06103515625,-0.18310546875,0.06103515625,0.45556640625,-0.79248046875,0.3985595703125,-282.0,151.0,-149.0,101713.0,-3.2260000705718994,0,0
2.2273919582366943,0.3590087890625,-0.4503173828125,0.311859130859375,-0.755645751953125,-0.18310546875,-0.30517578125,-0.1220703125,0.4580078125,-0.793212890625,0.3973388671875,-282.0,151.0,-149.0,101713.0,-3.2260000705718994,0,0
2.2273919582366943,0.3590087890625,-0.4503173828125,0.311859130859375,-0.755645751953125,-0.06103515625,-0.18310546875,0.18310546875,0.4566650390625,-0.7935791015625,0.3984375,-282.0,151.0,-149.0,101713.0,-3.2300002574920654,0,0
2.285628318786621,0.3590087890625,-0.4503173828125,0.311859130859375,-0.755645751953125,-0.18310546875,0.0,-0.244140625,0.452880859375,-0.7904052734375,0.398681640625,-281.0,150.0,-149.0,101713.0,-3.2300002574920654,0,0
2.285628318786621,0.3590087890625,-0.4503173828125,0.311859130859375,-0.755645751953125,-0.1220703125,-0.18310546875,0.06103515625,0.455322265625,-0.79345703125,0.4013671875,-281.0,150.0,-149.0,101713.0,-3.2300002574920654,0,0
2.285628318786621,0.3590087890625,-0.4503173828125,0.311859130859375,-0.755645751953125,0.06103515625,-0.1220703125,-0.30517578125,0.45703125,-0.7939453125,0.3974609375,-281.0,150.0,-149.0,101713.0,-3.2300002574920654,0,0
2.285628318786621,0.3590087890625,-0.4503173828125,0.311859130859375,-0.755645751953125,0.06103515625,-0.1220703125,-0.30517578125,0.45703125,-0.7939453125,0.3974609375,-281.0,150.0,-149.0,101713.0,-3.2300002574920654,0,0
2.286222457885742,0.3590087890625,-0.4503173828125,0.311859130859375,-0.755645751953125,0.18310546875,-0.1220703125,0.06103515625,0.4556884765625,-0.7921142578125,0.39892578125,-281.0,150.0,-149.0,101713.0,-3.2300002574920654,0,0
2.286393165588379,0.3590087890625,-0.4503173828125,0.311859130859375,-0.755645751953125,-0.244140625,-0.1220703125,-0.06103515625,0.45458984375,-0.791015625,0.3988037109375,-281.0,150.0,-149.0,101713.0,-3.2300002574920654,0,0
2.286393165588379,0.3590087890625,-0.4503173828125,0.311859130859375,-0.755645751953125,0.1220703125,-0.244140625,0.06103515625,0.453369140625,-0.7930908203125,0.3997802734375,-281.0,150.0,-149.0,101713.0,-3.2300002574920654,0,0
2.286393165588379,0.3590087890625,-0.4503173828125,0.311859130859375,-0.755645751953125,0.0,-0.18310546875,0.0,0.4547119140625,-0.7913818359375,0.4002685546875,-281.0,150.0,-149.0,101713.0,-3.2300002574920654,0,0
2.286393165588379,0.3590087890625,-0.4503173828125,0.311859130859375,-0.755645751953125,0.0,-0.06103515625,-0.1220703125,0.45654296875,-0.7908935546875,0.4005126953125,-281.0,150.0,-149.0,101713.0,-3.2300002574920654,0,0
2.286393165588379,0.3590087890625,-0.4503173828125,0.311859130859375,-0.755645751953125,-0.1220703125,-0.18310546875,0.0,0.454833984375,-0.7933349609375,0.3992919921875,-281.0,150.0,-149.0,101713.0,-3.2300002574920654,0,0
2.286393165588379,0.359039306640625,-0.450286865234375,0.311859130859375,-0.755645751953125,-0.1220703125,-0.18310546875,-0.06103515625,0.453369140625,-0.791748046875,0.3994140625,-281.0,150.0,-149.0,101713.0,-3.2300002574920654,0,0
2.286393165588379,0.3590087890625,-0.4503173828125,0.311859130859375,-0.755645751953125,0.79345703125,-0.1220703125,-0.18310546875,0.4569091796875,-0.7933349609375,0.3994140625,-281.0,150.0,-149.0,101713.0,-3.2300002574920654,0,0
2.353506565093994,0.3590087890625,-0.4503173828125,0.311859130859375,-0.755645751953125,0.79345703125,-0.1220703125,-0.18310546875,0.4569091796875,-0.7933349609375,0.3994140625,-281.0,150.0,-149.0,101713.0,-3.2300002574920654,0,0
2.353506565093994,0.359039306640625,-0.450286865234375,0.31182861328125,-0.75567626953125,-0.06103515625,0.0,-0.1220703125,0.4559326171875,-0.7896728515625,0.4013671875,-281.0,150.0,-149.0,101713.0,-3.2300002574920654,0,0
2.3539915084838867,0.359039306640625,-0.450286865234375,0.31182861328125,-0.75567626953125,-0.1220703125,-0.244140625,-0.06103515625,0.4566650390625,-0.791259765625,0.40087890625,-281.0,150.0,-149.0,101713.0,-3.2300002574920654,0,0
2.3539915084838867,0.359039306640625,-0.450286865234375,0.31182861328125,-0.75567626953125,0.0,-0.1220703125,-0.18310546875,0.456298828125,-0.79345703125,0.3992919921875,-281.0,150.0,-149.0,101713.0,-3.2300002574920654,0,0
2.355525255203247,0.359039306640625,-0.450286865234375,0.31182861328125,-0.75567626953125,-0.1220703125,-0.18310546875,-0.1220703125,0.455810546875,-0.792724609375,0.39794921875,-281.0,150.0,-149.0,101713.0,-3.2300002574920654,0,0
2.355525255203247,0.3590087890625,-0.450286865234375,0.31182861328125,-0.75567626953125,0.244140625,-0.18310546875,-0.244140625,0.4549560546875,-0.78955078125,0.399169921875,-281.0,150.0,-149.0,101713.0,-3.2300002574920654,0,0
2.3564796447753906,0.359039306640625,-0.450286865234375,0.31182861328125,-0.75567626953125,0.244140625,-0.18310546875,-0.244140625,0.4549560546875,-0.78955078125,0.399169921875,-280.0,150.0,-149.0,101713.0,-3.2260000705718994,0,0
2.357473850250244,0.358917236328125,-0.450225830078125,0.3118896484375,-0.7557373046875,0.244140625,0.0,-0.18310546875,0.451904296875,-0.7911376953125,0.4007568359375,-280.0,150.0,-149.0,101713.0,-3.2260000705718994,0,0
2.357473850250244,0.358917236328125,-0.450225830078125,0.3118896484375,-0.7557373046875,-0.18310546875,-0.3662109375,-0.06103515625,0.455810546875,-0.7913818359375,0.4000244140625,-280.0,150.0,-149.0,101713.0,-3.2260000705718994,0,0
2.357473850250244,0.358917236328125,-0.450225830078125,0.3118896484375,-0.7557373046875,-0.18310546875,-0.3662109375,-0.06103515625,0.455810546875,-0.7913818359375,0.4000244140625,-280.0,150.0,-149.0,101713.0,-3.2260000705718994,0,0
2.357473850250244,0.358917236328125,-0.450225830078125,0.3118896484375,-0.7557373046875,0.0,-0.06103515625,-0.18310546875,0.4549560546875,-0.7918701171875,0.3997802734375,-280.0,150.0,-149.0,101713.0,-3.2260000705718994,0,0
2.357473850250244,0.358917236328125,-0.450225830078125,0.3118896484375,-0.7557373046875,0.1220703125,-0.18310546875,-0.18310546875,0.456298828125,-0.791259765625,0.3968505859375,-280.0,150.0,-149.0,101713.0,-3.2260000705718994,0,0
2.4169552326202393,0.358917236328125,-0.450225830078125,0.3118896484375,-0.7557373046875,0.0,-0.06103515625,0.0,0.453857421875,-0.7926025390625,0.3984375,-280.0,150.0,-149.0,101713.0,-3.2260000705718994,0,0
2.4169552326202393,0.358917236328125,-0.450225830078125,0.3118896484375,-0.7557373046875,0.42724609375,-0.3662109375,0.0,0.455078125,-0.7933349609375,0.3988037109375,-280.0,150.0,-149.0,101713.0,-3.2260000705718994,0,0
2.417933225631714,0.358917236328125,-0.450225830078125,0.3118896484375,-0.7557373046875,0.06103515625,-0.30517578125,0.0,0.4534912109375,-0.7923583984375,0.399169921875,-280.0,150.0,-149.0,101713.0,-3.2260000705718994,0,0
2.417933225631714,0.358917236328125,-0.450225830078125,0.3118896484375,-0.7557373046875,-0.18310546875,-0.42724609375,-0.1220703125,0.45263671875,-0.7935791015625,0.3994140625,-280.0,150.0,-149.0,101713.0,-3.2260000705718994,0,0
2.417933225631714,0.358917236328125,-0.450225830078125,0.311920166015625,-0.7557373046875,0.06103515625,-0.06103515625,-0.1220703125,0.45654296875,-0.7918701171875,0.3988037109375,-280.0,150.0,-149.0,101713.0,-3.2260000705718994,0,0
2.4189860820770264,0.358917236328125,-0.450225830078125,0.311920166015625,-0.7557373046875,0.06103515625,-0.06103515625,-0.1220703125,0.45654296875,-0.7918701171875,0.3988037109375,-280.0,150.0,-149.0,101713.0,-3.2260000705718994,0,0
2.4189860820770264,0.358917236328125,-0.450225830078125,0.311920166015625,-0.7557373046875,0.06103515625,-0.1220703125,0.06103515625,0.4541015625,-0.7939453125,0.3985595703125,-280.0,150.0,-149.0,101713.0,-3.2260000705718994,0,0
2.4189860820770264,0.35894775390625,-0.450225830078125,0.311920166015625,-0.7557373046875,-0.06103515625,0.0,-0.06103515625,0.4552001953125,-0.7945556640625,0.3984375,-280.0,150.0,-149.0,101713.0,-3.2260000705718994,0,0
2.4189860820770264,0.35894775390625,-0.450225830078125,0.311920166015625,-0.7557373046875,-0.18310546875,-0.30517578125,-0.1220703125,0.454833984375,-0.7943115234375,0.400390625,-280.0,150.0,-149.0,101713.0,-3.2260000705718994,0,0
2.4189860820770264,0.35894775390625,-0.450225830078125,0.311920166015625,-0.7557373046875,-0.06103515625,-0.1220703125,-0.06103515625,0.4530029296875,-0.7919921875,0.399658203125,-280.0,150.0,-149.0,101713.0,-3.2260000705718994,0,0
2.4199228286743164,0.35894775390625,-0.450225830078125,0.311920166015625,-0.7557373046875,0.42724609375,-0.1220703125,0.18310546875,0.4564208984375,-0.7943115234375,0.400390625,-280.0,150.0,-149.0,101713.0,-3.2260000705718994,0,0
2.4764974117279053,0.35894775390625,-0.450225830078125,0.311920166015625,-0.7557373046875,0.18310546875,-0.1220703125,0.06103515625,0.456787109375,-0.7923583984375,0.3975830078125,-280.0,150.0,-149.0,101713.0,-3.2290000915527344,0,0
2.4764974117279053,0.35894775390625,-0.450225830078125,0.311920166015625,-0.7557373046875,0.18310546875,-0.1220703125,0.06103515625,0.456787109375,-0.7923583984375,0.3975830078125,-280.0,150.0,-149.0,101713.0,-3.2290000915527344,0,0
2.4764974117279053,0.35882568359375,-0.450164794921875,0.311981201171875,-0.75579833984375,-0.06103515625,-0.06103515625,-0.18310546875,0.456787109375,-0.7918701171875,0.3995361328125,-280.0,150.0,-149.0,101713.0,-3.2290000915527344,0,0
2.4764974117279053,0.35882568359375,-0.450164794921875,0.311981201171875,-0.75579833984375,0.0,-0.30517578125,0.06103515625,0.45654296875,-0.7918701171875,0.3978271484375,-280.0,150.0,-149.0,101713.0,-3.2290000915527344,0,0
2.47751522064209,0.35882568359375,-0.450164794921875,0.31195068359375,-0.75579833984375,-0.18310546875,0.1220703125,0.0,0.4566650390625,-0.79052734375,0.3992919921875,-280.0,150.0,-149.0,101713.0,-3.2290000915527344,0,0
2.478191614151001,0.35882568359375,-0.450164794921875,0.31195068359375,-0.75579833984375,-0.1220703125,-0.1220703125,-0.1220703125,0.4559326171875,-0.7923583984375,0.39892578125,-280.0,150.0,-149.0,101713.0,-3.2290000915527344,0,0
2.478191614151001,0.35882568359375,-0.450164794921875,0.31195068359375,-0.75579833984375,-0.06103515625,-0.244140625,0.0,0.4544677734375,-0.7923583984375,0.3988037109375,-280.0,150.0,-149.0,101713.0,-3.2290000915527344,0,0
2.478191614151001,0.35882568359375,-0.450164794921875,0.311981201171875,-0.75579833984375,0.1220703125,0.06103515625,-0.18310546875,0.4541015625,-0.7938232421875,0.4002685546875,-280.0,150.0,-149.0,101713.0,-3.2290000915527344,0,0
2.478191614151001,0.35882568359375,-0.450164794921875,0.311981201171875,-0.75579833984375,-0.06103515625,0.0,-0.18310546875,0.4530029296875,-0.7930908203125,0.3992919921875,-280.0,150.0,-149.0,101713.0,-3.2290000915527344,0,0
2.478527784347534,0.35882568359375,-0.450164794921875,0.311981201171875,-0.75579833984375,0.06103515625,-0.3662109375,0.06103515625,0.45458984375,-0.79052734375,0.399658203125,-280.0,150.0,-149.0,101713.0,-3.2290000915527344,0,0
2.478527784347534,0.35882568359375,-0.450164794921875,0.311981201171875,-0.75579833984375,0.67138671875,-0.18310546875,-0.30517578125,0.4560546875,-0.793212890625,0.4000244140625,-280.0,150.0,-149.0,101713.0,-3.2290000915527344,0,0
2.478527784347534,0.35882568359375,-0.450164794921875,0.311981201171875,-0.75579833984375,0.67138671875,-0.18310546875,-0.30517578125,0.4560546875,-0.793212890625,0.4000244140625,-280.0,150.0,-149.0,101713.0,-3.2290000915527344,0,0
2.544379949569702,0.35882568359375,-0.450164794921875,0.31195068359375,-0.75579833984375,0.0,0.06103515625,-0.1220703125,0.4556884765625,-0.7928466796875,0.398681640625,-280.0,150.0,-149.0,101713.0,-3.2290000915527344,0,0
2.544379949569702,0.35882568359375,-0.450164794921875,0.31195068359375,-0.75579833984375,-0.1220703125,-0.1220703125,-0.18310546875,0.4547119140625,-0.7918701171875,0.400390625,-280.0,150.0,-149.0,101713.0,-3.2290000915527344,0,0
2.544379949569702,0.35882568359375,-0.450164794921875,0.31195068359375,-0.75579833984375,0.0,-0.18310546875,-0.1220703125,0.4554443359375,-0.7926025390625,0.3992919921875,-280.0,150.0,-149.0,101713.0,-3.2290000915527344,0,0
2.544379949569702,0.35882568359375,-0.450164794921875,0.31195068359375,-0.75579833984375,0.1220703125,-0.244140625,0.18310546875,0.4539794921875,-0.7930908203125,0.4005126953125,-280.0,150.0,-149.0,101713.0,-3.2290000915527344,0,0
2.544379949569702,0.35882568359375,-0.450164794921875,0.31195068359375,-0.75579833984375,0.06103515625,-0.06103515625,0.0,0.45654296875,-0.7906494140625,0.4000244140625,-280.0,150.0,-149.0,101713.0,-3.2290000915527344,0,0
2.544379949569702,0.35882568359375,-0.450164794921875,0.31195068359375,-0.75579833984375,0.1220703125,-0.1220703125,-0.06103515625,0.4547119140625,-0.7916259765625,0.3992919921875,-280.0,150.0,-149.0,101713.0,-3.2290000915527344,0,0
2.5453386306762695,0.35882568359375,-0.450164794921875,0.31195068359375,-0.75579833984375,-0.1220703125,-0.1220703125,-0.18310546875,0.4564208984375,-0.7933349609375,0.399169921875,-280.0,150.0,-149.0,101713.0,-3.2290000915527344,0,0
2.5453386306762695,0.35882568359375,-0.450164794921875,0.31195068359375,-0.75579833984375,-0.06103515625,-0.18310546875,-0.1220703125,0.454833984375,-0.7933349609375,0.39892578125,-280.0,150.0,-149.0,101713.0,-3.2290000915527344,0,0
2.5453386306762695,0.35882568359375,-0.450164794921875,0.31195068359375,-0.75579833984375,-0.06103515625,-0.18310546875,-0.1220703125,0.454833984375,-0.7933349609375,0.39892578125,-280.0,150.0,-149.0,101713.0,-3.2290000915527344,0,0
2.5453386306762695,0.35882568359375,-0.450164794921875,0.31195068359375,-0.75579833984375,-0.67138671875,0.0,-0.1220703125,0.4569091796875,-0.792236328125,0.3992919921875,-280.0,150.0,-149.0,101713.0,-3.2260000705718994,0,0
2.546332597732544,0.35870361328125,-0.450103759765625,0.31201171875,-0.755859375,0.42724609375,-0.18310546875,-0.244140625,0.4534912109375,-0.79150390625,0.398681640625,-280.0,150.0,-149.0,101713.0,-3.2260000705718994,0,0
2.546332597732544,0.35870361328125,-0.450103759765625,0.312042236328125,-0.755859375,-0.1220703125,-0.18310546875,-0.1220703125,0.455078125,-0.7923583984375,0.399658203125,-280.0,150.0,-149.0,101713.0,-3.2260000705718994,0,0
2.6077191829681396,0.358734130859375,-0.450103759765625,0.312042236328125,-0.755859375,-0.06103515625,-0.06103515625,-0.06103515625,0.4539794921875,-0.791259765625,0.3992919921875,-280.0,150.0,-149.0,101713.0,-3.2260000705718994,0,0
2.6077191829681396,0.358734130859375,-0.450103759765625,0.31201171875,-0.755859375,-0.06103515625,-0.1220703125,-0.18310546875,0.4541015625,-0.7890625,0.4002685546875,-280.0,150.0,-149.0,101713.0,-3.2260000705718994,0,0
2.6077191829681396,0.358734130859375,-0.450103759765625,0.31201171875,-0.755859375,-0.1220703125,-0.30517578125,0.06103515625,0.4552001953125,-0.7935791015625,0.3994140625,-280.0,150.0,-149.0,101713.0,-3.2260000705718994,0,0
2.6077191829681396,0.358734130859375,-0.450103759765625,0.31201171875,-0.755859375,-0.18310546875,-0.1220703125,-0.244140625,0.4552001953125,-0.7926025390625,0.3997802734375,-280.0,150.0,-149.0,101713.0,-3.2260000705718994,0,0
2.6077191829681396,0.358734130859375,-0.450103759765625,0.31201171875,-0.755859375,-0.18310546875,-0.1220703125,-0.244140625,0.4552001953125,-0.7926025390625,0.3997802734375,-280.0,150.0,-149.0,101713.0,-3.2260000705718994,0,0
2.6077191829681396,0.358734130859375,-0.4500732421875,0.312042236328125,-0.755859375,0.18310546875,-0.06103515625,-0.1220703125,0.4544677734375,-0.79345703125,0.3988037109375,-280.0,150.0,-149.0,101713.0,-3.2260000705718994,0,0
2.6077191829681396,0.358734130859375,-0.4500732421875,0.312042236328125,-0.755859375,0.30517578125,-0.30517578125,-0.06103515625,0.4561767578125,-0.794189453125,0.3992919921875,-280.0,150.0,-149.0,101713.0,-3.2260000705718994,0,0
2.6077191829681396,0.358734130859375,-0.4500732421875,0.312042236328125,-0.755859375,-0.06103515625,-0.244140625,-0.30517578125,0.4534912109375,-0.79296875,0.399169921875,-280.0,150.0,-149.0,101713.0,-3.2260000705718994,0,0
2.6086864471435547,0.358734130859375,-0.4500732421875,0.312042236328125,-0.755859375,-0.1220703125,-0.30517578125,-0.1220703125,0.45361328125,-0.7901611328125,0.39794921875,-280.0,150.0,-149.0,101713.0,-3.2260000705718994,0,0
2.6086864471435547,0.358734130859375,-0.4500732421875,0.312042236328125,-0.755859375,0.06103515625,-0.1220703125,-0.1220703125,0.45361328125,-0.7913818359375,0.3984375,-280.0,150.0,-149.0,101713.0,-3.2260000705718994,0,0
2.6086864471435547,0.358734130859375,-0.450103759765625,0.31201171875,-0.755859375,-0.1220703125,-0.06103515625,-0.1220703125,0.457763671875,-0.7926025390625,0.39892578125,-280.0,150.0,-149.0,101713.0,-3.2260000705718994,0,0
2.6086864471435547,0.358734130859375,-0.450103759765625,0.31201171875,-0.755859375,-0.18310546875,-0.244140625,-0.18310546875,0.4586181640625,-0.792236328125,0.39892578125,-280.0,150.0,-149.0,101713.0,-3.2260000705718994,0,0
2.668464422225952,0.358734130859375,-0.4500732421875,0.31201171875,-0.755859375,0.0,-0.06103515625,0.1220703125,0.4534912109375,-0.7938232421875,0.399169921875,-280.0,150.0,-149.0,101713.0,-3.2290000915527344,0,0
2.668464422225952,0.358734130859375,-0.4500732421875,0.31201171875,-0.755859375,-0.06103515625,-0.18310546875,-0.18310546875,0.454345703125,-0.79150390625,0.400634765625,-282.0,150.0,-149.0,101713.0,-3.2290000915527344,0,0
2.668464422225952,0.358734130859375,-0.4500732421875,0.31201171875,-0.755859375,0.1220703125,-0.18310546875,-0.1220703125,0.4566650390625,-0.7919921875,0.3995361328125,-282.0,150.0,-149.0,101713.0,-3.2290000915527344,0,0
2.668464422225952,0.358734130859375,-0.4500732421875,0.31201171875,-0.755859375,0.06103515625,-0.06103515625,0.244140625,0.4556884765625,-0.79248046875,0.3990478515625,-282.0,150.0,-149.0,101713.0,-3.2290000915527344,0,0
2.669177770614624,0.358734130859375,-0.4500732421875,0.31201171875,-0.755859375,0.06103515625,-0.18310546875,-0.244140625,0.4552001953125,-0.790771484375,0.3975830078125,-282.0,150.0,-149.0,101713.0,-3.2290000915527344,0,0
2.669177770614624,0.358734130859375,-0.4500732421875,0.31201171875,-0.755859375,0.0,-0.06103515625,-0.18310546875,0.4542236328125,-0.7918701171875,0.3970947265625,-282.0,150.0,-149.0,101713.0,-3.2290000915527344,0,0
2.669177770614624,0.358734130859375,-0.450103759765625,0.31201171875,-0.755859375,-0.1220703125,-0.06103515625,-0.06103515625,0.45458984375,-0.7908935546875,0.3968505859375,-282.0,150.0,-149.0,101713.0,-3.2290000915527344,0,0
2.669177770614624,0.358734130859375,-0.4500732421875,0.31201171875,-0.755859375,0.0,-0.06103515625,-0.3662109375,0.4534912109375,-0.7943115234375,0.39794921875,-282.0,150.0,-149.0,101713.0,-3.2290000915527344,0,0
2.669177770614624,0.358734130859375,-0.450103759765625,0.31201171875,-0.755859375,-0.06103515625,-0.06103515625,-0.244140625,0.4552001953125,-0.7923583984375,0.3974609375,-282.0,150.0,-149.0,101713.0,-3.2290000915527344,0,0
2.669177770614624,0.358734130859375,-0.450103759765625,0.31201171875,-0.755859375,-0.06103515625,-0.06103515625,-0.244140625,0.4552001953125,-0.7923583984375,0.3974609375,-282.0,150.0,-149.0,101713.0,-3.2290000915527344,0,0
2.669177770614624,0.358734130859375,-0.4500732421875,0.31201171875,-0.755859375,0.18310546875,-0.1220703125,-0.06103515625,0.4561767578125,-0.7926025390625,0.39892578125,-282.0,150.0,-149.0,101713.0,-3.2290000915527344,0,0
2.7346079349517822,0.358734130859375,-0.4500732421875,0.31201171875,-0.755859375,0.0,-0.244140625,0.0,0.455810546875,-0.793212890625,0.39892578125,-282.0,150.0,-149.0,101713.0,-3.2290000915527344,0,0
2.7346079349517822,0.358734130859375,-0.450103759765625,0.31201171875,-0.755859375,0.244140625,-0.06103515625,0.06103515625,0.4561767578125,-0.794921875,0.3995361328125,-282.0,150.0,-149.0,101713.0,-3.2290000915527344,0,0
2.7346079349517822,0.358734130859375,-0.450103759765625,0.31201171875,-0.755859375,-0.06103515625,-0.1220703125,0.06103515625,0.455322265625,-0.7938232421875,0.3983154296875,-282.0,150.0,-149.0,101713.0,-3.2290000915527344,0,0
2.7346079349517822,0.358734130859375,-0.450103759765625,0.312042236328125,-0.755859375,0.0,-0.18310546875,-0.244140625,0.455322265625,-0.7939453125,0.3994140625,-282.0,150.0,-149.0,101713.0,-3.2290000915527344,0,0
2.7346079349517822,0.358734130859375,-0.450103759765625,0.312042236328125,-0.755859375,0.1220703125,0.1220703125,-0.1220703125,0.455322265625,-0.7950439453125,0.3983154296875,-282.0,150.0,-149.0,101713.0,-3.2290000915527344,0,0
2.7346079349517822,0.358734130859375,-0.4500732421875,0.312042236328125,-0.755859375,0.06103515625,-0.18310546875,-0.18310546875,0.453125,-0.7930908203125,0.4005126953125,-282.0,150.0,-149.0,101713.0,-3.2290000915527344,0,0
2.735673189163208,0.358734130859375,-0.4500732421875,0.312042236328125,-0.755859375,0.0,-0.06103515625,-0.06103515625,0.453369140625,-0.7919921875,0.39892578125,-282.0,150.0,-149.0,101713.0,-3.2290000915527344,0,0
2.735673189163208,0.358734130859375,-0.4500732421875,0.312042236328125,-0.755859375,0.0,-0.06103515625,-0.06103515625,0.453369140625,-0.7919921875,0.39892578125,-282.0,150.0,-149.0,101713.0,-3.2290000915527344,0,0
2.735673189163208,0.358734130859375,-0.4500732421875,0.312042236328125,-0.755859375,0.1220703125,-0.3662109375,-0.18310546875,0.4549560546875,-0.7921142578125,0.3988037109375,-282.0,150.0,-149.0,101713.0,-3.2290000915527344,0,0
2.735673189163208,0.358734130859375,-0.4500732421875,0.312042236328125,-0.755859375,0.0,-0.18310546875,-0.06103515625,0.4556884765625,-0.7900390625,0.4010009765625,-282.0,150.0,-149.0,101713.0,-3.2290000915527344,0,0
2.735673189163208,0.358734130859375,-0.4500732421875,0.312042236328125,-0.755859375,0.0,-0.18310546875,-0.06103515625,0.4556884765625,-0.7900390625,0.4010009765625,-282.0,150.0,-149.0,101713.0,-3.2260000705718994,0,0
2.735673189163208,0.358734130859375,-0.4500732421875,0.312042236328125,-0.755859375,0.30517578125,0.06103515625,-0.3662109375,0.4539794921875,-0.7911376953125,0.3978271484375,-282.0,150.0,-149.0,101713.0,-3.2260000705718994,0,0
2.735673189163208,0.358734130859375,-0.4500732421875,0.312042236328125,-0.755859375,0.1220703125,-0.244140625,0.06103515625,0.4552001953125,-0.7928466796875,0.3983154296875,-282.0,150.0,-149.0,101713.0,-3.2260000705718994,0,0
2.802274465560913,0.358734130859375,-0.4500732421875,0.312042236328125,-0.755859375,-0.244140625,-0.244140625,0.06103515625,0.4542236328125,-0.792236328125,0.39697265625,-282.0,150.0,-149.0,101713.0,-3.2260000705718994,0,0
2.802274465560913,0.358734130859375,-0.450103759765625,0.312042236328125,-0.755859375,0.1220703125,-0.30517578125,-0.1220703125,0.456298828125,-0.7945556640625,0.39794921875,-282.0,150.0,-149.0,101713.0,-3.2260000705718994,0,0
2.802274465560913,0.358734130859375,-0.450103759765625,0.312042236328125,-0.755859375,0.1220703125,-0.30517578125,-0.1220703125,0.456298828125,-0.7945556640625,0.39794921875,-282.0,150.0,-149.0,101713.0,-3.2260000705718994,0,0
2.802274465560913,0.358734130859375,-0.450103759765625,0.312042236328125,-0.755859375,-0.06103515625,0.0,-0.18310546875,0.455322265625,-0.79345703125,0.4005126953125,-282.0,150.0,-149.0,101713.0,-3.2260000705718994,0,0
2.802274465560913,0.358734130859375,-0.450103759765625,0.312042236328125,-0.755859375,-0.18310546875,-0.1220703125,-0.244140625,0.4544677734375,-0.793212890625,0.3980712890625,-282.0,150.0,-149.0,101713.0,-3.2260000705718994,0,0
2.802274465560913,0.358734130859375,-0.4500732421875,0.312042236328125,-0.755859375,0.244140625,0.0,-0.06103515625,0.457275390625,-0.79345703125,0.398681640625,-282.0,150.0,-149.0,101713.0,-3.2260000705718994,0,0
2.802274465560913,0.358734130859375,-0.4500732421875,0.312042236328125,-0.755859375,0.06103515625,0.06103515625,0.06103515625,0.4530029296875,-0.7940673828125,0.3994140625,-282.0,150.0,-149.0,101713.0,-3.2260000705718994,0,0
2.802274465560913,0.358734130859375,-0.4500732421875,0.312042236328125,-0.755828857421875,0.1220703125,0.244140625,-0.06103515625,0.4571533203125,-0.7926025390625,0.39990234375,-282.0,150.0,-149.0,101713.0,-3.2260000705718994,0,0
2.802274465560913,0.358734130859375,-0.450103759765625,0.312042236328125,-0.755828857421875,0.244140625,-0.42724609375,-0.18310546875,0.45556640625,-0.7933349609375,0.3974609375,-282.0,150.0,-149.0,101713.0,-3.2260000705718994,0,0
2.802274465560913,0.358734130859375,-0.450103759765625,0.312042236328125,-0.755828857421875,-0.06103515625,-0.18310546875,-0.18310546875,0.4571533203125,-0.7938232421875,0.3975830078125,-282.0,150.0,-149.0,101713.0,-3.2260000705718994,0,0
2.803306818008423,0.358734130859375,-0.450103759765625,0.312042236328125,-0.755828857421875,-0.18310546875,-0.18310546875,0.0,0.45556640625,-0.792724609375,0.3990478515625,-282.0,150.0,-149.0,101713.0,-3.2260000705718994,0,0
2.8633012771606445,0.358734130859375,-0.450103759765625,0.312042236328125,-0.755828857421875,-0.1220703125,-0.1220703125,0.1220703125,0.45703125,-0.793212890625,0.3970947265625,-282.0,150.0,-149.0,101713.0,-3.2260000705718994,0,0
2.8633012771606445,0.358734130859375,-0.450103759765625,0.312042236328125,-0.755828857421875,0.18310546875,-0.30517578125,-0.18310546875,0.4556884765625,-0.792724609375,0.39892578125,-282.0,150.0,-149.0,101713.0,-3.2260000705718994,0,0
2.8633012771606445,0.358734130859375,-0.450103759765625,0.312042236328125,-0.755828857421875,-0.06103515625,-0.18310546875,-0.1220703125,0.4534912109375,-0.7928466796875,0.3975830078125,-282.0,150.0,-149.0,101713.0,-3.2260000705718994,0,0
2.8633012771606445,0.358734130859375,-0.450103759765625,0.312042236328125,-0.755828857421875,-0.18310546875,-0.1220703125,-0.06103515625,0.45556640625,-0.792236328125,0.399169921875,-283.0,151.0,-151.0,101713.0,-3.2260000705718994,0,0
2.8633012771606445,0.35894775390625,-0.4501953125,0.311920166015625,-0.7557373046875,0.06103515625,-0.3662109375,0.0,0.4544677734375,-0.792236328125,0.39794921875,-283.0,151.0,-151.0,101713.0,-3.2260000705718994,0,0
2.8633012771606445,0.35894775390625,-0.4501953125,0.311920166015625,-0.7557373046875,-0.1220703125,-0.18310546875,-0.18310546875,0.454833984375,-0.79150390625,0.3983154296875,-283.0,151.0,-151.0,101713.0,-3.2260000705718994,0,0
2.8633012771606445,0.35894775390625,-0.4501953125,0.311920166015625,-0.7557373046875,0.0,0.1220703125,-0.06103515625,0.4556884765625,-0.7928466796875,0.3990478515625,-283.0,151.0,-151.0,101713.0,-3.2260000705718994,0,0
2.864302396774292,0.35894775390625,-0.4501953125,0.311920166015625,-0.7557373046875,-0.1220703125,-0.1220703125,-0.06103515625,0.45654296875,-0.791748046875,0.3980712890625,-283.0,151.0,-151.0,101713.0,-3.2260000705718994,0,0
2.864302396774292,0.35894775390625,-0.4501953125,0.311920166015625,-0.7557373046875,-0.1220703125,-0.1220703125,-0.06103515625,0.45654296875,-0.791748046875,0.3980712890625,-283.0,151.0,-151.0,101713.0,-3.2260000705718994,0,0
2.864302396774292,0.35894775390625,-0.4501953125,0.311920166015625,-0.7557373046875,0.06103515625,-0.18310546875,-0.1220703125,0.4541015625,-0.7916259765625,0.3984375,-283.0,151.0,-151.0,101713.0,-3.2260000705718994,0,0
2.864302396774292,0.35894775390625,-0.4501953125,0.311920166015625,-0.7557373046875,-0.244140625,-0.18310546875,0.1220703125,0.453857421875,-0.7923583984375,0.3990478515625,-283.0,151.0,-151.0,101713.0,-3.2260000705718994,0,0
2.9273834228515625,0.35894775390625,-0.4501953125,0.3118896484375,-0.7557373046875,-0.06103515625,-0.18310546875,-0.30517578125,0.4564208984375,-0.7921142578125,0.3992919921875,-283.0,151.0,-151.0,101713.0,-3.2260000705718994,0,0
2.9273834228515625,0.35894775390625,-0.4501953125,0.3118896484375,-0.7557373046875,-0.1220703125,-0.06103515625,-0.06103515625,0.4552001953125,-0.789306640625,0.402099609375,-283.0,151.0,-151.0,101713.0,-3.2260000705718994,0,0
2.928379774093628,0.35894775390625,-0.4501953125,0.3118896484375,-0.755767822265625,-0.1220703125,-0.06103515625,-0.06103515625,0.4552001953125,-0.789306640625,0.402099609375,-283.0,151.0,-151.0,101713.0,-3.2280001640319824,0,0
