Time stamp(sec),adc1,adc2,roll_angular_rate,pitch_angular_rate,yaw_angular_rate,acc_X,acc_Y,acc_Z,mag_X,mag_Y,mag_Z,pressure,altitude
0.040324300003703684,0.3717041015625,-0.451171875,0.311614990234375,-0.74908447265625,0.0,0.244140625,-0.30517578125,0.44482421875,-0.8035888671875,0.3984375,-294.0,150.0,-151.0,101698.0,-3.1020002365112305,0,0
0.040386400010902435,0.3717041015625,-0.451171875,0.311614990234375,-0.74908447265625,0.1220703125,0.06103515625,-0.06103515625,0.4456787109375,-0.8017578125,0.398193359375,-294.0,150.0,-151.0,101698.0,-3.1020002365112305,0,0
0.040444700003718026,0.3717041015625,-0.451171875,0.311614990234375,-0.74908447265625,0.1220703125,0.06103515625,-0.06103515625,0.4456787109375,-0.8017578125,0.398193359375,-294.0,150.0,-151.0,101698.0,-3.1020002365112305,0,0
0.040502500007278286,0.3717041015625,-0.451202392578125,0.311614990234375,-0.74908447265625,-0.244140625,-0.1220703125,-0.18310546875,0.4449462890625,-0.8028564453125,0.396240234375,-294.0,150.0,-151.0,101698.0,-3.1020002365112305,0,0
0.04070760001195595,0.3717041015625,-0.451171875,0.311614990234375,-0.74908447265625,0.18310546875,0.06103515625,-0.06103515625,0.442138671875,-0.8026123046875,0.399169921875,-294.0,150.0,-151.0,101698.0,-3.1020002365112305,0,0
0.0407753000035882,0.3717041015625,-0.451202392578125,0.311614990234375,-0.749053955078125,0.06103515625,-0.1220703125,0.0,0.4449462890625,-0.8026123046875,0.3980712890625,-295.0,150.0,-149.0,101698.0,-3.1020002365112305,0,0
0.04083720000926405,0.3717041015625,-0.451202392578125,0.311614990234375,-0.749053955078125,0.0,-0.1220703125,-0.06103515625,0.44580078125,-0.8028564453125,0.398681640625,-295.0,150.0,-149.0,101698.0,-3.1020002365112305,0,0
0.04089600000588689,0.371673583984375,-0.451202392578125,0.311614990234375,-0.749053955078125,0.18310546875,-0.244140625,-0.30517578125,0.4466552734375,-0.8017578125,0.3978271484375,-295.0,150.0,-149.0,101698.0,-3.1020002365112305,0,0
0.04095450000022538,0.3717041015625,-0.451202392578125,0.311614990234375,-0.74908447265625,0.18310546875,-0.18310546875,-0.06103515625,0.443115234375,-0.802490234375,0.3985595703125,-295.0,150.0,-149.0,101698.0,-3.1020002365112305,0,0
0.04101210000226274,0.371673583984375,-0.451202392578125,0.311614990234375,-0.74908447265625,0.3662109375,0.0,-0.18310546875,0.4447021484375,-0.80126953125,0.3988037109375,-295.0,150.0,-149.0,101698.0,-3.1020002365112305,0,0
0.04106560000218451,0.3717041015625,-0.451202392578125,0.311614990234375,-0.74908447265625,0.0,0.0,0.1220703125,0.4454345703125,-0.8046875,0.4002685546875,-295.0,150.0,-149.0,101698.0,-3.1020002365112305,0,0
0.10173260000010487,0.3717041015625,-0.451202392578125,0.311614990234375,-0.74908447265625,-0.18310546875,-0.1220703125,0.1220703125,0.4453125,-0.802978515625,0.39990234375,-295.0,150.0,-149.0,101698.0,-3.1020002365112305,0,0
0.1017959000018891,0.3717041015625,-0.451202392578125,0.311614990234375,-0.74908447265625,-0.18310546875,-0.18310546875,-0.1220703125,0.444580078125,-0.802978515625,0.39990234375,-295.0,150.0,-149.0,101698.0,-3.1020002365112305,0,0
0.10185120000096504,0.371673583984375,-0.451202392578125,0.311614990234375,-0.74908447265625,0.18310546875,-0.1220703125,0.1220703125,0.4471435546875,-0.803955078125,0.39697265625,-295.0,150.0,-149.0,101698.0,-3.1020002365112305,0,0
0.10190710000460967,0.371673583984375,-0.451202392578125,0.311614990234375,-0.749053955078125,0.18310546875,0.1220703125,-0.244140625,0.4456787109375,-0.803466796875,0.398681640625,-295.0,150.0,-149.0,101698.0,-3.1020002365112305,0,0
0.10196090000681579,0.371673583984375,-0.451202392578125,0.311614990234375,-0.74908447265625,0.18310546875,-0.18310546875,-0.30517578125,0.444580078125,-0.80224609375,0.401611328125,-295.0,150.0,-149.0,101698.0,-3.1020002365112305,0,0
0.10298410001269076,0.371673583984375,-0.451202392578125,0.311614990234375,-0.74908447265625,0.3662109375,0.0,-0.1220703125,0.445556640625,-0.80078125,0.400390625,-295.0,150.0,-149.0,101698.0,-3.1020002365112305,0,0
0.10304460000770632,0.371673583984375,-0.451202392578125,0.311614990234375,-0.74908447265625,0.06103515625,0.06103515625,-0.1220703125,0.443603515625,-0.803955078125,0.4013671875,-295.0,150.0,-149.0,101698.0,-3.1020002365112305,0,0
0.10310010000830516,0.3717041015625,-0.451171875,0.311614990234375,-0.74908447265625,0.0,-0.244140625,0.1220703125,0.4443359375,-0.8040771484375,0.3994140625,-295.0,150.0,-149.0,101698.0,-3.1020002365112305,0,0
0.10315350000746548,0.3717041015625,-0.451171875,0.311614990234375,-0.74908447265625,0.0,-0.244140625,0.1220703125,0.4443359375,-0.8040771484375,0.3994140625,-295.0,150.0,-149.0,101698.0,-3.1020002365112305,0,0
0.10320789999968838,0.3717041015625,-0.451171875,0.311614990234375,-0.74908447265625,0.06103515625,0.18310546875,0.06103515625,0.4449462890625,-0.803466796875,0.400146484375,-295.0,150.0,-149.0,101698.0,-3.1020002365112305,0,0
0.10326139999961015,0.3717041015625,-0.451171875,0.311614990234375,-0.74908447265625,0.1220703125,0.0,0.18310546875,0.4437255859375,-0.8013916015625,0.400146484375,-295.0,150.0,-149.0,101698.0,-3.1020002365112305,0,0
0.16611820000980515,0.371673583984375,-0.451171875,0.311614990234375,-0.74908447265625,0.06103515625,0.06103515625,-0.18310546875,0.4454345703125,-0.8026123046875,0.399658203125,-295.0,150.0,-149.0,101698.0,-3.1020002365112305,0,0
0.16619030000583734,0.37158203125,-0.451141357421875,0.311676025390625,-0.7491455078125,0.06103515625,0.06103515625,-0.18310546875,0.4454345703125,-0.8026123046875,0.399658203125,-293.0,150.0,-150.0,101698.0,-3.1020002365112305,0,0
0.16624930000398308,0.37158203125,-0.451141357421875,0.311676025390625,-0.7491455078125,0.0,-0.1220703125,0.0,0.445068359375,-0.80322265625,0.40087890625,-293.0,150.0,-150.0,101698.0,-3.1020002365112305,0,0
0.16630580001219641,0.37158203125,-0.451141357421875,0.311676025390625,-0.7491455078125,-0.244140625,-0.06103515625,0.0,0.441650390625,-0.8023681640625,0.3992919921875,-293.0,150.0,-150.0,101698.0,-3.1020002365112305,0,0
0.16635970000061207,0.37158203125,-0.451141357421875,0.311676025390625,-0.7491455078125,-0.06103515625,-0.30517578125,-0.244140625,0.4447021484375,-0.802490234375,0.3988037109375,-293.0,150.0,-150.0,101698.0,-3.1020002365112305,0,0
0.16641320000053383,0.37158203125,-0.45111083984375,0.311676025390625,-0.7491455078125,0.06103515625,-0.18310546875,0.06103515625,0.444091796875,-0.8017578125,0.4014892578125,-293.0,150.0,-150.0,101698.0,-3.1020002365112305,0,0
0.16827660000126343,0.37158203125,-0.45111083984375,0.311676025390625,-0.7491455078125,0.06103515625,-0.18310546875,0.06103515625,0.444091796875,-0.8017578125,0.4014892578125,-293.0,150.0,-150.0,101698.0,-3.1020002365112305,0,0
0.16834050000761636,0.371612548828125,-0.451141357421875,0.311676025390625,-0.7491455078125,0.0,-0.06103515625,-0.1220703125,0.443603515625,-0.8033447265625,0.3975830078125,-293.0,150.0,-150.0,101698.0,-3.1020002365112305,0,0
0.16839630001049954,0.371612548828125,-0.45111083984375,0.311676025390625,-0.7491455078125,0.3662109375,0.0,0.0,0.4442138671875,-0.803466796875,0.3975830078125,-293.0,150.0,-150.0,101698.0,-3.1020002365112305,0,0
0.1684498000104213,0.371612548828125,-0.45111083984375,0.311676025390625,-0.7491455078125,0.1220703125,-0.244140625,-0.1220703125,0.4420166015625,-0.80126953125,0.3995361328125,-293.0,150.0,-150.0,101698.0,-3.1020002365112305,0,0
0.16850200000044424,0.371612548828125,-0.45111083984375,0.311676025390625,-0.7491455078125,-0.30517578125,0.0,-0.18310546875,0.4427490234375,-0.801513671875,0.3995361328125,-293.0,150.0,-150.0,101698.0,-3.1020002365112305,0,0
0.1685567000095034,0.371612548828125,-0.45111083984375,0.311676025390625,-0.7491455078125,0.18310546875,-0.244140625,0.0,0.4444580078125,-0.8023681640625,0.3997802734375,-293.0,150.0,-150.0,101698.0,-3.1020002365112305,0,0
0.16860980000637937,0.371612548828125,-0.45111083984375,0.311676025390625,-0.7491455078125,0.3662109375,0.1220703125,-0.06103515625,0.4410400390625,-0.80224609375,0.39892578125,-293.0,150.0,-150.0,101698.0,-3.1020002365112305,0,0
0.23205170000437647,0.371612548828125,-0.45111083984375,0.311676025390625,-0.7491455078125,-0.1220703125,-0.06103515625,-0.1220703125,0.4427490234375,-0.802734375,0.3974609375,-293.0,150.0,-150.0,101698.0,-3.1020002365112305,0,0
0.23211360001005232,0.371612548828125,-0.45111083984375,0.311676025390625,-0.7491455078125,-0.1220703125,-0.06103515625,-0.1220703125,0.4427490234375,-0.802734375,0.3974609375,-293.0,150.0,-150.0,101698.0,-3.1020002365112305,0,0
0.2321695999999065,0.371612548828125,-0.45111083984375,0.311676025390625,-0.7491455078125,0.18310546875,0.18310546875,-0.1220703125,0.44287109375,-0.80029296875,0.39892578125,-293.0,150.0,-150.0,101698.0,-3.1020002365112305,0,0
0.23222350000287406,0.371612548828125,-0.451080322265625,0.311676025390625,-0.7491455078125,0.244140625,-0.1220703125,-0.06103515625,0.4442138671875,-0.8004150390625,0.3975830078125,-293.0,150.0,-150.0,101698.0,-3.1020002365112305,0,0
0.23227760000736453,0.371612548828125,-0.451080322265625,0.3116455078125,-0.7491455078125,0.48828125,0.06103515625,-0.06103515625,0.4456787109375,-0.801513671875,0.401123046875,-293.0,150.0,-150.0,101698.0,-3.1020002365112305,0,0
0.23268920001282822,0.371612548828125,-0.451080322265625,0.3116455078125,-0.7491455078125,0.06103515625,0.0,0.06103515625,0.446044921875,-0.80029296875,0.4019775390625,-293.0,151.0,-150.0,101698.0,-3.1020002365112305,0,0
0.23274980000860523,0.371612548828125,-0.45111083984375,0.3116455078125,-0.7491455078125,0.06103515625,-0.244140625,0.1220703125,0.4451904296875,-0.802490234375,0.397216796875,-293.0,151.0,-150.0,101698.0,-3.1020002365112305,0,0
0.23280630000226665,0.371612548828125,-0.451080322265625,0.311676025390625,-0.7491455078125,0.06103515625,0.18310546875,0.1220703125,0.441650390625,-0.801025390625,0.396728515625,-293.0,151.0,-150.0,101698.0,-3.1020002365112305,0,0
0.23286050000751857,0.371612548828125,-0.451080322265625,0.311676025390625,-0.7491455078125,0.0,-0.06103515625,0.0,0.44189453125,-0.8017578125,0.3985595703125,-293.0,151.0,-150.0,101698.0,-3.1020002365112305,0,0
0.23291479999898002,0.371612548828125,-0.451080322265625,0.311676025390625,-0.7491455078125,0.30517578125,-0.244140625,-0.30517578125,0.4447021484375,-0.8017578125,0.3970947265625,-293.0,151.0,-150.0,101698.0,-3.1020002365112305,0,0
0.23296910000499338,0.371612548828125,-0.451080322265625,0.311676025390625,-0.7491455078125,0.30517578125,-0.244140625,-0.30517578125,0.4447021484375,-0.8017578125,0.3970947265625,-293.0,151.0,-150.0,101698.0,-3.1020002365112305,0,0
0.2955657000129577,0.371612548828125,-0.45111083984375,0.3116455078125,-0.7491455078125,-0.244140625,0.06103515625,0.0,0.4473876953125,-0.8021240234375,0.3983154296875,-293.0,151.0,-150.0,101698.0,-3.1020002365112305,0,0
0.2956269999995129,0.371612548828125,-0.45111083984375,0.3116455078125,-0.7491455078125,0.1220703125,-0.06103515625,0.0,0.4461669921875,-0.803466796875,0.3990478515625,-293.0,151.0,-150.0,101698.0,-3.1020002365112305,0,0
0.2956817000085721,0.371612548828125,-0.45111083984375,0.3116455078125,-0.7491455078125,0.244140625,-0.1220703125,0.06103515625,0.444091796875,-0.802001953125,0.3997802734375,-293.0,151.0,-150.0,101698.0,-3.1020002365112305,0,0
0.29573480000544805,0.371612548828125,-0.45111083984375,0.3116455078125,-0.7491455078125,-0.1220703125,0.0,-0.18310546875,0.443115234375,-0.8026123046875,0.4007568359375,-293.0,151.0,-150.0,101698.0,-3.1030001640319824,0,0
0.29578920001222286,0.371612548828125,-0.45111083984375,0.3116455078125,-0.7491455078125,0.30517578125,0.1220703125,0.06103515625,0.4473876953125,-0.806396484375,0.39697265625,-293.0,151.0,-150.0,101698.0,-3.1030001640319824,0,0
0.29611610001302324,0.371612548828125,-0.45111083984375,0.3116455078125,-0.7491455078125,-0.18310546875,-0.1220703125,-0.06103515625,0.44482421875,-0.802978515625,0.3988037109375,-293.0,151.0,-150.0,101698.0,-3.1030001640319824,0,0
0.29617280000820756,0.371612548828125,-0.45111083984375,0.3116455078125,-0.7491455078125,-0.18310546875,0.0,-0.1220703125,0.4447021484375,-0.802001953125,0.3983154296875,-293.0,151.0,-150.0,101698.0,-3.1030001640319824,0,0
0.2962265000096522,0.371612548828125,-0.45111083984375,0.3116455078125,-0.7491455078125,-0.18310546875,0.0,-0.1220703125,0.4447021484375,-0.802001953125,0.3983154296875,-293.0,151.0,-150.0,101698.0,-3.1030001640319824,0,0
0.2962804000126198,0.37158203125,-0.45111083984375,0.3116455078125,-0.7491455078125,0.06103515625,-0.18310546875,-0.18310546875,0.4439697265625,-0.801513671875,0.39794921875,-293.0,151.0,-150.0,101698.0,-3.1030001640319824,0,0
0.2963326000026427,0.37158203125,-0.451141357421875,0.3116455078125,-0.7491455078125,0.18310546875,-0.18310546875,-0.42724609375,0.4481201171875,-0.802978515625,0.3997802734375,-293.0,151.0,-150.0,101698.0,-3.1030001640319824,0,0
0.29638680000789464,0.37158203125,-0.451141357421875,0.3116455078125,-0.7491455078125,0.244140625,0.1220703125,0.1220703125,0.4451904296875,-0.802978515625,0.39892578125,-293.0,151.0,-150.0,101698.0,-3.1030001640319824,0,0
0.3672989000042435,0.37158203125,-0.451141357421875,0.3116455078125,-0.7491455078125,-0.06103515625,-0.06103515625,0.0,0.4443359375,-0.8048095703125,0.3980712890625,-293.0,151.0,-150.0,101698.0,-3.1030001640319824,0,0
0.36736150000069756,0.37158203125,-0.451141357421875,0.3116455078125,-0.7491455078125,0.0,0.06103515625,0.06103515625,0.4434814453125,-0.803955078125,0.39990234375,-293.0,151.0,-150.0,101698.0,-3.1030001640319824,0,0
0.3674172000028193,0.37158203125,-0.451141357421875,0.3116455078125,-0.7491455078125,0.0,0.06103515625,0.06103515625,0.4434814453125,-0.803955078125,0.39990234375,-294.0,149.0,-149.0,101698.0,-3.1030001640319824,0,0
0.3674710000050254,0.3717041015625,-0.451171875,0.31158447265625,-0.74908447265625,0.244140625,0.06103515625,0.1220703125,0.4451904296875,-0.8040771484375,0.399169921875,-294.0,149.0,-149.0,101698.0,-3.1030001640319824,0,0
0.3675262000033399,0.3717041015625,-0.451171875,0.31158447265625,-0.74908447265625,0.0,0.18310546875,-0.06103515625,0.444091796875,-0.80322265625,0.39794921875,-294.0,149.0,-149.0,101698.0,-3.1030001640319824,0,0
0.36757860000943765,0.3717041015625,-0.451171875,0.31158447265625,-0.74908447265625,0.0,0.18310546875,-0.06103515625,0.444091796875,-0.80322265625,0.39794921875,-294.0,149.0,-149.0,101698.0,-3.1030001640319824,0,0
0.3676333000039449,0.3717041015625,-0.451171875,0.31158447265625,-0.74908447265625,0.0,-0.1220703125,-0.54931640625,0.444091796875,-0.7996826171875,0.3975830078125,-294.0,149.0,-149.0,101698.0,-3.1030001640319824,0,0
0.36770710001292173,0.371673583984375,-0.451171875,0.31158447265625,-0.74908447265625,-0.06103515625,-0.06103515625,-0.3662109375,0.4449462890625,-0.80029296875,0.3974609375,-294.0,149.0,-149.0,101698.0,-3.1030001640319824,0,0
0.36775990000751335,0.371673583984375,-0.451171875,0.31158447265625,-0.749114990234375,0.06103515625,0.1220703125,-0.1220703125,0.447021484375,-0.80078125,0.39892578125,-294.0,149.0,-149.0,101698.0,-3.1030001640319824,0,0
0.36781410001276527,0.371673583984375,-0.451171875,0.31158447265625,-0.74908447265625,0.06103515625,0.06103515625,0.1220703125,0.4486083984375,-0.8043212890625,0.4010009765625,-294.0,149.0,-149.0,101698.0,-3.1030001640319824,0,0
0.3678665000043111,0.371673583984375,-0.451171875,0.31158447265625,-0.74908447265625,-0.1220703125,-0.06103515625,0.1220703125,0.4415283203125,-0.8023681640625,0.397216796875,-294.0,149.0,-149.0,101698.0,-3.1030001640319824,0,0
0.3679215000011027,0.371673583984375,-0.451171875,0.31158447265625,-0.74908447265625,0.06103515625,-0.1220703125,0.06103515625,0.444091796875,-0.8046875,0.39990234375,-294.0,149.0,-149.0,101698.0,-3.1030001640319824,0,0
0.3679722000088077,0.371673583984375,-0.451171875,0.31158447265625,-0.74908447265625,-0.06103515625,-0.1220703125,-0.06103515625,0.4432373046875,-0.8017578125,0.3988037109375,-294.0,149.0,-149.0,101698.0,-3.1030001640319824,0,0
0.4233838000072865,0.371673583984375,-0.451171875,0.31158447265625,-0.74908447265625,0.06103515625,-0.06103515625,-0.06103515625,0.444091796875,-0.800537109375,0.3961181640625,-294.0,149.0,-149.0,101698.0,-3.1030001640319824,0,0
0.42344270000467077,0.371673583984375,-0.451171875,0.31158447265625,-0.749114990234375,0.18310546875,-0.06103515625,-0.18310546875,0.44482421875,-0.80029296875,0.3992919921875,-294.0,149.0,-149.0,101698.0,-3.1030001640319824,0,0
0.4234980000037467,0.371673583984375,-0.451171875,0.31158447265625,-0.749114990234375,-0.18310546875,-0.18310546875,-0.18310546875,0.4461669921875,-0.8009033203125,0.3994140625,-294.0,149.0,-149.0,101698.0,-3.1030001640319824,0,0
0.4235508999990998,0.371673583984375,-0.451171875,0.31158447265625,-0.749114990234375,0.18310546875,0.06103515625,0.244140625,0.445068359375,-0.80419921875,0.3994140625,-294.0,149.0,-149.0,101698.0,-3.1030001640319824,0,0
0.42360210001061205,0.371673583984375,-0.451171875,0.31158447265625,-0.749114990234375,0.0,0.0,0.244140625,0.444580078125,-0.8035888671875,0.3995361328125,-294.0,149.0,-149.0,101698.0,-3.1030001640319824,0,0
0.42463100000168197,0.371673583984375,-0.451171875,0.31158447265625,-0.749114990234375,0.18310546875,0.244140625,-0.06103515625,0.445068359375,-0.80224609375,0.400146484375,-294.0,149.0,-149.0,101698.0,-3.1030001640319824,0,0
0.42468720000761095,0.371673583984375,-0.451171875,0.311553955078125,-0.749114990234375,-0.1220703125,0.0,0.30517578125,0.4456787109375,-0.802490234375,0.39990234375,-294.0,149.0,-149.0,101698.0,-3.1030001640319824,0,0
0.4247409000090556,0.371673583984375,-0.451171875,0.31158447265625,-0.749114990234375,-0.18310546875,0.06103515625,0.06103515625,0.4427490234375,-0.8033447265625,0.3994140625,-294.0,149.0,-149.0,101698.0,-3.1030001640319824,0,0
0.42479430000821594,0.371673583984375,-0.451171875,0.311553955078125,-0.749114990234375,0.0,-0.06103515625,-0.18310546875,0.447021484375,-0.800048828125,0.3990478515625,-294.0,151.0,-149.0,101698.0,-3.1030001640319824,0,0
0.42484750000585336,0.371673583984375,-0.451171875,0.311553955078125,-0.749114990234375,0.0,-0.06103515625,-0.18310546875,0.447021484375,-0.800048828125,0.3990478515625,-294.0,151.0,-149.0,101698.0,-3.1030001640319824,0,0
0.4248997000104282,0.37188720703125,-0.451263427734375,0.311431884765625,-0.7490234375,0.06103515625,-0.1220703125,-0.1220703125,0.44775390625,-0.80224609375,0.399658203125,-294.0,151.0,-149.0,101698.0,-3.1030001640319824,0,0
0.48757640000258107,0.37188720703125,-0.451263427734375,0.311431884765625,-0.7490234375,0.1220703125,-0.06103515625,0.0,0.44482421875,-0.8037109375,0.3997802734375,-294.0,151.0,-149.0,101698.0,-3.1030001640319824,0,0
0.4876399000058882,0.37188720703125,-0.451263427734375,0.311431884765625,-0.7490234375,0.06103515625,-0.06103515625,-0.18310546875,0.4434814453125,-0.8028564453125,0.3988037109375,-294.0,151.0,-149.0,101698.0,-3.1030001640319824,0,0
0.48769930000707973,0.37188720703125,-0.451263427734375,0.311431884765625,-0.7490234375,0.1220703125,-0.3662109375,-0.30517578125,0.4443359375,-0.8009033203125,0.398681640625,-294.0,151.0,-149.0,101698.0,-3.1030001640319824,0,0
0.4877553000114858,0.37188720703125,-0.451263427734375,0.311431884765625,-0.7490234375,-0.244140625,-0.30517578125,-0.48828125,0.4434814453125,-0.803466796875,0.3975830078125,-294.0,151.0,-149.0,101698.0,-3.1030001640319824,0,0
0.48780960000294726,0.37188720703125,-0.451263427734375,0.311431884765625,-0.7490234375,-0.1220703125,-0.1220703125,-0.6103515625,0.444580078125,-0.8021240234375,0.3984375,-294.0,151.0,-149.0,101698.0,-3.1030001640319824,0,0
0.48801640000601765,0.37188720703125,-0.451263427734375,0.311431884765625,-0.7490234375,-0.1220703125,-0.1220703125,-0.6103515625,0.444580078125,-0.8021240234375,0.3984375,-294.0,151.0,-149.0,101698.0,-3.1030001640319824,0,0
0.48807020000822376,0.37188720703125,-0.451263427734375,0.311431884765625,-0.7490234375,0.1220703125,0.06103515625,0.0,0.446044921875,-0.8021240234375,0.3973388671875,-294.0,151.0,-149.0,101698.0,-3.1030001640319824,0,0
0.48816450001322664,0.37188720703125,-0.451263427734375,0.311431884765625,-0.7490234375,0.18310546875,0.1220703125,-0.18310546875,0.4461669921875,-0.8018798828125,0.3970947265625,-294.0,151.0,-149.0,101698.0,-3.1030001640319824,0,0
0.4882170000055339,0.37188720703125,-0.451263427734375,0.311431884765625,-0.7490234375,0.06103515625,0.06103515625,0.06103515625,0.4451904296875,-0.8021240234375,0.39794921875,-294.0,151.0,-149.0,101698.0,-3.1030001640319824,0,0
0.48827170000004116,0.37188720703125,-0.451263427734375,0.311431884765625,-0.748992919921875,-0.06103515625,-0.1220703125,0.18310546875,0.4429931640625,-0.804443359375,0.3975830078125,-294.0,151.0,-149.0,101698.0,-3.1030001640319824,0,0
0.4883231000130763,0.37188720703125,-0.451263427734375,0.311431884765625,-0.7490234375,-0.244140625,0.0,0.18310546875,0.4453125,-0.8004150390625,0.3994140625,-294.0,151.0,-149.0,101698.0,-3.1030001640319824,0,0
0.5520853000052739,0.37188720703125,-0.451263427734375,0.311431884765625,-0.7490234375,-0.06103515625,-0.06103515625,-0.06103515625,0.4429931640625,-0.8037109375,0.39892578125,-294.0,151.0,-149.0,101698.0,-3.1030001640319824,0,0
0.552150100003928,0.37188720703125,-0.451263427734375,0.311431884765625,-0.748992919921875,-0.1220703125,0.0,-0.06103515625,0.44384765625,-0.80224609375,0.3985595703125,-294.0,151.0,-149.0,101698.0,-3.1030001640319824,0,0
0.5522067999991123,0.37188720703125,-0.451263427734375,0.31146240234375,-0.748992919921875,-0.1220703125,-0.1220703125,-0.06103515625,0.4427490234375,-0.802734375,0.3974609375,-294.0,151.0,-149.0,101698.0,-3.1030001640319824,0,0
0.5522617000096943,0.37188720703125,-0.451263427734375,0.31146240234375,-0.748992919921875,0.244140625,-0.06103515625,0.0,0.4432373046875,-0.8009033203125,0.3974609375,-294.0,151.0,-149.0,101698.0,-3.1030001640319824,0,0
0.5523166000057245,0.37188720703125,-0.451263427734375,0.31146240234375,-0.748992919921875,0.244140625,-0.06103515625,0.0,0.4432373046875,-0.8009033203125,0.3974609375,-294.0,151.0,-149.0,101698.0,-3.1030001640319824,0,0
0.5523744000092847,0.37188720703125,-0.451263427734375,0.311431884765625,-0.7490234375,-0.1220703125,-0.06103515625,-0.1220703125,0.4449462890625,-0.7999267578125,0.3988037109375,-295.0,151.0,-150.0,101698.0,-3.1060001850128174,0,0
0.5524296000075992,0.371978759765625,-0.4512939453125,0.311370849609375,-0.74896240234375,-0.06103515625,0.06103515625,-0.244140625,0.444580078125,-0.8013916015625,0.3973388671875,-295.0,151.0,-150.0,101698.0,-3.1060001850128174,0,0
0.5524957000016002,0.371978759765625,-0.4512939453125,0.3114013671875,-0.74896240234375,0.18310546875,-0.18310546875,-0.1220703125,0.444580078125,-0.802001953125,0.3984375,-295.0,151.0,-150.0,101698.0,-3.1060001850128174,0,0
0.5525496000045678,0.371978759765625,-0.4512939453125,0.3114013671875,-0.74896240234375,-0.18310546875,0.06103515625,-0.244140625,0.44384765625,-0.8028564453125,0.398681640625,-295.0,151.0,-150.0,101698.0,-3.1060001850128174,0,0
0.5526026000006823,0.371978759765625,-0.4512939453125,0.3114013671875,-0.74896240234375,-0.06103515625,-0.18310546875,0.0,0.44189453125,-0.8017578125,0.3975830078125,-295.0,151.0,-150.0,101698.0,-3.1060001850128174,0,0
0.5526553000090644,0.371978759765625,-0.4512939453125,0.3114013671875,-0.74896240234375,0.0,0.06103515625,-0.18310546875,0.444580078125,-0.801025390625,0.3997802734375,-295.0,151.0,-150.0,101698.0,-3.1060001850128174,0,0
0.5527099000028102,0.371978759765625,-0.4512939453125,0.3114013671875,-0.74896240234375,0.0,-0.06103515625,-0.1220703125,0.44482421875,-0.8045654296875,0.39794921875,-295.0,151.0,-150.0,101698.0,-3.1060001850128174,0,0
0.5527625000104308,0.371978759765625,-0.4512939453125,0.3114013671875,-0.74896240234375,-0.06103515625,-0.1220703125,0.0,0.4449462890625,-0.80224609375,0.3983154296875,-295.0,151.0,-150.0,101698.0,-3.1060001850128174,0,0
0.6172130000049947,0.371978759765625,-0.4512939453125,0.3114013671875,-0.74896240234375,-0.06103515625,-0.06103515625,-0.06103515625,0.4449462890625,-0.8026123046875,0.3997802734375,-295.0,151.0,-150.0,101698.0,-3.1060001850128174,0,0
0.6172867000132101,0.371978759765625,-0.4512939453125,0.3114013671875,-0.74896240234375,0.06103515625,-0.244140625,0.1220703125,0.44384765625,-0.8026123046875,0.4007568359375,-295.0,151.0,-150.0,101698.0,-3.1060001850128174,0,0
0.6175041000096826,0.371978759765625,-0.4512939453125,0.3114013671875,-0.74896240234375,-0.06103515625,0.06103515625,-0.244140625,0.4461669921875,-0.8031005859375,0.399658203125,-295.0,151.0,-150.0,101698.0,-3.1060001850128174,0,0
0.6176596000004793,0.37200927734375,-0.4512939453125,0.3114013671875,-0.74896240234375,0.06103515625,-0.18310546875,-0.06103515625,0.442626953125,-0.80224609375,0.3988037109375,-295.0,151.0,-150.0,101698.0,-3.1060001850128174,0,0
0.6177731000061613,0.371978759765625,-0.4512939453125,0.3114013671875,-0.74896240234375,0.06103515625,-0.1220703125,-0.30517578125,0.4444580078125,-0.8035888671875,0.3997802734375,-295.0,151.0,-150.0,101698.0,-3.1060001850128174,0,0
0.617874200004735,0.371978759765625,-0.4512939453125,0.3114013671875,-0.74896240234375,-0.1220703125,0.06103515625,-0.30517578125,0.445068359375,-0.8018798828125,0.398681640625,-295.0,151.0,-150.0,101698.0,-3.1060001850128174,0,0
0.6179362000111723,0.371978759765625,-0.4512939453125,0.3114013671875,-0.74896240234375,-0.18310546875,-0.3662109375,0.0,0.4451904296875,-0.803466796875,0.39794921875,-295.0,151.0,-150.0,101698.0,-3.1060001850128174,0,0
0.6179947000055108,0.371978759765625,-0.4512939453125,0.3114013671875,-0.74896240234375,0.06103515625,-0.30517578125,-0.06103515625,0.4449462890625,-0.8016357421875,0.3985595703125,-295.0,151.0,-150.0,101698.0,-3.1060001850128174,0,0
0.6180975000024773,0.371978759765625,-0.4512939453125,0.3114013671875,-0.74896240234375,0.06103515625,-0.30517578125,-0.06103515625,0.4449462890625,-0.8016357421875,0.3985595703125,-295.0,151.0,-150.0,101698.0,-3.1060001850128174,0,0
0.6181873000023188,0.371978759765625,-0.4512939453125,0.3114013671875,-0.74896240234375,0.1220703125,0.06103515625,-0.06103515625,0.4429931640625,-0.8026123046875,0.3995361328125,-295.0,151.0,-150.0,101698.0,-3.1030001640319824,0,0
0.685026300008758,0.37200927734375,-0.4512939453125,0.311370849609375,-0.74896240234375,0.1220703125,0.06103515625,0.0,0.4456787109375,-0.80322265625,0.400634765625,-295.0,153.0,-151.0,101698.0,-3.1030001640319824,0,0
0.6850935000111349,0.371978759765625,-0.4512939453125,0.3114013671875,-0.74896240234375,-0.1220703125,-0.18310546875,0.0,0.4456787109375,-0.8050537109375,0.3994140625,-295.0,153.0,-151.0,101698.0,-3.1030001640319824,0,0
0.6851540000061505,0.371978759765625,-0.4512939453125,0.3114013671875,-0.74896240234375,0.06103515625,-0.06103515625,0.0,0.4461669921875,-0.80517578125,0.3980712890625,-295.0,153.0,-151.0,101698.0,-3.1030001640319824,0,0
0.6852150000049733,0.371978759765625,-0.4512939453125,0.3114013671875,-0.74896240234375,-0.06103515625,-0.244140625,0.1220703125,0.446533203125,-0.8046875,0.399169921875,-295.0,153.0,-151.0,101698.0,-3.1030001640319824,0,0
0.6852736000000732,0.371978759765625,-0.4512939453125,0.3114013671875,-0.74896240234375,-0.06103515625,-0.244140625,0.1220703125,0.446533203125,-0.8046875,0.399169921875,-295.0,153.0,-151.0,101698.0,-3.1030001640319824,0,0
0.6878359000111232,0.371978759765625,-0.4512939453125,0.3114013671875,-0.74896240234375,0.30517578125,-0.06103515625,-0.06103515625,0.4444580078125,-0.801025390625,0.39892578125,-295.0,153.0,-151.0,101698.0,-3.1030001640319824,0,0
0.6879109000001336,0.371978759765625,-0.4512939453125,0.3114013671875,-0.74896240234375,0.06103515625,0.0,-0.18310546875,0.4434814453125,-0.8013916015625,0.3968505859375,-295.0,153.0,-151.0,101698.0,-3.1030001640319824,0,0
0.6879731000080938,0.371978759765625,-0.4512939453125,0.3114013671875,-0.74896240234375,0.06103515625,-0.06103515625,-0.18310546875,0.4461669921875,-0.802001953125,0.3975830078125,-295.0,153.0,-151.0,101698.0,-3.1030001640319824,0,0
0.6880310000124155,0.371978759765625,-0.4512939453125,0.311370849609375,-0.74896240234375,0.06103515625,-0.30517578125,-0.18310546875,0.4464111328125,-0.8026123046875,0.39794921875,-295.0,153.0,-151.0,101698.0,-3.1030001640319824,0,0
0.6880901000113226,0.371978759765625,-0.4512939453125,0.311370849609375,-0.74896240234375,0.1220703125,-0.18310546875,0.06103515625,0.445556640625,-0.8001708984375,0.398681640625,-295.0,153.0,-151.0,101698.0,-3.1030001640319824,0,0
0.6881456000119215,0.371978759765625,-0.4512939453125,0.311370849609375,-0.74896240234375,0.06103515625,0.0,-0.06103515625,0.4447021484375,-0.800537109375,0.39990234375,-295.0,153.0,-151.0,101698.0,-3.1030001640319824,0,0
0.7380793000047561,0.371978759765625,-0.4512939453125,0.311370849609375,-0.74896240234375,-0.244140625,0.1220703125,-0.1220703125,0.44580078125,-0.80078125,0.3994140625,-295.0,153.0,-151.0,101698.0,-3.1030001640319824,0,0
0.7381497000023955,0.371978759765625,-0.4512939453125,0.311370849609375,-0.74896240234375,0.1220703125,-0.06103515625,-0.06103515625,0.44580078125,-0.802490234375,0.3975830078125,-295.0,153.0,-151.0,101698.0,-3.1030001640319824,0,0
0.7382092000043485,0.371978759765625,-0.4512939453125,0.311370849609375,-0.74896240234375,-0.244140625,-0.06103515625,-0.244140625,0.444580078125,-0.802490234375,0.3997802734375,-295.0,153.0,-151.0,101698.0,-3.1030001640319824,0,0
0.7382691000093473,0.371978759765625,-0.4512939453125,0.311370849609375,-0.74896240234375,-0.244140625,-0.06103515625,-0.244140625,0.444580078125,-0.802490234375,0.3997802734375,-295.0,153.0,-151.0,101698.0,-3.1030001640319824,0,0
0.73832720000064,0.371978759765625,-0.4512939453125,0.311370849609375,-0.74896240234375,0.30517578125,0.06103515625,-0.1220703125,0.443603515625,-0.8018798828125,0.3992919921875,-295.0,153.0,-151.0,101698.0,-3.1030001640319824,0,0
0.7383859000110533,0.371978759765625,-0.4512939453125,0.311370849609375,-0.74896240234375,0.1220703125,0.06103515625,0.18310546875,0.44580078125,-0.80712890625,0.3995361328125,-295.0,153.0,-151.0,101698.0,-3.1030001640319824,0,0
0.7384427000069991,0.371978759765625,-0.4512939453125,0.311370849609375,-0.74896240234375,0.1220703125,0.06103515625,0.18310546875,0.44580078125,-0.80712890625,0.3995361328125,-295.0,152.0,-151.0,101698.0,-3.1050002574920654,0,0
0.7392861000116682,0.37188720703125,-0.451263427734375,0.311431884765625,-0.7490234375,0.1220703125,0.06103515625,-0.18310546875,0.4437255859375,-0.8023681640625,0.400146484375,-295.0,152.0,-151.0,101698.0,-3.1050002574920654,0,0
0.7393522000056691,0.37188720703125,-0.45123291015625,0.311431884765625,-0.7490234375,0.18310546875,-0.18310546875,0.06103515625,0.44482421875,-0.804931640625,0.400390625,-295.0,152.0,-151.0,101698.0,-3.1050002574920654,0,0
0.739411900009145,0.37188720703125,-0.45123291015625,0.311431884765625,-0.7490234375,0.1220703125,0.06103515625,-0.06103515625,0.4444580078125,-0.80419921875,0.400634765625,-295.0,152.0,-151.0,101698.0,-3.1050002574920654,0,0
0.7394694000104209,0.37188720703125,-0.45123291015625,0.311431884765625,-0.7490234375,0.18310546875,-0.18310546875,-0.06103515625,0.447265625,-0.8040771484375,0.4005126953125,-295.0,152.0,-151.0,101698.0,-3.1050002574920654,0,0
0.7395286000100896,0.37188720703125,-0.45123291015625,0.311431884765625,-0.7490234375,0.18310546875,0.06103515625,-0.06103515625,0.4454345703125,-0.80322265625,0.3983154296875,-295.0,152.0,-151.0,101698.0,-3.1050002574920654,0,0
0.7395837000076426,0.37188720703125,-0.45123291015625,0.311431884765625,-0.7490234375,0.18310546875,0.06103515625,-0.06103515625,0.4454345703125,-0.80322265625,0.3983154296875,-295.0,152.0,-151.0,101698.0,-3.1050002574920654,0,0
0.806972999998834,0.37188720703125,-0.45123291015625,0.311431884765625,-0.7490234375,0.3662109375,0.18310546875,0.0,0.4464111328125,-0.802001953125,0.4000244140625,-295.0,152.0,-151.0,101698.0,-3.1050002574920654,0,0
0.8070369000051869,0.37188720703125,-0.45123291015625,0.311431884765625,-0.7490234375,-0.18310546875,0.18310546875,-0.1220703125,0.4443359375,-0.8013916015625,0.4000244140625,-295.0,152.0,-151.0,101698.0,-3.1050002574920654,0,0
0.8070966000086628,0.37188720703125,-0.45123291015625,0.3114013671875,-0.7490234375,0.244140625,0.0,0.06103515625,0.444580078125,-0.802001953125,0.39794921875,-295.0,152.0,-151.0,101698.0,-3.1050002574920654,0,0
0.8071543000114616,0.37188720703125,-0.45123291015625,0.3114013671875,-0.7490234375,0.06103515625,-0.06103515625,-0.30517578125,0.445556640625,-0.8018798828125,0.3994140625,-295.0,152.0,-151.0,101698.0,-3.1050002574920654,0,0
0.8072127000050386,0.37188720703125,-0.45123291015625,0.3114013671875,-0.7490234375,0.18310546875,0.06103515625,-0.06103515625,0.444580078125,-0.8023681640625,0.3994140625,-295.0,152.0,-151.0,101698.0,-3.1050002574920654,0,0
0.8074229000048945,0.37188720703125,-0.45123291015625,0.3114013671875,-0.749053955078125,0.1220703125,-0.30517578125,0.06103515625,0.4437255859375,-0.801025390625,0.4007568359375,-295.0,152.0,-151.0,101698.0,-3.1050002574920654,0,0
0.8074866000097245,0.37188720703125,-0.45123291015625,0.3114013671875,-0.749053955078125,0.1220703125,-0.30517578125,0.06103515625,0.4437255859375,-0.801025390625,0.4007568359375,-295.0,152.0,-151.0,101698.0,-3.1050002574920654,0,0
0.807592700002715,0.37188720703125,-0.45123291015625,0.3114013671875,-0.749053955078125,0.1220703125,-0.30517578125,0.06103515625,0.4437255859375,-0.801025390625,0.4007568359375,-295.0,152.0,-151.0,101698.0,-3.1050002574920654,0,0
0.8076494000124512,0.37188720703125,-0.45123291015625,0.3114013671875,-0.749053955078125,-0.06103515625,0.0,-0.1220703125,0.4439697265625,-0.8011474609375,0.3983154296875,-295.0,152.0,-151.0,101698.0,-3.1050002574920654,0,0
0.8077069999999367,0.37188720703125,-0.45123291015625,0.3114013671875,-0.749053955078125,0.18310546875,-0.30517578125,-0.244140625,0.443115234375,-0.8001708984375,0.3988037109375,-295.0,152.0,-151.0,101698.0,-3.1050002574920654,0,0
0.8077631000051042,0.37188720703125,-0.45123291015625,0.3114013671875,-0.749053955078125,0.244140625,-0.06103515625,-0.18310546875,0.44482421875,-0.7978515625,0.3984375,-295.0,152.0,-151.0,101698.0,-3.1050002574920654,0,0
0.8667946000059601,0.37176513671875,-0.451202392578125,0.311431884765625,-0.74908447265625,0.1220703125,-0.06103515625,0.18310546875,0.4454345703125,-0.80078125,0.3994140625,-295.0,152.0,-151.0,101698.0,-3.1040000915527344,0,0
0.8668624999991152,0.371795654296875,-0.451171875,0.311431884765625,-0.749114990234375,0.30517578125,-0.06103515625,0.18310546875,0.4432373046875,-0.802734375,0.4007568359375,-295.0,152.0,-151.0,101698.0,-3.1040000915527344,0,0
0.8669196000118973,0.371795654296875,-0.451171875,0.311431884765625,-0.749114990234375,0.30517578125,-0.06103515625,0.18310546875,0.4432373046875,-0.802734375,0.4007568359375,-295.0,152.0,-151.0,101698.0,-3.1040000915527344,0,0
0.8669746000086889,0.371795654296875,-0.451171875,0.311431884765625,-0.749114990234375,0.1220703125,0.244140625,0.244140625,0.4420166015625,-0.8023681640625,0.3992919921875,-295.0,152.0,-151.0,101698.0,-3.1040000915527344,0,0
0.8678917000070214,0.371795654296875,-0.451171875,0.31146240234375,-0.749114990234375,0.0,-0.1220703125,0.06103515625,0.44384765625,-0.803466796875,0.398193359375,-295.0,152.0,-151.0,101698.0,-3.1040000915527344,0,0
0.8679512000089744,0.371795654296875,-0.451171875,0.311431884765625,-0.749114990234375,-0.1220703125,-0.1220703125,-0.30517578125,0.4439697265625,-0.802734375,0.4002685546875,-295.0,152.0,-151.0,101698.0,-3.1040000915527344,0,0
0.8680066000088118,0.371795654296875,-0.451171875,0.311431884765625,-0.749114990234375,-0.244140625,-0.18310546875,0.06103515625,0.4461669921875,-0.80126953125,0.398193359375,-295.0,152.0,-151.0,101698.0,-3.1040000915527344,0,0
0.8680626000132179,0.371795654296875,-0.451171875,0.31146240234375,-0.749114990234375,0.06103515625,-0.06103515625,-0.18310546875,0.4429931640625,-0.80419921875,0.3990478515625,-295.0,152.0,-151.0,101698.0,-3.1040000915527344,0,0
0.8681170000054408,0.371795654296875,-0.451171875,0.31146240234375,-0.749114990234375,0.06103515625,0.0,-0.1220703125,0.4443359375,-0.80322265625,0.400146484375,-295.0,152.0,-151.0,101698.0,-3.1040000915527344,0,0
0.8681700000015553,0.371795654296875,-0.451171875,0.311431884765625,-0.749114990234375,0.30517578125,-0.06103515625,-0.18310546875,0.4447021484375,-0.802490234375,0.3992919921875,-295.0,152.0,-151.0,101698.0,-3.1040000915527344,0,0
0.9293404000054579,0.371795654296875,-0.451171875,0.31146240234375,-0.749114990234375,-0.06103515625,-0.1220703125,0.0,0.4437255859375,-0.804931640625,0.3992919921875,-295.0,152.0,-151.0,101698.0,-3.1040000915527344,0,0
0.9294073000055505,0.371795654296875,-0.451171875,0.31146240234375,-0.749114990234375,0.06103515625,-0.1220703125,-0.244140625,0.4429931640625,-0.7999267578125,0.399658203125,-295.0,152.0,-151.0,101698.0,-3.1040000915527344,0,0
0.9294626000046264,0.371795654296875,-0.451171875,0.31146240234375,-0.749114990234375,0.06103515625,-0.1220703125,-0.244140625,0.4429931640625,-0.7999267578125,0.399658203125,-295.0,152.0,-151.0,101698.0,-3.1040000915527344,0,0
0.9295192999998108,0.371795654296875,-0.451171875,0.31146240234375,-0.749114990234375,-0.06103515625,-0.06103515625,0.1220703125,0.444580078125,-0.8017578125,0.3963623046875,-295.0,152.0,-151.0,101698.0,-3.1040000915527344,0,0
0.9295737000065856,0.371795654296875,-0.451171875,0.311431884765625,-0.749114990234375,0.244140625,-0.18310546875,-0.06103515625,0.44482421875,-0.800537109375,0.3985595703125,-295.0,152.0,-151.0,101698.0,-3.1040000915527344,0,0
0.929627800011076,0.371795654296875,-0.451171875,0.31146240234375,-0.749114990234375,0.06103515625,-0.06103515625,0.18310546875,0.4432373046875,-0.8013916015625,0.3985595703125,-295.0,152.0,-151.0,101698.0,-3.1040000915527344,0,0
0.9296802000026219,0.371795654296875,-0.451171875,0.31146240234375,-0.749114990234375,0.06103515625,-0.1220703125,-0.1220703125,0.443603515625,-0.8018798828125,0.3985595703125,-295.0,152.0,-151.0,101698.0,-3.1040000915527344,0,0
0.9306662000017241,0.371795654296875,-0.451171875,0.31146240234375,-0.749114990234375,-0.18310546875,0.0,-0.244140625,0.442626953125,-0.8009033203125,0.3980712890625,-295.0,152.0,-151.0,101698.0,-3.1040000915527344,0,0
0.9307228000106988,0.371795654296875,-0.451171875,0.31146240234375,-0.74908447265625,-0.18310546875,0.0,-0.244140625,0.442626953125,-0.8009033203125,0.3980712890625,-295.0,149.0,-150.0,101698.0,-3.1040000915527344,0,0
0.9307779000082519,0.3717041015625,-0.451141357421875,0.3115234375,-0.7491455078125,0.06103515625,-0.18310546875,-0.06103515625,0.44482421875,-0.80419921875,0.3975830078125,-295.0,149.0,-150.0,101698.0,-3.1040000915527344,0,0
0.9308311000058893,0.371673583984375,-0.451141357421875,0.3115234375,-0.7491455078125,0.0,0.0,0.06103515625,0.4453125,-0.803466796875,0.3990478515625,-295.0,149.0,-150.0,101698.0,-3.1040000915527344,0,0
0.9308839000004809,0.371673583984375,-0.451141357421875,0.3115234375,-0.7491455078125,0.0,0.0,0.06103515625,0.4453125,-0.803466796875,0.3990478515625,-295.0,149.0,-150.0,101698.0,-3.1040000915527344,0,0
0.9309375000011642,0.3717041015625,-0.451141357421875,0.3115234375,-0.7491455078125,-0.06103515625,0.0,0.0,0.4432373046875,-0.8033447265625,0.4000244140625,-295.0,149.0,-150.0,101698.0,-3.1040000915527344,0,0
0.9983658000128344,0.3717041015625,-0.45111083984375,0.3115234375,-0.7491455078125,0.06103515625,0.06103515625,-0.1220703125,0.443603515625,-0.802490234375,0.401611328125,-295.0,149.0,-150.0,101698.0,-3.1040000915527344,0,0
0.9984260000055656,0.3717041015625,-0.45111083984375,0.3115234375,-0.7491455078125,0.30517578125,0.0,-0.06103515625,0.4453125,-0.8016357421875,0.3995361328125,-295.0,149.0,-150.0,101698.0,-3.1040000915527344,0,0
0.998481400005403,0.3717041015625,-0.45111083984375,0.311492919921875,-0.7491455078125,-0.18310546875,-0.1220703125,-0.30517578125,0.44580078125,-0.799560546875,0.3995361328125,-295.0,149.0,-150.0,101698.0,-3.1040000915527344,0,0
0.9985348000045633,0.3717041015625,-0.45111083984375,0.311492919921875,-0.7491455078125,-0.18310546875,-0.1220703125,-0.30517578125,0.44580078125,-0.799560546875,0.3995361328125,-295.0,149.0,-150.0,101698.0,-3.1040000915527344,0,0
0.9985913000127766,0.3717041015625,-0.45111083984375,0.3115234375,-0.7491455078125,-0.18310546875,0.06103515625,-0.18310546875,0.4451904296875,-0.8018798828125,0.3995361328125,-295.0,149.0,-150.0,101698.0,-3.1040000915527344,0,0
0.9986572000052547,0.3717041015625,-0.45111083984375,0.311492919921875,-0.7491455078125,-0.1220703125,0.1220703125,0.0,0.4466552734375,-0.802978515625,0.3994140625,-295.0,149.0,-150.0,101698.0,-3.1040000915527344,0,0
0.998711700012791,0.3717041015625,-0.45111083984375,0.311492919921875,-0.7491455078125,-0.1220703125,0.1220703125,0.0,0.4466552734375,-0.802978515625,0.3994140625,-295.0,149.0,-150.0,101698.0,-3.1040000915527344,0,0
0.998803800001042,0.3717041015625,-0.45111083984375,0.311492919921875,-0.749176025390625,0.1220703125,-0.06103515625,-0.1220703125,0.445068359375,-0.8018798828125,0.3997802734375,-295.0,149.0,-150.0,101698.0,-3.1040000915527344,0,0
0.9988577000040095,0.3717041015625,-0.45111083984375,0.311492919921875,-0.7491455078125,-0.1220703125,-0.06103515625,-0.1220703125,0.4454345703125,-0.8028564453125,0.3992919921875,-295.0,149.0,-150.0,101698.0,-3.1040000915527344,0,0
0.9989111000031698,0.3717041015625,-0.45111083984375,0.311492919921875,-0.7491455078125,0.0,-0.3662109375,-0.1220703125,0.4439697265625,-0.8045654296875,0.398193359375,-295.0,149.0,-150.0,101698.0,-3.1040000915527344,0,0
0.9989638000115519,0.3717041015625,-0.451141357421875,0.311492919921875,-0.749176025390625,0.1220703125,0.0,0.0,0.4447021484375,-0.802001953125,0.3997802734375,-295.0,149.0,-150.0,101698.0,-3.1040000915527344,0,0
1.0582931000099052,0.371673583984375,-0.451141357421875,0.311492919921875,-0.749176025390625,0.0,-0.06103515625,0.06103515625,0.4461669921875,-0.802490234375,0.3985595703125,-295.0,150.0,-150.0,101698.0,-3.1030001640319824,0,0
1.0583623999991687,0.371673583984375,-0.451141357421875,0.311492919921875,-0.749176025390625,0.06103515625,0.18310546875,0.06103515625,0.44677734375,-0.8028564453125,0.3995361328125,-295.0,150.0,-150.0,101698.0,-3.1030001640319824,0,0
1.058421300011105,0.371673583984375,-0.451141357421875,0.311492919921875,-0.749176025390625,0.06103515625,0.18310546875,0.06103515625,0.44677734375,-0.8028564453125,0.3995361328125,-295.0,150.0,-150.0,101698.0,-3.1030001640319824,0,0
1.0584746000095038,0.37158203125,-0.451080322265625,0.311553955078125,-0.74920654296875,0.06103515625,-0.1220703125,0.0,0.4412841796875,-0.8026123046875,0.4002685546875,-295.0,150.0,-150.0,101698.0,-3.1030001640319824,0,0
1.0585289000009652,0.37158203125,-0.451080322265625,0.31158447265625,-0.74920654296875,-0.06103515625,-0.18310546875,-0.06103515625,0.4439697265625,-0.80419921875,0.3988037109375,-295.0,150.0,-150.0,101698.0,-3.1030001640319824,0,0
1.05867300000682,0.37158203125,-0.451080322265625,0.31158447265625,-0.74920654296875,0.244140625,-0.18310546875,0.0,0.445068359375,-0.8038330078125,0.399169921875,-295.0,150.0,-150.0,101698.0,-3.1030001640319824,0,0
1.0587280000036117,0.37158203125,-0.451080322265625,0.311553955078125,-0.74920654296875,-0.18310546875,0.0,0.06103515625,0.444580078125,-0.8017578125,0.400146484375,-295.0,150.0,-150.0,101698.0,-3.1030001640319824,0,0
1.058782500011148,0.37158203125,-0.451080322265625,0.311553955078125,-0.74920654296875,-0.06103515625,0.1220703125,0.0,0.4466552734375,-0.8037109375,0.3997802734375,-295.0,150.0,-150.0,101698.0,-3.1030001640319824,0,0
1.0588346000004094,0.37158203125,-0.451080322265625,0.311553955078125,-0.74920654296875,-0.1220703125,-0.1220703125,-0.1220703125,0.4456787109375,-0.802734375,0.4002685546875,-295.0,150.0,-150.0,101698.0,-3.1030001640319824,0,0
1.058888300001854,0.37158203125,-0.451080322265625,0.311553955078125,-0.74920654296875,-0.06103515625,-0.06103515625,0.0,0.4443359375,-0.8037109375,0.3978271484375,-295.0,150.0,-150.0,101698.0,-3.1030001640319824,0,0
1.0589391000103205,0.37158203125,-0.451080322265625,0.311553955078125,-0.74920654296875,0.06103515625,0.0,-0.06103515625,0.4432373046875,-0.802001953125,0.3983154296875,-295.0,150.0,-150.0,101698.0,-3.1030001640319824,0,0
1.058994300008635,0.37158203125,-0.451080322265625,0.311553955078125,-0.74920654296875,0.0,0.0,-0.06103515625,0.444091796875,-0.8028564453125,0.398193359375,-295.0,150.0,-150.0,101698.0,-3.1030001640319824,0,0
1.1265713000029791,0.37158203125,-0.451080322265625,0.311553955078125,-0.74920654296875,0.0,0.0,-0.06103515625,0.444091796875,-0.8028564453125,0.398193359375,-295.0,150.0,-150.0,101698.0,-3.1030001640319824,0,0
1.1266366000054404,0.37158203125,-0.451080322265625,0.311553955078125,-0.74920654296875,0.0,0.0,-0.06103515625,0.4444580078125,-0.8021240234375,0.400390625,-295.0,150.0,-150.0,101698.0,-3.1030001640319824,0,0
1.1268823999998858,0.37158203125,-0.451080322265625,0.311553955078125,-0.74920654296875,-0.18310546875,-0.244140625,0.06103515625,0.4439697265625,-0.80224609375,0.400390625,-295.0,150.0,-150.0,101698.0,-3.1030001640319824,0,0
1.1270370999991428,0.37158203125,-0.451080322265625,0.311553955078125,-0.74920654296875,-0.06103515625,0.06103515625,-0.18310546875,0.4451904296875,-0.8017578125,0.3988037109375,-295.0,150.0,-150.0,101698.0,-3.1030001640319824,0,0
1.1271083000028739,0.37158203125,-0.451080322265625,0.311553955078125,-0.74920654296875,-0.1220703125,-0.1220703125,-0.18310546875,0.4449462890625,-0.800537109375,0.3994140625,-295.0,150.0,-150.0,101698.0,-3.1030001640319824,0,0
1.1272491999989143,0.37158203125,-0.451080322265625,0.311553955078125,-0.74920654296875,-0.1220703125,-0.1220703125,0.0,0.445556640625,-0.800537109375,0.4000244140625,-295.0,150.0,-150.0,101698.0,-3.1030001640319824,0,0
1.1273445000115316,0.37158203125,-0.451080322265625,0.311553955078125,-0.74920654296875,0.1220703125,-0.06103515625,0.06103515625,0.4437255859375,-0.8021240234375,0.3988037109375,-295.0,150.0,-150.0,101698.0,-3.1030001640319824,0,0
1.127404300001217,0.37158203125,-0.451080322265625,0.311553955078125,-0.74920654296875,-0.244140625,-0.06103515625,-0.18310546875,0.44580078125,-0.8001708984375,0.3988037109375,-295.0,150.0,-150.0,101698.0,-3.1030001640319824,0,0
1.1274796000070637,0.37158203125,-0.451080322265625,0.311553955078125,-0.749237060546875,0.0,0.244140625,-0.1220703125,0.4439697265625,-0.800048828125,0.3992919921875,-295.0,150.0,-150.0,101698.0,-3.1030001640319824,0,0
1.1275506000092719,0.37158203125,-0.451080322265625,0.311553955078125,-0.749237060546875,0.0,0.244140625,-0.1220703125,0.4439697265625,-0.800048828125,0.3992919921875,-295.0,150.0,-150.0,101698.0,-3.1030001640319824,0,0
1.1276199000130873,0.37158203125,-0.451080322265625,0.311553955078125,-0.749237060546875,-0.06103515625,-0.06103515625,0.0,0.4444580078125,-0.8017578125,0.399169921875,-295.0,149.0,-148.0,101698.0,-3.1030001640319824,0,0
1.1276900000084424,0.37158203125,-0.451080322265625,0.311553955078125,-0.749237060546875,-0.18310546875,-0.06103515625,0.18310546875,0.4437255859375,-0.801025390625,0.3975830078125,-295.0,149.0,-148.0,101698.0,-3.1030001640319824,0,0
1.190972000011243,0.37158203125,-0.451080322265625,0.311553955078125,-0.749237060546875,0.0,-0.06103515625,0.0,0.443603515625,-0.80224609375,0.39990234375,-295.0,149.0,-148.0,101698.0,-3.1030001640319824,0,0
1.1910361000045668,0.37158203125,-0.451080322265625,0.311553955078125,-0.749237060546875,-0.1220703125,0.06103515625,-0.18310546875,0.4449462890625,-0.8013916015625,0.3978271484375,-295.0,149.0,-148.0,101698.0,-3.1030001640319824,0,0
1.1910950000019511,0.37158203125,-0.451080322265625,0.311553955078125,-0.749237060546875,0.06103515625,0.06103515625,-0.244140625,0.44580078125,-0.8018798828125,0.3978271484375,-295.0,149.0,-148.0,101698.0,-3.1030001640319824,0,0
1.19115340001008,0.37158203125,-0.451080322265625,0.3115234375,-0.749237060546875,-0.1220703125,-0.244140625,-0.1220703125,0.445556640625,-0.8017578125,0.4002685546875,-295.0,149.0,-148.0,101698.0,-3.1030001640319824,0,0
1.1912092999991728,0.37158203125,-0.451080322265625,0.311553955078125,-0.749237060546875,0.06103515625,0.0,-0.1220703125,0.4434814453125,-0.801025390625,0.3975830078125,-295.0,149.0,-148.0,101698.0,-3.1030001640319824,0,0
1.1916842000064207,0.37158203125,-0.451080322265625,0.311553955078125,-0.749237060546875,0.06103515625,0.0,-0.1220703125,0.4434814453125,-0.801025390625,0.3975830078125,-295.0,149.0,-148.0,101698.0,-3.1030001640319824,0,0
1.191749500008882,0.37158203125,-0.451080322265625,0.311553955078125,-0.74920654296875,0.1220703125,0.06103515625,0.0,0.444091796875,-0.802490234375,0.396240234375,-295.0,149.0,-148.0,101698.0,-3.1030001640319824,0,0
1.1918080000032205,0.37158203125,-0.451080322265625,0.311553955078125,-0.74920654296875,-0.06103515625,0.06103515625,-0.18310546875,0.4442138671875,-0.8017578125,0.39892578125,-295.0,149.0,-148.0,101698.0,-3.1030001640319824,0,0
1.1918664000113495,0.37158203125,-0.45111083984375,0.311553955078125,-0.74920654296875,-0.30517578125,-0.1220703125,0.1220703125,0.44482421875,-0.80322265625,0.3963623046875,-295.0,149.0,-148.0,101698.0,-3.1030001640319824,0,0
1.1919237000111025,0.37158203125,-0.45111083984375,0.311553955078125,-0.74920654296875,0.18310546875,0.18310546875,-0.06103515625,0.4442138671875,-0.804443359375,0.3974609375,-295.0,149.0,-148.0,101698.0,-3.1030001640319824,0,0
1.1919821000046795,0.37158203125,-0.45111083984375,0.311553955078125,-0.74920654296875,-0.18310546875,-0.18310546875,-0.06103515625,0.4454345703125,-0.8018798828125,0.3985595703125,-295.0,149.0,-148.0,101698.0,-3.1030001640319824,0,0
1.192040599999018,0.37158203125,-0.45111083984375,0.311553955078125,-0.74920654296875,-0.06103515625,-0.06103515625,-0.1220703125,0.4434814453125,-0.80029296875,0.3995361328125,-295.0,149.0,-148.0,101698.0,-3.1030001640319824,0,0
1.2476804000034463,0.37158203125,-0.45111083984375,0.311553955078125,-0.74920654296875,-0.1220703125,-0.06103515625,0.0,0.4442138671875,-0.8043212890625,0.3995361328125,-295.0,149.0,-148.0,101698.0,-3.1030001640319824,0,0
1.2477562999993097,0.37158203125,-0.45111083984375,0.31158447265625,-0.74920654296875,0.244140625,0.0,0.06103515625,0.44384765625,-0.8035888671875,0.3974609375,-295.0,149.0,-148.0,101698.0,-3.1010000705718994,0,0
1.2478200000041397,0.37158203125,-0.45111083984375,0.31158447265625,-0.74920654296875,0.18310546875,0.0,-0.244140625,0.4434814453125,-0.803466796875,0.3968505859375,-295.0,149.0,-148.0,101698.0,-3.1010000705718994,0,0
1.2478804999991553,0.37158203125,-0.45111083984375,0.31158447265625,-0.74920654296875,-0.1220703125,-0.30517578125,0.0,0.4444580078125,-0.8028564453125,0.39794921875,-295.0,149.0,-148.0,101698.0,-3.1010000705718994,0,0
1.2485472000116715,0.37158203125,-0.45111083984375,0.31158447265625,-0.74920654296875,0.244140625,-0.244140625,-0.1220703125,0.445068359375,-0.8013916015625,0.39697265625,-295.0,149.0,-148.0,101698.0,-3.1010000705718994,0,0
1.24861230001261,0.37158203125,-0.45111083984375,0.31158447265625,-0.749176025390625,0.1220703125,0.0,-0.18310546875,0.4456787109375,-0.803955078125,0.396484375,-295.0,149.0,-148.0,101698.0,-3.1010000705718994,0,0
1.2486732000106713,0.37158203125,-0.45111083984375,0.31158447265625,-0.749176025390625,0.06103515625,-0.18310546875,0.06103515625,0.4447021484375,-0.8037109375,0.3983154296875,-295.0,149.0,-148.0,101698.0,-3.1010000705718994,0,0
1.2487308999989182,0.37158203125,-0.451141357421875,0.31158447265625,-0.749176025390625,0.06103515625,-0.1220703125,-0.06103515625,0.4434814453125,-0.802001953125,0.3983154296875,-295.0,149.0,-148.0,101698.0,-3.1010000705718994,0,0
1.2487900000123773,0.37158203125,-0.451141357421875,0.311614990234375,-0.749176025390625,-0.1220703125,-0.18310546875,-0.06103515625,0.446044921875,-0.803466796875,0.3970947265625,-295.0,149.0,-148.0,101698.0,-3.1010000705718994,0,0
1.2488505000073928,0.37158203125,-0.451141357421875,0.311614990234375,-0.749176025390625,-0.18310546875,-0.18310546875,0.0,0.4437255859375,-0.80322265625,0.3983154296875,-295.0,149.0,-148.0,101698.0,-3.1010000705718994,0,0
1.248908500012476,0.37158203125,-0.451141357421875,0.311614990234375,-0.749176025390625,-0.18310546875,-0.18310546875,0.0,0.4437255859375,-0.80322265625,0.3983154296875,-295.0,149.0,-148.0,101698.0,-3.1010000705718994,0,0
1.3150184000114677,0.37158203125,-0.451141357421875,0.311614990234375,-0.749176025390625,0.0,0.1220703125,0.06103515625,0.4459228515625,-0.8043212890625,0.3990478515625,-295.0,149.0,-148.0,101698.0,-3.1010000705718994,0,0
1.3150858000008157,0.37158203125,-0.451141357421875,0.311614990234375,-0.749176025390625,-0.06103515625,0.06103515625,0.06103515625,0.4461669921875,-0.8016357421875,0.3974609375,-295.0,149.0,-148.0,101698.0,-3.1010000705718994,0,0
1.315146699998877,0.37158203125,-0.451141357421875,0.311614990234375,-0.749176025390625,-0.18310546875,-0.1220703125,-0.06103515625,0.4439697265625,-0.802001953125,0.398193359375,-295.0,149.0,-148.0,101698.0,-3.1010000705718994,0,0
1.3152068000053987,0.37158203125,-0.451141357421875,0.311614990234375,-0.749176025390625,-0.1220703125,-0.1220703125,-0.1220703125,0.4434814453125,-0.8035888671875,0.3980712890625,-295.0,149.0,-148.0,101698.0,-3.1010000705718994,0,0
1.3152658000035444,0.37158203125,-0.451141357421875,0.311614990234375,-0.749176025390625,0.0,-0.1220703125,-0.18310546875,0.4437255859375,-0.80224609375,0.395751953125,-295.0,149.0,-148.0,101698.0,-3.1010000705718994,0,0
1.3153238000086276,0.37158203125,-0.451141357421875,0.311614990234375,-0.7491455078125,0.1220703125,-0.244140625,-0.1220703125,0.4429931640625,-0.80419921875,0.3951416015625,-295.0,149.0,-148.0,101698.0,-3.1010000705718994,0,0
1.3168195000034757,0.37158203125,-0.451141357421875,0.311614990234375,-0.7491455078125,-0.06103515625,-0.06103515625,-0.244140625,0.445556640625,-0.80078125,0.3983154296875,-295.0,149.0,-148.0,101698.0,-3.1010000705718994,0,0
1.3168876000127057,0.371551513671875,-0.451141357421875,0.311614990234375,-0.7491455078125,-0.06103515625,-0.06103515625,-0.244140625,0.445556640625,-0.80078125,0.3983154296875,-295.0,149.0,-148.0,101698.0,-3.1010000705718994,0,0
1.3169475000031525,0.371551513671875,-0.451141357421875,0.311614990234375,-0.7491455078125,-0.06103515625,-0.06103515625,-0.244140625,0.445556640625,-0.80078125,0.3983154296875,-295.0,149.0,-148.0,101698.0,-3.1010000705718994,0,0
1.3170059000112815,0.371551513671875,-0.451171875,0.311614990234375,-0.7491455078125,0.18310546875,-0.30517578125,-0.1220703125,0.4444580078125,-0.8033447265625,0.3978271484375,-295.0,149.0,-148.0,101698.0,-3.1010000705718994,0,0
1.3170627000072272,0.371551513671875,-0.451171875,0.311614990234375,-0.7491455078125,-0.1220703125,-0.18310546875,0.0,0.4451904296875,-0.8023681640625,0.3973388671875,-295.0,149.0,-148.0,101698.0,-3.1010000705718994,0,0
1.3171200000069803,0.371551513671875,-0.451171875,0.311614990234375,-0.7491455078125,0.0,0.0,0.0,0.4447021484375,-0.8017578125,0.399169921875,-295.0,150.0,-150.0,101697.0,-3.0980000495910645,0,0
1.379842100010137,0.3714599609375,-0.451141357421875,0.311676025390625,-0.74920654296875,0.18310546875,0.06103515625,-0.06103515625,0.44482421875,-0.8033447265625,0.397216796875,-295.0,150.0,-150.0,101697.0,-3.0980000495910645,0,0
1.3799089000094682,0.3714599609375,-0.451141357421875,0.31170654296875,-0.74920654296875,0.0,-0.06103515625,-0.06103515625,0.4444580078125,-0.802978515625,0.396728515625,-295.0,150.0,-150.0,101697.0,-3.0980000495910645,0,0
1.3799684000114212,0.3714599609375,-0.45111083984375,0.311676025390625,-0.74920654296875,0.1220703125,-0.06103515625,-0.1220703125,0.4420166015625,-0.801025390625,0.40087890625,-295.0,150.0,-150.0,101697.0,-3.0980000495910645,0,0
1.380023000005167,0.3714599609375,-0.45111083984375,0.31170654296875,-0.74920654296875,0.1220703125,0.0,0.1220703125,0.4443359375,-0.805419921875,0.399169921875,-295.0,150.0,-150.0,101697.0,-3.0980000495910645,0,0
1.3800766000058502,0.3714599609375,-0.45111083984375,0.31170654296875,-0.74920654296875,0.1220703125,0.0,0.1220703125,0.4443359375,-0.805419921875,0.399169921875,-295.0,150.0,-150.0,101697.0,-3.0980000495910645,0,0
1.382248800000525,0.3714599609375,-0.45111083984375,0.31170654296875,-0.749176025390625,0.244140625,-0.06103515625,-0.18310546875,0.4437255859375,-0.802978515625,0.3975830078125,-295.0,150.0,-150.0,101697.0,-3.0980000495910645,0,0
1.3823139000014635,0.3714599609375,-0.45111083984375,0.31170654296875,-0.749176025390625,-0.244140625,-0.18310546875,-0.06103515625,0.445068359375,-0.8031005859375,0.3984375,-295.0,150.0,-150.0,101697.0,-3.0980000495910645,0,0
1.3831601999991108,0.3714599609375,-0.45111083984375,0.31170654296875,-0.749176025390625,-0.1220703125,0.1220703125,0.0,0.4432373046875,-0.803466796875,0.3975830078125,-295.0,150.0,-150.0,101697.0,-3.0980000495910645,0,0
1.3832338000065647,0.371490478515625,-0.45111083984375,0.31170654296875,-0.749176025390625,0.1220703125,0.18310546875,0.0,0.4425048828125,-0.8031005859375,0.3990478515625,-295.0,150.0,-150.0,101697.0,-3.0980000495910645,0,0
1.3832901000132551,0.371490478515625,-0.45111083984375,0.31170654296875,-0.749176025390625,-0.06103515625,0.06103515625,0.06103515625,0.442138671875,-0.802978515625,0.3992919921875,-295.0,150.0,-150.0,101697.0,-3.0980000495910645,0,0
1.3833471000107238,0.371490478515625,-0.45111083984375,0.31170654296875,-0.749176025390625,0.1220703125,-0.244140625,0.06103515625,0.4443359375,-0.8016357421875,0.3990478515625,-295.0,150.0,-150.0,101697.0,-3.0980000495910645,0,0
1.383405100001255,0.371490478515625,-0.45111083984375,0.31170654296875,-0.749176025390625,0.0,-0.06103515625,-0.06103515625,0.4444580078125,-0.803466796875,0.3995361328125,-295.0,150.0,-150.0,101697.0,-3.0980000495910645,0,0
1.4485418000112986,0.371490478515625,-0.45111083984375,0.31170654296875,-0.749176025390625,-0.06103515625,0.0,-0.06103515625,0.4444580078125,-0.801025390625,0.3985595703125,-295.0,150.0,-150.0,101697.0,-3.0980000495910645,0,0
1.4486161000095308,0.371490478515625,-0.45111083984375,0.31170654296875,-0.749176025390625,0.0,0.1220703125,-0.244140625,0.4437255859375,-0.8016357421875,0.3978271484375,-295.0,150.0,-150.0,101697.0,-3.0980000495910645,0,0
1.4486786000052234,0.371490478515625,-0.45111083984375,0.31170654296875,-0.749176025390625,-0.18310546875,-0.1220703125,-0.06103515625,0.4427490234375,-0.802734375,0.3975830078125,-295.0,150.0,-150.0,101697.0,-3.0980000495910645,0,0
1.4487375000026077,0.371490478515625,-0.45111083984375,0.31170654296875,-0.749176025390625,-0.18310546875,-0.1220703125,-0.06103515625,0.4427490234375,-0.802734375,0.3975830078125,-294.0,150.0,-149.0,101698.0,-3.1020002365112305,0,0
1.4489237000088906,0.371490478515625,-0.45111083984375,0.31170654296875,-0.749176025390625,0.06103515625,0.0,-0.06103515625,0.443115234375,-0.8009033203125,0.3978271484375,-294.0,150.0,-149.0,101698.0,-3.1020002365112305,0,0
1.4490227000060258,0.37158203125,-0.451141357421875,0.3116455078125,-0.7491455078125,-0.244140625,0.0,-0.244140625,0.4437255859375,-0.802490234375,0.3992919921875,-294.0,150.0,-149.0,101698.0,-3.1020002365112305,0,0
1.4490790999989258,0.37158203125,-0.451141357421875,0.3116455078125,-0.7491455078125,0.0,-0.30517578125,0.0,0.4462890625,-0.801513671875,0.398681640625,-294.0,150.0,-149.0,101698.0,-3.1020002365112305,0,0
1.4491324000118766,0.37158203125,-0.451141357421875,0.3116455078125,-0.7491455078125,0.3662109375,0.0,-0.06103515625,0.4444580078125,-0.8023681640625,0.396728515625,-294.0,150.0,-149.0,101698.0,-3.1020002365112305,0,0
1.4491870000056224,0.37158203125,-0.451141357421875,0.3116455078125,-0.7491455078125,0.06103515625,-0.06103515625,0.0,0.443603515625,-0.80078125,0.3997802734375,-294.0,150.0,-149.0,101698.0,-3.1020002365112305,0,0
1.449240000001737,0.37158203125,-0.451141357421875,0.3116455078125,-0.7491455078125,0.06103515625,-0.06103515625,0.0,0.443603515625,-0.80078125,0.3997802734375,-294.0,150.0,-149.0,101698.0,-3.1020002365112305,0,0
1.4492943000077503,0.37158203125,-0.451141357421875,0.3116455078125,-0.7491455078125,0.42724609375,-0.1220703125,-0.244140625,0.44677734375,-0.80126953125,0.3984375,-294.0,150.0,-149.0,101698.0,-3.1020002365112305,0,0
1.5060432000027504,0.37158203125,-0.451141357421875,0.3116455078125,-0.7491455078125,-0.18310546875,0.244140625,-0.244140625,0.4444580078125,-0.8023681640625,0.3984375,-294.0,150.0,-149.0,101698.0,-3.1020002365112305,0,0
1.5061095999990357,0.37158203125,-0.451141357421875,0.3116455078125,-0.7491455078125,0.1220703125,0.0,0.06103515625,0.44580078125,-0.8001708984375,0.398193359375,-294.0,150.0,-149.0,101698.0,-3.1020002365112305,0,0
1.5061697000055574,0.37158203125,-0.451141357421875,0.3116455078125,-0.7491455078125,0.0,-0.1220703125,0.0,0.4453125,-0.802734375,0.3988037109375,-294.0,150.0,-149.0,101698.0,-3.1020002365112305,0,0
1.5062265000015032,0.37158203125,-0.451141357421875,0.3116455078125,-0.7491455078125,0.244140625,0.0,-0.244140625,0.4443359375,-0.8016357421875,0.3988037109375,-294.0,150.0,-149.0,101698.0,-3.1020002365112305,0,0
1.5062837000004947,0.37158203125,-0.451141357421875,0.3116455078125,-0.7491455078125,0.0,-0.18310546875,-0.06103515625,0.4434814453125,-0.80126953125,0.400390625,-294.0,150.0,-149.0,101698.0,-3.1020002365112305,0,0
1.5063408999994863,0.37158203125,-0.451141357421875,0.3116455078125,-0.7491455078125,-0.06103515625,-0.18310546875,0.0,0.4453125,-0.800537109375,0.3990478515625,-294.0,150.0,-149.0,101698.0,-3.1020002365112305,0,0
1.5095393000083277,0.37158203125,-0.451141357421875,0.3116455078125,-0.7491455078125,0.0,-0.06103515625,-0.244140625,0.4442138671875,-0.802001953125,0.3970947265625,-294.0,150.0,-149.0,101698.0,-3.1020002365112305,0,0
1.5096041000069818,0.37158203125,-0.451141357421875,0.3116455078125,-0.7491455078125,0.0,-0.06103515625,-0.244140625,0.4442138671875,-0.802001953125,0.3970947265625,-294.0,150.0,-149.0,101698.0,-3.1020002365112305,0,0
1.5096631000051275,0.37158203125,-0.451141357421875,0.3116455078125,-0.7491455078125,0.1220703125,0.06103515625,-0.1220703125,0.443603515625,-0.8045654296875,0.398681640625,-294.0,150.0,-149.0,101698.0,-3.1020002365112305,0,0
1.5097221000032732,0.37158203125,-0.451141357421875,0.3116455078125,-0.7491455078125,0.06103515625,0.0,0.06103515625,0.4454345703125,-0.799072265625,0.39892578125,-294.0,150.0,-149.0,101698.0,-3.1020002365112305,0,0
1.5097804000106407,0.37158203125,-0.451141357421875,0.3116455078125,-0.7491455078125,-0.30517578125,-0.18310546875,0.0,0.444580078125,-0.8018798828125,0.3997802734375,-294.0,150.0,-149.0,101698.0,-3.1020002365112305,0,0
1.5098397000110708,0.37158203125,-0.451141357421875,0.3116455078125,-0.7491455078125,0.06103515625,0.06103515625,-0.1220703125,0.444091796875,-0.8040771484375,0.3988037109375,-294.0,150.0,-149.0,101698.0,-3.1020002365112305,0,0
1.5098967000085395,0.37158203125,-0.451141357421875,0.3116455078125,-0.7491455078125,0.0,0.06103515625,0.1220703125,0.4442138671875,-0.8026123046875,0.3995361328125,-294.0,150.0,-149.0,101698.0,-3.1000001430511475,0,0
1.569467799999984,0.371673583984375,-0.451171875,0.31158447265625,-0.74908447265625,0.0,0.1220703125,-0.244140625,0.443359375,-0.801513671875,0.399658203125,-294.0,150.0,-148.0,101698.0,-3.1000001430511475,0,0
1.5695356000069296,0.3717041015625,-0.451171875,0.31158447265625,-0.74908447265625,-0.30517578125,0.1220703125,0.0,0.4449462890625,-0.8040771484375,0.3975830078125,-294.0,150.0,-148.0,101698.0,-3.1000001430511475,0,0
1.569594100001268,0.3717041015625,-0.451171875,0.31158447265625,-0.74908447265625,-0.30517578125,0.1220703125,0.0,0.4449462890625,-0.8040771484375,0.3975830078125,-294.0,150.0,-148.0,101698.0,-3.1000001430511475,0,0
1.569652500009397,0.371673583984375,-0.451171875,0.31158447265625,-0.74908447265625,0.0,0.1220703125,-0.06103515625,0.445068359375,-0.8048095703125,0.3984375,-294.0,150.0,-148.0,101698.0,-3.1000001430511475,0,0
1.5754337000107625,0.3717041015625,-0.451171875,0.31158447265625,-0.74908447265625,0.18310546875,-0.1220703125,-0.1220703125,0.4447021484375,-0.803466796875,0.399658203125,-294.0,150.0,-148.0,101698.0,-3.1000001430511475,0,0
1.5755028999992646,0.3717041015625,-0.451171875,0.31158447265625,-0.74908447265625,-0.244140625,-0.244140625,-0.1220703125,0.4432373046875,-0.80224609375,0.398681640625,-294.0,150.0,-148.0,101698.0,-3.1000001430511475,0,0
1.5756108000059612,0.3717041015625,-0.451171875,0.31158447265625,-0.74908447265625,-0.1220703125,-0.06103515625,-0.06103515625,0.4425048828125,-0.8026123046875,0.3983154296875,-294.0,150.0,-148.0,101698.0,-3.1000001430511475,0,0
1.575679300003685,0.3717041015625,-0.451171875,0.31158447265625,-0.74908447265625,0.18310546875,-0.1220703125,-0.06103515625,0.4451904296875,-0.8037109375,0.3975830078125,-294.0,150.0,-148.0,101698.0,-3.1000001430511475,0,0
1.5757382000010693,0.3717041015625,-0.451171875,0.31158447265625,-0.74908447265625,0.06103515625,-0.1220703125,-0.06103515625,0.4449462890625,-0.8016357421875,0.3978271484375,-294.0,150.0,-148.0,101698.0,-3.1000001430511475,0,0
1.5757962000061525,0.3717041015625,-0.451171875,0.31158447265625,-0.74908447265625,0.18310546875,-0.06103515625,0.1220703125,0.4437255859375,-0.8028564453125,0.398681640625,-294.0,150.0,-148.0,101698.0,-3.1000001430511475,0,0
1.57591310000862,0.3717041015625,-0.451171875,0.31158447265625,-0.74908447265625,0.0,0.06103515625,0.06103515625,0.4449462890625,-0.8038330078125,0.3983154296875,-294.0,150.0,-148.0,101698.0,-3.1000001430511475,0,0
1.6352295000106096,0.3717041015625,-0.451171875,0.31158447265625,-0.74908447265625,0.06103515625,-0.18310546875,-0.18310546875,0.4444580078125,-0.803466796875,0.3990478515625,-294.0,150.0,-148.0,101698.0,-3.1000001430511475,0,0
1.6352963000099408,0.3717041015625,-0.451171875,0.31158447265625,-0.74908447265625,0.30517578125,0.0,0.18310546875,0.444091796875,-0.80126953125,0.3984375,-294.0,150.0,-148.0,101698.0,-3.1000001430511475,0,0
1.6353582000010647,0.3717041015625,-0.451171875,0.31158447265625,-0.74908447265625,-0.06103515625,-0.18310546875,0.0,0.4444580078125,-0.801025390625,0.399169921875,-294.0,150.0,-148.0,101698.0,-3.1000001430511475,0,0
1.6354162000061478,0.3717041015625,-0.451171875,0.31158447265625,-0.74908447265625,-0.06103515625,0.0,-0.18310546875,0.4449462890625,-0.8038330078125,0.3973388671875,-294.0,150.0,-148.0,101698.0,-3.1000001430511475,0,0
1.6354734000051394,0.371673583984375,-0.451171875,0.31158447265625,-0.74908447265625,-0.1220703125,-0.06103515625,0.06103515625,0.44580078125,-0.8013916015625,0.39794921875,-294.0,150.0,-148.0,101698.0,-3.1000001430511475,0,0
1.635543399999733,0.371673583984375,-0.451171875,0.31158447265625,-0.74908447265625,-0.1220703125,-0.06103515625,0.06103515625,0.44580078125,-0.8013916015625,0.39794921875,-295.0,148.0,-147.0,101698.0,-3.1000001430511475,0,0
1.6356027000001632,0.37188720703125,-0.451263427734375,0.31146240234375,-0.748992919921875,-0.1220703125,0.06103515625,0.06103515625,0.4434814453125,-0.7994384765625,0.398681640625,-295.0,148.0,-147.0,101698.0,-3.1000001430511475,0,0
1.6359620000002906,0.37188720703125,-0.451263427734375,0.31146240234375,-0.748992919921875,-0.1220703125,0.0,0.1220703125,0.4461669921875,-0.801025390625,0.39990234375,-295.0,148.0,-147.0,101698.0,-3.1000001430511475,0,0
1.6360431000066455,0.37188720703125,-0.451263427734375,0.31146240234375,-0.748992919921875,-0.1220703125,0.0,0.1220703125,0.4461669921875,-0.801025390625,0.39990234375,-295.0,148.0,-147.0,101698.0,-3.1000001430511475,0,0
1.6361051000130828,0.37188720703125,-0.451263427734375,0.31146240234375,-0.748992919921875,0.18310546875,0.06103515625,0.06103515625,0.4451904296875,-0.8040771484375,0.399658203125,-295.0,148.0,-147.0,101698.0,-3.1000001430511475,0,0
1.6362408000131836,0.37188720703125,-0.451263427734375,0.31146240234375,-0.7490234375,0.18310546875,0.0,-0.06103515625,0.4454345703125,-0.8023681640625,0.3988037109375,-295.0,148.0,-147.0,101698.0,-3.1000001430511475,0,0
1.6993018000066513,0.37188720703125,-0.451263427734375,0.311431884765625,-0.7490234375,0.06103515625,-0.1220703125,-0.06103515625,0.44384765625,-0.802978515625,0.4012451171875,-295.0,148.0,-147.0,101698.0,-3.1000001430511475,0,0
1.6993667000060668,0.37188720703125,-0.451263427734375,0.311431884765625,-0.7490234375,0.0,0.0,-0.1220703125,0.4471435546875,-0.8038330078125,0.4005126953125,-295.0,148.0,-147.0,101698.0,-3.1000001430511475,0,0
1.699665799998911,0.37188720703125,-0.451263427734375,0.311431884765625,-0.7490234375,0.0,0.06103515625,0.1220703125,0.4466552734375,-0.802001953125,0.3975830078125,-295.0,148.0,-147.0,101698.0,-3.1000001430511475,0,0
1.6997364000126254,0.37188720703125,-0.451263427734375,0.311431884765625,-0.7490234375,0.06103515625,-0.06103515625,-0.1220703125,0.446533203125,-0.80517578125,0.398193359375,-295.0,148.0,-147.0,101698.0,-3.1000001430511475,0,0
1.6997961000015493,0.37188720703125,-0.451263427734375,0.311431884765625,-0.748992919921875,0.06103515625,0.06103515625,-0.1220703125,0.444580078125,-0.8045654296875,0.399658203125,-295.0,148.0,-147.0,101698.0,-3.1030001640319824,0,0
1.6998559000057867,0.37188720703125,-0.451263427734375,0.311431884765625,-0.748992919921875,0.0,-0.06103515625,-0.06103515625,0.44677734375,-0.80517578125,0.3975830078125,-295.0,148.0,-147.0,101698.0,-3.1030001640319824,0,0
1.7001308000035351,0.37188720703125,-0.451263427734375,0.311431884765625,-0.748992919921875,0.0,-0.06103515625,-0.06103515625,0.44677734375,-0.80517578125,0.3975830078125,-295.0,148.0,-147.0,101698.0,-3.1030001640319824,0,0
1.700203300002613,0.371856689453125,-0.451263427734375,0.311431884765625,-0.748992919921875,-0.06103515625,-0.1220703125,0.06103515625,0.44580078125,-0.8018798828125,0.3994140625,-295.0,148.0,-147.0,101698.0,-3.1030001640319824,0,0
1.7002611000061734,0.371856689453125,-0.451263427734375,0.311431884765625,-0.748992919921875,-0.18310546875,-0.244140625,-0.06103515625,0.4451904296875,-0.8016357421875,0.3974609375,-295.0,148.0,-147.0,101698.0,-3.1030001640319824,0,0
1.7003208000096492,0.37188720703125,-0.451263427734375,0.311431884765625,-0.748992919921875,0.1220703125,-0.06103515625,-0.18310546875,0.4429931640625,-0.802001953125,0.39892578125,-295.0,148.0,-147.0,101698.0,-3.1030001640319824,0,0
1.7003790000017034,0.37188720703125,-0.451263427734375,0.311431884765625,-0.748992919921875,0.18310546875,0.0,-0.18310546875,0.4439697265625,-0.804931640625,0.4007568359375,-295.0,148.0,-147.0,101698.0,-3.1030001640319824,0,0
1.7004569000127958,0.37188720703125,-0.451263427734375,0.31146240234375,-0.748992919921875,-0.06103515625,-0.18310546875,0.1220703125,0.4434814453125,-0.802001953125,0.3990478515625,-295.0,148.0,-147.0,101698.0,-3.1030001640319824,0,0
1.7005177000100957,0.37188720703125,-0.451263427734375,0.31146240234375,-0.748992919921875,0.06103515625,0.0,-0.06103515625,0.4443359375,-0.803466796875,0.3975830078125,-295.0,148.0,-147.0,101698.0,-3.1030001640319824,0,0
1.7615682000032393,0.37188720703125,-0.451263427734375,0.31146240234375,-0.748992919921875,-0.18310546875,-0.06103515625,-0.1220703125,0.4422607421875,-0.8018798828125,0.398681640625,-294.0,147.0,-146.0,101698.0,-3.1030001640319824,0,0
1.7616301000089152,0.371978759765625,-0.451324462890625,0.3114013671875,-0.74896240234375,0.244140625,-0.06103515625,-0.18310546875,0.44482421875,-0.7994384765625,0.3983154296875,-294.0,147.0,-146.0,101698.0,-3.1030001640319824,0,0
1.7616880000132369,0.371978759765625,-0.451324462890625,0.3114013671875,-0.74896240234375,0.18310546875,0.1220703125,-0.1220703125,0.443359375,-0.80029296875,0.3974609375,-294.0,147.0,-146.0,101698.0,-3.1030001640319824,0,0
1.7617441000038525,0.371978759765625,-0.451324462890625,0.3114013671875,-0.748931884765625,0.0,-0.244140625,-0.18310546875,0.443115234375,-0.80078125,0.39794921875,-294.0,147.0,-146.0,101698.0,-3.1030001640319824,0,0
1.7618018000066513,0.371978759765625,-0.451324462890625,0.3114013671875,-0.748931884765625,0.0,0.0,-0.06103515625,0.4429931640625,-0.8031005859375,0.3978271484375,-294.0,147.0,-146.0,101698.0,-3.1030001640319824,0,0
1.7619555999990553,0.371978759765625,-0.451324462890625,0.3114013671875,-0.748931884765625,-0.18310546875,0.06103515625,-0.06103515625,0.4432373046875,-0.802490234375,0.3974609375,-294.0,147.0,-146.0,101698.0,-3.1030001640319824,0,0
1.7620125000103144,0.371978759765625,-0.451324462890625,0.3114013671875,-0.748931884765625,-0.1220703125,-0.06103515625,-0.244140625,0.4425048828125,-0.8018798828125,0.39697265625,-294.0,147.0,-146.0,101698.0,-3.1030001640319824,0,0
1.7621108000021195,0.371978759765625,-0.451324462890625,0.3114013671875,-0.748931884765625,0.06103515625,-0.1220703125,0.0,0.4444580078125,-0.801513671875,0.3974609375,-294.0,147.0,-146.0,101698.0,-3.1030001640319824,0,0
1.7621698000002652,0.371978759765625,-0.451324462890625,0.311431884765625,-0.748931884765625,0.0,-0.06103515625,-0.18310546875,0.442626953125,-0.8026123046875,0.3978271484375,-294.0,147.0,-146.0,101698.0,-3.1030001640319824,0,0
1.7622269000130473,0.371978759765625,-0.451324462890625,0.311431884765625,-0.748931884765625,-0.30517578125,0.06103515625,-0.06103515625,0.4451904296875,-0.8026123046875,0.3961181640625,-294.0,147.0,-146.0,101698.0,-3.1000001430511475,0,0
1.762283000003663,0.371978759765625,-0.451324462890625,0.311431884765625,-0.748931884765625,-0.30517578125,0.06103515625,-0.06103515625,0.4451904296875,-0.8026123046875,0.3961181640625,-294.0,147.0,-146.0,101698.0,-3.1000001430511475,0,0
1.8408824000071036,0.371978759765625,-0.451324462890625,0.311431884765625,-0.748931884765625,-0.18310546875,-0.06103515625,-0.06103515625,0.444091796875,-0.802978515625,0.3966064453125,-294.0,147.0,-146.0,101698.0,-3.1000001430511475,0,0
1.8409489000041503,0.371978759765625,-0.451324462890625,0.311431884765625,-0.748931884765625,-0.18310546875,-0.1220703125,0.06103515625,0.443603515625,-0.802001953125,0.39794921875,-294.0,147.0,-146.0,101698.0,-3.1000001430511475,0,0
1.8410082000045804,0.371978759765625,-0.451324462890625,0.311431884765625,-0.748931884765625,-0.18310546875,-0.30517578125,0.0,0.4443359375,-0.8018798828125,0.398193359375,-294.0,147.0,-146.0,101698.0,-3.1000001430511475,0,0
1.8410669000004418,0.371978759765625,-0.451324462890625,0.311431884765625,-0.7489013671875,0.0,0.06103515625,-0.1220703125,0.4439697265625,-0.8017578125,0.3958740234375,-294.0,147.0,-146.0,101698.0,-3.1000001430511475,0,0
1.8411242000001948,0.371978759765625,-0.45135498046875,0.311431884765625,-0.7489013671875,-0.1220703125,-0.06103515625,0.18310546875,0.4454345703125,-0.8016357421875,0.39697265625,-294.0,147.0,-146.0,101698.0,-3.1000001430511475,0,0
1.8412491000053706,0.371978759765625,-0.45135498046875,0.311431884765625,-0.7489013671875,0.1220703125,0.0,-0.06103515625,0.4462890625,-0.8018798828125,0.396240234375,-294.0,147.0,-146.0,101698.0,-3.1000001430511475,0,0
1.8413128000102006,0.371978759765625,-0.45135498046875,0.311431884765625,-0.7489013671875,0.1220703125,0.0,-0.06103515625,0.4462890625,-0.8018798828125,0.396240234375,-294.0,147.0,-146.0,101698.0,-3.1000001430511475,0,0
1.8413701000099536,0.371978759765625,-0.45135498046875,0.311431884765625,-0.7489013671875,-0.1220703125,0.0,-0.06103515625,0.4442138671875,-0.8006591796875,0.3983154296875,-294.0,148.0,-146.0,101698.0,-3.1000001430511475,0,0
1.841426600003615,0.3720703125,-0.451416015625,0.311370849609375,-0.748870849609375,-0.1220703125,0.0,-0.06103515625,0.4442138671875,-0.8006591796875,0.3983154296875,-294.0,148.0,-146.0,101698.0,-3.1000001430511475,0,0
1.8414821000042139,0.3720703125,-0.451416015625,0.311370849609375,-0.748870849609375,0.1220703125,-0.06103515625,-0.06103515625,0.447021484375,-0.80224609375,0.39794921875,-294.0,148.0,-146.0,101698.0,-3.1000001430511475,0,0
1.8415383000101428,0.3720703125,-0.451416015625,0.311370849609375,-0.748870849609375,-0.1220703125,0.18310546875,-0.06103515625,0.4451904296875,-0.8035888671875,0.3970947265625,-294.0,148.0,-146.0,101698.0,-3.1000001430511475,0,0
1.888092900000629,0.3720703125,-0.451416015625,0.311370849609375,-0.74884033203125,0.18310546875,0.30517578125,0.0,0.4447021484375,-0.802734375,0.3980712890625,-294.0,148.0,-146.0,101698.0,-3.1000001430511475,0,0
1.8881634999997914,0.3720703125,-0.451416015625,0.311370849609375,-0.74884033203125,0.1220703125,-0.1220703125,-0.244140625,0.446044921875,-0.802978515625,0.3968505859375,-294.0,148.0,-146.0,101698.0,-3.1000001430511475,0,0
1.8882244000124047,0.3720703125,-0.451416015625,0.3114013671875,-0.74884033203125,0.06103515625,0.244140625,-0.18310546875,0.4405517578125,-0.802734375,0.3973388671875,-294.0,148.0,-146.0,101698.0,-3.1000001430511475,0,0
1.8882848000066588,0.3720703125,-0.451416015625,0.3114013671875,-0.74884033203125,0.1220703125,-0.18310546875,-0.1220703125,0.44482421875,-0.8026123046875,0.398681640625,-294.0,148.0,-146.0,101698.0,-3.1000001430511475,0,0
1.8883434000017587,0.3720703125,-0.451416015625,0.3114013671875,-0.74884033203125,-0.18310546875,0.0,-0.244140625,0.4444580078125,-0.801513671875,0.3966064453125,-294.0,148.0,-146.0,101698.0,-3.1000001430511475,0,0
1.888401200005319,0.3720703125,-0.451416015625,0.3114013671875,-0.74884033203125,-0.18310546875,0.0,-0.244140625,0.4444580078125,-0.801513671875,0.3966064453125,-294.0,148.0,-146.0,101698.0,-3.1000001430511475,0,0
1.8884591000096407,0.3720703125,-0.451416015625,0.3114013671875,-0.74884033203125,-0.18310546875,-0.244140625,-0.244140625,0.4447021484375,-0.8038330078125,0.3975830078125,-294.0,148.0,-146.0,101698.0,-3.1020002365112305,0,0
1.888900600009947,0.372039794921875,-0.451446533203125,0.3114013671875,-0.74884033203125,0.06103515625,-0.06103515625,-0.244140625,0.443603515625,-0.80078125,0.3973388671875,-294.0,148.0,-146.0,101698.0,-3.1020002365112305,0,0
1.8889665000024252,0.372039794921875,-0.451446533203125,0.3114013671875,-0.74884033203125,-0.06103515625,-0.1220703125,-0.244140625,0.4453125,-0.8026123046875,0.3968505859375,-294.0,148.0,-146.0,101698.0,-3.1020002365112305,0,0
1.889025100012077,0.372039794921875,-0.451446533203125,0.3114013671875,-0.74884033203125,0.18310546875,-0.06103515625,0.0,0.4444580078125,-0.8048095703125,0.3970947265625,-294.0,148.0,-146.0,101698.0,-3.1020002365112305,0,0
1.8890810000011697,0.372039794921875,-0.451446533203125,0.3114013671875,-0.74884033203125,0.0,0.06103515625,0.1220703125,0.444091796875,-0.801513671875,0.396484375,-294.0,148.0,-146.0,101698.0,-3.1020002365112305,0,0
1.8891380999993999,0.372039794921875,-0.451446533203125,0.311431884765625,-0.748809814453125,0.0,0.0,-0.1220703125,0.4442138671875,-0.803466796875,0.3975830078125,-294.0,148.0,-146.0,101698.0,-3.1020002365112305,0,0
1.8891940000030445,0.372039794921875,-0.451446533203125,0.3114013671875,-0.748809814453125,0.0,0.244140625,-0.1220703125,0.4434814453125,-0.8033447265625,0.3963623046875,-294.0,148.0,-146.0,101698.0,-3.1020002365112305,0,0
1.956939700001385,0.372039794921875,-0.451446533203125,0.3114013671875,-0.748809814453125,0.1220703125,0.30517578125,-0.18310546875,0.445068359375,-0.802001953125,0.3983154296875,-294.0,148.0,-146.0,101698.0,-3.1020002365112305,0,0
1.957004700001562,0.372039794921875,-0.451446533203125,0.3114013671875,-0.748809814453125,0.06103515625,-0.18310546875,-0.06103515625,0.443115234375,-0.80078125,0.3975830078125,-294.0,148.0,-146.0,101698.0,-3.1020002365112305,0,0
1.9570635000127368,0.372039794921875,-0.451446533203125,0.3114013671875,-0.748809814453125,0.18310546875,0.18310546875,0.0,0.4423828125,-0.8013916015625,0.3988037109375,-294.0,149.0,-147.0,101698.0,-3.1020002365112305,0,0
1.9571212000009837,0.37225341796875,-0.4515380859375,0.311309814453125,-0.74871826171875,0.06103515625,0.18310546875,0.0,0.4432373046875,-0.8023681640625,0.39794921875,-294.0,149.0,-147.0,101698.0,-3.1020002365112305,0,0
1.9571780000114813,0.37225341796875,-0.4515380859375,0.311309814453125,-0.74871826171875,0.0,-0.06103515625,0.0,0.4432373046875,-0.8013916015625,0.3968505859375,-294.0,149.0,-147.0,101698.0,-3.1020002365112305,0,0
1.9574643000087235,0.37225341796875,-0.4515380859375,0.311309814453125,-0.74871826171875,-0.244140625,0.18310546875,0.18310546875,0.4451904296875,-0.8026123046875,0.39697265625,-294.0,149.0,-147.0,101698.0,-3.1020002365112305,0,0
1.9575302000012016,0.37225341796875,-0.4515380859375,0.311279296875,-0.74871826171875,0.0,-0.1220703125,-0.1220703125,0.4464111328125,-0.801513671875,0.3985595703125,-294.0,149.0,-147.0,101698.0,-3.1020002365112305,0,0
1.9576290000113659,0.37225341796875,-0.4515380859375,0.311309814453125,-0.74871826171875,0.30517578125,0.1220703125,0.06103515625,0.443603515625,-0.8026123046875,0.398193359375,-294.0,149.0,-147.0,101698.0,-3.1020002365112305,0,0
1.9576869000011357,0.37225341796875,-0.4515380859375,0.311309814453125,-0.74871826171875,0.244140625,-0.244140625,0.0,0.44482421875,-0.8035888671875,0.3980712890625,-294.0,149.0,-147.0,101698.0,-3.1020002365112305,0,0
1.9577455000107875,0.37225341796875,-0.4515380859375,0.311309814453125,-0.74871826171875,0.244140625,-0.244140625,0.0,0.44482421875,-0.8035888671875,0.3980712890625,-294.0,149.0,-147.0,101698.0,-3.1020002365112305,0,0
1.957802000004449,0.37225341796875,-0.4515380859375,0.311309814453125,-0.74871826171875,0.18310546875,-0.1220703125,0.0,0.4434814453125,-0.8017578125,0.39697265625,-294.0,149.0,-147.0,101698.0,-3.1020002365112305,0,0
2.0315719000063837,0.37225341796875,-0.4515380859375,0.311309814453125,-0.74871826171875,0.18310546875,0.18310546875,-0.30517578125,0.4451904296875,-0.802734375,0.3985595703125,-294.0,149.0,-147.0,101697.0,-3.0990002155303955,0,0
2.031635899998946,0.37225341796875,-0.4515380859375,0.311309814453125,-0.74871826171875,0.1220703125,0.0,0.06103515625,0.4443359375,-0.8028564453125,0.3980712890625,-294.0,149.0,-147.0,101697.0,-3.0990002155303955,0,0
2.0316957000031834,0.37225341796875,-0.4515380859375,0.311309814453125,-0.74871826171875,0.18310546875,-0.06103515625,-0.06103515625,0.4439697265625,-0.801513671875,0.3978271484375,-294.0,149.0,-147.0,101697.0,-3.0990002155303955,0,0
2.031753300005221,0.37225341796875,-0.4515380859375,0.311309814453125,-0.74871826171875,0.1220703125,-0.1220703125,-0.18310546875,0.4451904296875,-0.8016357421875,0.3978271484375,-294.0,149.0,-147.0,101697.0,-3.0990002155303955,0,0
2.031810200001928,0.37225341796875,-0.451568603515625,0.311309814453125,-0.74871826171875,0.1220703125,0.18310546875,-0.06103515625,0.446044921875,-0.8033447265625,0.396728515625,-294.0,149.0,-147.0,101697.0,-3.0990002155303955,0,0
2.031884700001683,0.37225341796875,-0.451568603515625,0.311309814453125,-0.74871826171875,0.1220703125,0.18310546875,-0.06103515625,0.446044921875,-0.8033447265625,0.396728515625,-294.0,149.0,-147.0,101697.0,-3.0990002155303955,0,0
2.031941300010658,0.37225341796875,-0.451568603515625,0.311309814453125,-0.74871826171875,0.0,-0.30517578125,-0.06103515625,0.446044921875,-0.8016357421875,0.3997802734375,-294.0,149.0,-147.0,101697.0,-3.0990002155303955,0,0
2.0319978000043193,0.37225341796875,-0.451568603515625,0.311309814453125,-0.74871826171875,0.30517578125,0.06103515625,0.06103515625,0.443603515625,-0.802978515625,0.397216796875,-294.0,149.0,-147.0,101697.0,-3.0990002155303955,0,0
2.0320536000072025,0.37225341796875,-0.451568603515625,0.311309814453125,-0.74871826171875,-0.18310546875,-0.18310546875,-0.1220703125,0.443115234375,-0.7998046875,0.3978271484375,-294.0,149.0,-147.0,101697.0,-3.0990002155303955,0,0
2.0321107000054326,0.3724365234375,-0.451629638671875,0.311187744140625,-0.74859619140625,-0.18310546875,-0.18310546875,-0.1220703125,0.443115234375,-0.7998046875,0.3978271484375,-294.0,149.0,-147.0,101697.0,-3.0990002155303955,0,0
2.0321662000060314,0.3724365234375,-0.451629638671875,0.311187744140625,-0.74859619140625,0.06103515625,0.0,0.06103515625,0.4437255859375,-0.80224609375,0.3978271484375,-294.0,149.0,-147.0,101697.0,-3.0990002155303955,0,0
2.078782800002955,0.3724365234375,-0.451629638671875,0.311187744140625,-0.74859619140625,0.1220703125,0.06103515625,0.0,0.4429931640625,-0.801513671875,0.39794921875,-294.0,149.0,-147.0,101697.0,-3.0990002155303955,0,0
2.0788491999992402,0.3724365234375,-0.45166015625,0.311187744140625,-0.74859619140625,0.06103515625,0.244140625,0.0,0.44189453125,-0.80224609375,0.3953857421875,-294.0,149.0,-147.0,101697.0,-3.0990002155303955,0,0
2.0789096000080463,0.3724365234375,-0.45166015625,0.311187744140625,-0.74859619140625,-0.1220703125,0.1220703125,-0.1220703125,0.447021484375,-0.803955078125,0.3978271484375,-294.0,149.0,-147.0,101697.0,-3.0990002155303955,0,0
2.078969300011522,0.3724365234375,-0.45166015625,0.311187744140625,-0.74859619140625,-0.1220703125,-0.06103515625,-0.1220703125,0.44384765625,-0.8021240234375,0.398681640625,-294.0,149.0,-147.0,101697.0,-3.0990002155303955,0,0
2.0790285000111908,0.3724365234375,-0.45166015625,0.311187744140625,-0.74859619140625,-0.1220703125,-0.06103515625,-0.1220703125,0.44384765625,-0.8021240234375,0.398681640625,-294.0,149.0,-147.0,101697.0,-3.0990002155303955,0,0
2.0790866000024835,0.3724365234375,-0.45166015625,0.311187744140625,-0.74859619140625,0.18310546875,-0.244140625,-0.1220703125,0.443603515625,-0.8016357421875,0.3985595703125,-294.0,149.0,-147.0,101697.0,-3.0990002155303955,0,0
2.079144900009851,0.3724365234375,-0.45166015625,0.311187744140625,-0.74859619140625,0.06103515625,-0.18310546875,-0.1220703125,0.4432373046875,-0.801025390625,0.3968505859375,-294.0,149.0,-147.0,101697.0,-3.0990002155303955,0,0
2.0797841000021435,0.3724365234375,-0.45166015625,0.311187744140625,-0.74859619140625,0.1220703125,-0.06103515625,-0.1220703125,0.444580078125,-0.8021240234375,0.395751953125,-294.0,149.0,-147.0,101697.0,-3.0990002155303955,0,0
2.079847200002405,0.3724365234375,-0.45166015625,0.311187744140625,-0.74859619140625,0.244140625,0.06103515625,-0.1220703125,0.4437255859375,-0.7998046875,0.3973388671875,-294.0,149.0,-147.0,101698.0,-3.1020002365112305,0,0
2.0799075000104494,0.3724365234375,-0.45166015625,0.311187744140625,-0.74859619140625,-0.06103515625,0.06103515625,0.06103515625,0.443603515625,-0.80078125,0.398193359375,-294.0,149.0,-147.0,101698.0,-3.1020002365112305,0,0
2.079965600001742,0.3724365234375,-0.45166015625,0.311187744140625,-0.74859619140625,-0.1220703125,-0.18310546875,0.0,0.4443359375,-0.8028564453125,0.3988037109375,-294.0,149.0,-147.0,101698.0,-3.1020002365112305,0,0
2.080024200011394,0.3724365234375,-0.45166015625,0.311187744140625,-0.74859619140625,-0.30517578125,-0.06103515625,-0.06103515625,0.44384765625,-0.80224609375,0.3968505859375,-294.0,149.0,-147.0,101698.0,-3.1020002365112305,0,0
2.080091600000742,0.3724365234375,-0.45166015625,0.311187744140625,-0.74859619140625,0.1220703125,-0.18310546875,0.1220703125,0.4451904296875,-0.8017578125,0.3968505859375,-294.0,149.0,-147.0,101698.0,-3.1020002365112305,0,0
2.1467584000056377,0.3724365234375,-0.45166015625,0.311187744140625,-0.74859619140625,0.0,0.06103515625,0.1220703125,0.443115234375,-0.8023681640625,0.3961181640625,-294.0,149.0,-147.0,101698.0,-3.1020002365112305,0,0
2.1468221000104677,0.3724365234375,-0.45166015625,0.311187744140625,-0.74859619140625,0.0,0.0,-0.244140625,0.445556640625,-0.80322265625,0.3963623046875,-294.0,149.0,-147.0,101698.0,-3.1020002365112305,0,0
2.146879700012505,0.3724365234375,-0.451690673828125,0.311187744140625,-0.74859619140625,0.06103515625,-0.06103515625,0.06103515625,0.4466552734375,-0.8035888671875,0.3975830078125,-294.0,149.0,-147.0,101698.0,-3.1020002365112305,0,0
2.1469360000046436,0.3724365234375,-0.451690673828125,0.311187744140625,-0.74859619140625,-0.1220703125,-0.06103515625,-0.244140625,0.4462890625,-0.8013916015625,0.39794921875,-294.0,149.0,-147.0,101698.0,-3.1020002365112305,0,0
2.1470027000032132,0.372528076171875,-0.45172119140625,0.311126708984375,-0.74853515625,0.42724609375,0.06103515625,0.06103515625,0.4461669921875,-0.8017578125,0.3983154296875,-294.0,150.0,-148.0,101698.0,-3.1020002365112305,0,0
2.1470740000077058,0.372528076171875,-0.45172119140625,0.311126708984375,-0.74853515625,0.06103515625,-0.1220703125,-0.18310546875,0.4451904296875,-0.802978515625,0.3983154296875,-294.0,150.0,-148.0,101698.0,-3.1020002365112305,0,0
2.147131800011266,0.372528076171875,-0.45172119140625,0.311126708984375,-0.74853515625,-0.244140625,-0.06103515625,-0.244140625,0.4427490234375,-0.8033447265625,0.396240234375,-294.0,150.0,-148.0,101698.0,-3.1020002365112305,0,0
2.1472276999993483,0.372528076171875,-0.45172119140625,0.3111572265625,-0.74853515625,0.48828125,0.0,0.1220703125,0.44287109375,-0.8031005859375,0.39794921875,-294.0,150.0,-148.0,101698.0,-3.1020002365112305,0,0
2.1472846000106074,0.372528076171875,-0.45172119140625,0.3111572265625,-0.74853515625,0.48828125,0.0,0.1220703125,0.44287109375,-0.8031005859375,0.39794921875,-294.0,150.0,-148.0,101698.0,-3.1020002365112305,0,0
2.1473399000096833,0.372528076171875,-0.45172119140625,0.3111572265625,-0.74853515625,0.18310546875,-0.06103515625,0.0,0.4461669921875,-0.80322265625,0.3980712890625,-294.0,150.0,-148.0,101698.0,-3.1020002365112305,0,0
2.1473968000063905,0.372528076171875,-0.45172119140625,0.311126708984375,-0.74853515625,0.1220703125,0.18310546875,-0.18310546875,0.4461669921875,-0.8023681640625,0.398681640625,-294.0,150.0,-148.0,101698.0,-3.1020002365112305,0,0
2.2214405000122497,0.372528076171875,-0.451751708984375,0.3111572265625,-0.74853515625,0.0,-0.06103515625,0.18310546875,0.442138671875,-0.802490234375,0.3966064453125,-294.0,150.0,-148.0,101698.0,-3.1020002365112305,0,0
2.2215105000068434,0.372528076171875,-0.451751708984375,0.3111572265625,-0.74853515625,0.18310546875,0.0,-0.06103515625,0.4434814453125,-0.8017578125,0.396484375,-294.0,150.0,-148.0,101698.0,-3.1000001430511475,0,0
2.221571900008712,0.372528076171875,-0.451751708984375,0.3111572265625,-0.74853515625,-0.18310546875,-0.06103515625,0.1220703125,0.4447021484375,-0.8013916015625,0.3984375,-294.0,150.0,-148.0,101698.0,-3.1000001430511475,0,0
2.221632100001443,0.372528076171875,-0.451751708984375,0.3111572265625,-0.74853515625,0.1220703125,0.0,-0.1220703125,0.4432373046875,-0.8026123046875,0.3983154296875,-294.0,150.0,-148.0,101698.0,-3.1000001430511475,0,0
2.221690700011095,0.372528076171875,-0.451751708984375,0.3111572265625,-0.74853515625,0.1220703125,0.0,-0.1220703125,0.4432373046875,-0.8026123046875,0.3983154296875,-294.0,150.0,-148.0,101698.0,-3.1000001430511475,0,0
2.2227920000004815,0.372528076171875,-0.451751708984375,0.3111572265625,-0.74853515625,0.18310546875,-0.18310546875,-0.1220703125,0.4461669921875,-0.8033447265625,0.3956298828125,-294.0,150.0,-148.0,101698.0,-3.1000001430511475,0,0
2.2228601000097115,0.37249755859375,-0.451751708984375,0.311126708984375,-0.74853515625,0.06103515625,-0.18310546875,-0.1220703125,0.4449462890625,-0.8009033203125,0.396240234375,-294.0,150.0,-148.0,101698.0,-3.1000001430511475,0,0
2.2229183000017656,0.37249755859375,-0.451751708984375,0.311126708984375,-0.74853515625,-0.06103515625,0.1220703125,0.06103515625,0.445556640625,-0.8016357421875,0.39599609375,-294.0,150.0,-148.0,101698.0,-3.1000001430511475,0,0
2.2229752999992343,0.37249755859375,-0.451751708984375,0.311126708984375,-0.74853515625,0.3662109375,0.1220703125,0.06103515625,0.4437255859375,-0.802001953125,0.3985595703125,-294.0,150.0,-148.0,101698.0,-3.1000001430511475,0,0
2.2230333000043174,0.37249755859375,-0.451751708984375,0.311126708984375,-0.74853515625,0.0,-0.06103515625,-0.06103515625,0.445556640625,-0.8009033203125,0.397216796875,-294.0,150.0,-148.0,101698.0,-3.1000001430511475,0,0
2.223088500002632,0.37249755859375,-0.451751708984375,0.3111572265625,-0.74853515625,0.0,-0.06103515625,-0.06103515625,0.445556640625,-0.8009033203125,0.397216796875,-294.0,150.0,-148.0,101698.0,-3.1000001430511475,0,0
2.2740306000050623,0.37249755859375,-0.451751708984375,0.3111572265625,-0.74853515625,-0.1220703125,-0.18310546875,0.1220703125,0.442626953125,-0.802490234375,0.3975830078125,-294.0,150.0,-148.0,101698.0,-3.1000001430511475,0,0
2.2741001000104006,0.37261962890625,-0.451812744140625,0.31109619140625,-0.74847412109375,0.0,-0.06103515625,-0.1220703125,0.4439697265625,-0.80078125,0.396240234375,-294.0,150.0,-148.0,101698.0,-3.1000001430511475,0,0
2.274160300003132,0.372589111328125,-0.451812744140625,0.31109619140625,-0.74847412109375,-0.18310546875,-0.1220703125,0.1220703125,0.4453125,-0.8038330078125,0.397216796875,-294.0,150.0,-148.0,101698.0,-3.1000001430511475,0,0
2.274218500009738,0.372589111328125,-0.451812744140625,0.31109619140625,-0.74847412109375,-0.18310546875,-0.1220703125,0.1220703125,0.4453125,-0.8038330078125,0.397216796875,-294.0,150.0,-148.0,101698.0,-3.1000001430511475,0,0
2.2742768000025535,0.372589111328125,-0.451812744140625,0.31109619140625,-0.74847412109375,0.48828125,-0.1220703125,-0.06103515625,0.4444580078125,-0.8031005859375,0.3963623046875,-294.0,150.0,-148.0,101698.0,-3.1000001430511475,0,0
2.2743345000053523,0.372589111328125,-0.451812744140625,0.31109619140625,-0.748443603515625,-0.18310546875,-0.244140625,-0.06103515625,0.44482421875,-0.8048095703125,0.3975830078125,-294.0,150.0,-148.0,101698.0,-3.1000001430511475,0,0
2.274391700004344,0.372589111328125,-0.451812744140625,0.31109619140625,-0.748443603515625,-0.06103515625,-0.244140625,-0.244140625,0.44482421875,-0.803955078125,0.3970947265625,-294.0,150.0,-148.0,101698.0,-3.1000001430511475,0,0
2.274464000001899,0.37261962890625,-0.451812744140625,0.31109619140625,-0.748443603515625,0.1220703125,-0.06103515625,-0.06103515625,0.4429931640625,-0.803955078125,0.397216796875,-294.0,150.0,-148.0,101698.0,-3.1000001430511475,0,0
2.2745214000024134,0.372589111328125,-0.451812744140625,0.31109619140625,-0.748443603515625,-0.06103515625,0.06103515625,0.06103515625,0.4429931640625,-0.8035888671875,0.3975830078125,-294.0,150.0,-148.0,101698.0,-3.1000001430511475,0,0
2.2745791000052122,0.372589111328125,-0.451812744140625,0.31109619140625,-0.748443603515625,0.0,0.0,-0.244140625,0.4454345703125,-0.80322265625,0.396728515625,-294.0,150.0,-148.0,101698.0,-3.1030001640319824,0,0
2.2746623000130057,0.372589111328125,-0.45184326171875,0.311126708984375,-0.748443603515625,0.42724609375,0.1220703125,-0.1220703125,0.4422607421875,-0.8017578125,0.3975830078125,-294.0,150.0,-148.0,101698.0,-3.1030001640319824,0,0
2.27472340001259,0.372589111328125,-0.45184326171875,0.311126708984375,-0.748443603515625,0.0,0.0,0.0,0.44677734375,-0.802978515625,0.3953857421875,-294.0,150.0,-148.0,101698.0,-3.1030001640319824,0,0
2.2747802000085358,0.372589111328125,-0.45184326171875,0.311126708984375,-0.748443603515625,0.0,0.0,0.0,0.44677734375,-0.802978515625,0.3953857421875,-294.0,150.0,-148.0,101698.0,-3.1030001640319824,0,0
2.339323799998965,0.372589111328125,-0.45184326171875,0.311126708984375,-0.748443603515625,0.244140625,-0.06103515625,0.0,0.44580078125,-0.8026123046875,0.3975830078125,-294.0,150.0,-148.0,101698.0,-3.1030001640319824,0,0
2.3393854000023566,0.372589111328125,-0.45184326171875,0.311126708984375,-0.748443603515625,0.06103515625,0.1220703125,-0.244140625,0.4442138671875,-0.802734375,0.398681640625,-294.0,150.0,-148.0,101698.0,-3.1030001640319824,0,0
2.3394441999989795,0.372589111328125,-0.45184326171875,0.311126708984375,-0.748443603515625,0.1220703125,0.18310546875,-0.06103515625,0.444580078125,-0.80517578125,0.3978271484375,-294.0,150.0,-148.0,101698.0,-3.1030001640319824,0,0
2.339501599999494,0.372589111328125,-0.45184326171875,0.311126708984375,-0.748443603515625,0.06103515625,-0.1220703125,0.0,0.443603515625,-0.8031005859375,0.3988037109375,-294.0,150.0,-148.0,101698.0,-3.1030001640319824,0,0
2.3395579000061844,0.37261962890625,-0.45184326171875,0.311126708984375,-0.748443603515625,0.18310546875,-0.06103515625,-0.06103515625,0.441650390625,-0.8031005859375,0.3963623046875,-294.0,150.0,-148.0,101698.0,-3.1030001640319824,0,0
2.343800300004659,0.372589111328125,-0.45184326171875,0.311126708984375,-0.7484130859375,0.30517578125,0.0,-0.18310546875,0.4447021484375,-0.8033447265625,0.395751953125,-295.0,150.0,-148.0,101698.0,-3.1030001640319824,0,0
2.343859100001282,0.372589111328125,-0.45184326171875,0.311126708984375,-0.7484130859375,-0.244140625,-0.244140625,-0.06103515625,0.4427490234375,-0.802734375,0.3980712890625,-295.0,150.0,-148.0,101698.0,-3.1030001640319824,0,0
2.3439163000002736,0.372589111328125,-0.45184326171875,0.311126708984375,-0.7484130859375,-0.244140625,-0.244140625,-0.06103515625,0.4427490234375,-0.802734375,0.3980712890625,-295.0,150.0,-148.0,101698.0,-3.1030001640319824,0,0
2.343972400005441,0.372589111328125,-0.45184326171875,0.311126708984375,-0.7484130859375,-0.06103515625,-0.1220703125,-0.06103515625,0.4459228515625,-0.8016357421875,0.3963623046875,-295.0,150.0,-148.0,101698.0,-3.1030001640319824,0,0
2.3440285000106087,0.372589111328125,-0.451873779296875,0.3111572265625,-0.7484130859375,0.244140625,-0.244140625,-0.244140625,0.4447021484375,-0.802490234375,0.3963623046875,-295.0,150.0,-148.0,101698.0,-3.1030001640319824,0,0
2.3440855000080774,0.372589111328125,-0.451873779296875,0.311126708984375,-0.7484130859375,0.06103515625,0.1220703125,0.1220703125,0.447265625,-0.801025390625,0.396728515625,-295.0,150.0,-148.0,101698.0,-3.1030001640319824,0,0
2.398390100002871,0.372589111328125,-0.451873779296875,0.311126708984375,-0.7484130859375,-0.1220703125,-0.18310546875,0.0,0.4464111328125,-0.7998046875,0.395263671875,-295.0,150.0,-148.0,101698.0,-3.1030001640319824,0,0
2.3984555000060936,0.372589111328125,-0.451904296875,0.311126708984375,-0.7484130859375,0.1220703125,-0.1220703125,-0.244140625,0.444580078125,-0.800537109375,0.3946533203125,-295.0,150.0,-148.0,101698.0,-3.1030001640319824,0,0
2.398514900007285,0.372589111328125,-0.451904296875,0.311126708984375,-0.7484130859375,0.18310546875,0.06103515625,-0.1220703125,0.443603515625,-0.8017578125,0.3956298828125,-295.0,150.0,-148.0,101698.0,-3.1010000705718994,0,0
2.3985730999993393,0.372589111328125,-0.451904296875,0.311126708984375,-0.7484130859375,0.18310546875,0.06103515625,-0.1220703125,0.443603515625,-0.8017578125,0.3956298828125,-295.0,150.0,-148.0,101698.0,-3.1010000705718994,0,0
2.398631400006707,0.37255859375,-0.451904296875,0.3111572265625,-0.7484130859375,0.18310546875,-0.1220703125,0.1220703125,0.4444580078125,-0.802001953125,0.39501953125,-295.0,150.0,-148.0,101698.0,-3.1010000705718994,0,0
2.399382700008573,0.37255859375,-0.451904296875,0.3111572265625,-0.7484130859375,0.1220703125,-0.30517578125,0.1220703125,0.4443359375,-0.8031005859375,0.3963623046875,-295.0,150.0,-148.0,101698.0,-3.1010000705718994,0,0
2.3994491000048583,0.37255859375,-0.451904296875,0.3111572265625,-0.7484130859375,-0.18310546875,0.0,0.0,0.4443359375,-0.801513671875,0.3968505859375,-295.0,150.0,-148.0,101698.0,-3.1010000705718994,0,0
2.399549300011131,0.37255859375,-0.451904296875,0.3111572265625,-0.7484130859375,0.1220703125,0.0,-0.06103515625,0.44384765625,-0.8026123046875,0.39697265625,-295.0,150.0,-148.0,101698.0,-3.1010000705718994,0,0
2.3996060000063153,0.37255859375,-0.451934814453125,0.3111572265625,-0.748382568359375,-0.06103515625,-0.18310546875,-0.06103515625,0.4437255859375,-0.8033447265625,0.3946533203125,-295.0,150.0,-148.0,101698.0,-3.1010000705718994,0,0
2.3996640000113985,0.37255859375,-0.451934814453125,0.3111572265625,-0.748382568359375,0.06103515625,-0.1220703125,-0.06103515625,0.44677734375,-0.7998046875,0.397216796875,-295.0,150.0,-148.0,101698.0,-3.1010000705718994,0,0
2.39972050000506,0.37255859375,-0.451934814453125,0.3111572265625,-0.748382568359375,0.06103515625,0.1220703125,0.06103515625,0.4454345703125,-0.804443359375,0.3983154296875,-295.0,150.0,-148.0,101698.0,-3.1010000705718994,0,0
2.4670065000100294,0.37255859375,-0.451934814453125,0.3111572265625,-0.748382568359375,0.18310546875,0.0,-0.06103515625,0.444580078125,-0.8031005859375,0.396484375,-295.0,150.0,-148.0,101698.0,-3.1010000705718994,0,0
2.467072100000223,0.37255859375,-0.451934814453125,0.3111572265625,-0.748382568359375,0.18310546875,0.0,-0.06103515625,0.444580078125,-0.8031005859375,0.396484375,-295.0,150.0,-148.0,101698.0,-3.1010000705718994,0,0
2.4671288000099594,0.37255859375,-0.451934814453125,0.3111572265625,-0.748382568359375,0.18310546875,0.0,-0.06103515625,0.444580078125,-0.8031005859375,0.396484375,-295.0,150.0,-148.0,101698.0,-3.1010000705718994,0,0
2.467185300003621,0.372650146484375,-0.451995849609375,0.31109619140625,-0.748321533203125,-0.18310546875,0.06103515625,0.0,0.446044921875,-0.803955078125,0.396240234375,-295.0,148.0,-147.0,101698.0,-3.1010000705718994,0,0
2.4672382999997353,0.372650146484375,-0.451995849609375,0.311126708984375,-0.748321533203125,-0.18310546875,0.0,-0.06103515625,0.4442138671875,-0.8035888671875,0.3974609375,-295.0,148.0,-147.0,101698.0,-3.1010000705718994,0,0
2.4672901000012644,0.372650146484375,-0.451995849609375,0.311126708984375,-0.748321533203125,-0.1220703125,-0.06103515625,0.18310546875,0.4444580078125,-0.8011474609375,0.3955078125,-295.0,148.0,-147.0,101698.0,-3.1010000705718994,0,0
2.4673428000096465,0.372650146484375,-0.451995849609375,0.311126708984375,-0.748321533203125,0.1220703125,-0.06103515625,0.06103515625,0.4442138671875,-0.8057861328125,0.396240234375,-295.0,148.0,-147.0,101698.0,-3.1010000705718994,0,0
2.4677324000076624,0.372650146484375,-0.451995849609375,0.311126708984375,-0.748321533203125,0.06103515625,-0.06103515625,-0.06103515625,0.444580078125,-0.8048095703125,0.3974609375,-295.0,148.0,-147.0,101698.0,-3.1010000705718994,0,0
2.4677895000058925,0.372650146484375,-0.451995849609375,0.311126708984375,-0.748321533203125,-0.48828125,-0.54931640625,0.06103515625,0.4439697265625,-0.8023681640625,0.3980712890625,-295.0,148.0,-147.0,101698.0,-3.1010000705718994,0,0
2.467842500002007,0.372650146484375,-0.451995849609375,0.311126708984375,-0.748321533203125,-0.18310546875,-0.18310546875,-0.1220703125,0.4443359375,-0.80126953125,0.3973388671875,-295.0,148.0,-147.0,101698.0,-3.1010000705718994,0,0
2.46789610000269,0.372650146484375,-0.451995849609375,0.311126708984375,-0.748321533203125,0.244140625,-0.18310546875,-0.1220703125,0.4443359375,-0.802001953125,0.3983154296875,-295.0,148.0,-147.0,101698.0,-3.1010000705718994,0,0
2.4679572000022745,0.372650146484375,-0.451995849609375,0.311126708984375,-0.748321533203125,0.244140625,-0.18310546875,-0.1220703125,0.4443359375,-0.802001953125,0.3983154296875,-295.0,148.0,-147.0,101698.0,-3.1010000705718994,0,0
2.4680101000121795,0.372650146484375,-0.451995849609375,0.311126708984375,-0.748321533203125,0.18310546875,0.18310546875,-0.1220703125,0.446044921875,-0.803466796875,0.3961181640625,-295.0,148.0,-147.0,101698.0,-3.1020002365112305,0,0
2.530448300007265,0.372650146484375,-0.451995849609375,0.311126708984375,-0.748321533203125,0.1220703125,0.18310546875,0.06103515625,0.443359375,-0.803955078125,0.3992919921875,-295.0,148.0,-147.0,101698.0,-3.1020002365112305,0,0
2.5305074000061722,0.372650146484375,-0.451995849609375,0.311126708984375,-0.748321533203125,-0.18310546875,-0.1220703125,-0.18310546875,0.4453125,-0.80322265625,0.3980712890625,-295.0,148.0,-147.0,101698.0,-3.1020002365112305,0,0
2.530561600011424,0.372650146484375,-0.451995849609375,0.311126708984375,-0.748291015625,0.1220703125,-0.1220703125,0.18310546875,0.445068359375,-0.804443359375,0.399169921875,-295.0,148.0,-147.0,101698.0,-3.1020002365112305,0,0
2.53061770000204,0.372650146484375,-0.451995849609375,0.311126708984375,-0.748321533203125,-0.06103515625,-0.06103515625,0.0,0.443359375,-0.802490234375,0.39892578125,-295.0,148.0,-147.0,101698.0,-3.1020002365112305,0,0
2.530674599998747,0.372650146484375,-0.451995849609375,0.311126708984375,-0.748321533203125,0.0,-0.1220703125,-0.18310546875,0.44287109375,-0.80029296875,0.3984375,-295.0,148.0,-147.0,101698.0,-3.1020002365112305,0,0
2.5307395000127144,0.372650146484375,-0.451995849609375,0.311126708984375,-0.748321533203125,-0.06103515625,-0.1220703125,0.0,0.4451904296875,-0.800048828125,0.3970947265625,-295.0,148.0,-147.0,101698.0,-3.1020002365112305,0,0
2.530897000004188,0.372650146484375,-0.451995849609375,0.311126708984375,-0.748321533203125,-0.06103515625,-0.1220703125,0.0,0.4451904296875,-0.800048828125,0.3970947265625,-295.0,148.0,-147.0,101698.0,-3.1020002365112305,0,0
2.5309515000117244,0.372650146484375,-0.4520263671875,0.311126708984375,-0.748291015625,0.30517578125,0.3662109375,0.0,0.4464111328125,-0.803955078125,0.3966064453125,-294.0,148.0,-147.0,101698.0,-3.1020002365112305,0,0
2.5310033000132535,0.372650146484375,-0.4520263671875,0.311126708984375,-0.748291015625,-0.1220703125,0.0,-0.06103515625,0.4476318359375,-0.8028564453125,0.395263671875,-294.0,148.0,-147.0,101698.0,-3.1020002365112305,0,0
2.5310564000101294,0.372650146484375,-0.4520263671875,0.311126708984375,-0.748291015625,-0.1220703125,0.0,-0.18310546875,0.4439697265625,-0.8026123046875,0.3975830078125,-294.0,148.0,-147.0,101698.0,-3.1020002365112305,0,0
2.5311084000131814,0.372650146484375,-0.4520263671875,0.311126708984375,-0.748291015625,-0.06103515625,0.06103515625,-0.244140625,0.4454345703125,-0.8035888671875,0.3973388671875,-294.0,148.0,-147.0,101698.0,-3.1020002365112305,0,0
2.589684800012037,0.372650146484375,-0.4520263671875,0.311126708984375,-0.748291015625,0.48828125,-0.06103515625,-0.244140625,0.4468994140625,-0.7999267578125,0.39794921875,-294.0,148.0,-147.0,101698.0,-3.1020002365112305,0,0
2.5897430000040913,0.372650146484375,-0.4520263671875,0.311126708984375,-0.748291015625,0.06103515625,0.0,0.06103515625,0.44482421875,-0.8021240234375,0.3975830078125,-294.0,148.0,-147.0,101698.0,-3.1020002365112305,0,0
2.5897993000107817,0.372650146484375,-0.4520263671875,0.311126708984375,-0.748291015625,0.06103515625,0.0,0.06103515625,0.44482421875,-0.8021240234375,0.3975830078125,-294.0,148.0,-147.0,101698.0,-3.1020002365112305,0,0
2.589853800003766,0.372650146484375,-0.4520263671875,0.311126708984375,-0.748291015625,0.1220703125,0.0,0.06103515625,0.4444580078125,-0.8037109375,0.3966064453125,-294.0,148.0,-147.0,101698.0,-3.1020002365112305,0,0
2.5899090000020806,0.372650146484375,-0.4520263671875,0.311126708984375,-0.748291015625,0.1220703125,0.0,0.06103515625,0.4444580078125,-0.8037109375,0.3966064453125,-294.0,148.0,-147.0,101698.0,-3.1000001430511475,0,0
2.5934682000079192,0.372650146484375,-0.4520263671875,0.311126708984375,-0.748291015625,0.244140625,0.18310546875,0.1220703125,0.4459228515625,-0.8023681640625,0.3988037109375,-294.0,148.0,-147.0,101698.0,-3.1000001430511475,0,0
2.5935291000059806,0.372650146484375,-0.4520263671875,0.311126708984375,-0.748291015625,0.18310546875,-0.1220703125,0.06103515625,0.4443359375,-0.802978515625,0.3995361328125,-294.0,148.0,-147.0,101698.0,-3.1000001430511475,0,0
2.593583400011994,0.372650146484375,-0.4520263671875,0.311126708984375,-0.748291015625,-0.06103515625,-0.1220703125,-0.244140625,0.4444580078125,-0.8038330078125,0.3988037109375,-294.0,148.0,-147.0,101698.0,-3.1000001430511475,0,0
2.593637400001171,0.372650146484375,-0.4520263671875,0.3111572265625,-0.748291015625,0.30517578125,0.244140625,0.0,0.4425048828125,-0.80419921875,0.399169921875,-294.0,148.0,-147.0,101698.0,-3.1000001430511475,0,0
2.5936905999988085,0.372650146484375,-0.451995849609375,0.311126708984375,-0.748291015625,-0.30517578125,0.06103515625,-0.1220703125,0.4443359375,-0.8018798828125,0.3980712890625,-294.0,148.0,-147.0,101698.0,-3.1000001430511475,0,0
2.5937437000102364,0.372650146484375,-0.451995849609375,0.311126708984375,-0.748291015625,0.30517578125,0.0,-0.06103515625,0.44482421875,-0.8040771484375,0.3973388671875,-294.0,148.0,-147.0,101698.0,-3.1000001430511475,0,0
2.593798000001698,0.372650146484375,-0.451995849609375,0.3111572265625,-0.748291015625,-0.06103515625,0.1220703125,-0.18310546875,0.443603515625,-0.802978515625,0.3970947265625,-294.0,148.0,-147.0,101698.0,-3.1000001430511475,0,0
2.6571056000102544,0.372650146484375,-0.451995849609375,0.3111572265625,-0.748291015625,-0.06103515625,0.1220703125,-0.18310546875,0.443603515625,-0.802978515625,0.3970947265625,-294.0,148.0,-147.0,101698.0,-3.1000001430511475,0,0
2.657167199999094,0.372650146484375,-0.451995849609375,0.311126708984375,-0.748291015625,-0.1220703125,-0.244140625,-0.1220703125,0.4454345703125,-0.8023681640625,0.3990478515625,-294.0,148.0,-147.0,101698.0,-3.1000001430511475,0,0
2.6572237000073073,0.372650146484375,-0.451995849609375,0.311126708984375,-0.748291015625,0.06103515625,-0.06103515625,0.18310546875,0.4471435546875,-0.804443359375,0.3994140625,-293.0,149.0,-148.0,101698.0,-3.1000001430511475,0,0
2.657279600010952,0.372650146484375,-0.451995849609375,0.311126708984375,-0.748291015625,0.0,0.1220703125,0.1220703125,0.4454345703125,-0.802734375,0.39892578125,-293.0,149.0,-148.0,101698.0,-3.1000001430511475,0,0
2.657333400013158,0.37274169921875,-0.452056884765625,0.311065673828125,-0.748260498046875,-0.06103515625,0.18310546875,-0.06103515625,0.445068359375,-0.802978515625,0.3978271484375,-293.0,149.0,-148.0,101698.0,-3.1000001430511475,0,0
2.6573866000107955,0.37274169921875,-0.452056884765625,0.311065673828125,-0.748260498046875,-0.18310546875,0.06103515625,0.244140625,0.4451904296875,-0.803466796875,0.398681640625,-293.0,149.0,-148.0,101698.0,-3.1000001430511475,0,0
2.6574532000086037,0.372772216796875,-0.4520263671875,0.311065673828125,-0.748260498046875,0.1220703125,-0.1220703125,-0.06103515625,0.4429931640625,-0.803955078125,0.3992919921875,-293.0,149.0,-148.0,101698.0,-3.1000001430511475,0,0
2.6575060000031954,0.372772216796875,-0.4520263671875,0.311065673828125,-0.748260498046875,-0.18310546875,-0.18310546875,-0.06103515625,0.44482421875,-0.8017578125,0.3985595703125,-293.0,149.0,-148.0,101698.0,-3.1000001430511475,0,0
2.657559200000833,0.372772216796875,-0.4520263671875,0.311065673828125,-0.748260498046875,0.244140625,-0.06103515625,0.06103515625,0.4449462890625,-0.802978515625,0.3973388671875,-293.0,149.0,-148.0,101698.0,-3.1000001430511475,0,0
2.657612400013022,0.372772216796875,-0.4520263671875,0.311065673828125,-0.748260498046875,0.244140625,-0.06103515625,0.06103515625,0.4449462890625,-0.802978515625,0.3973388671875,-293.0,149.0,-148.0,101698.0,-3.1000001430511475,0,0
2.657666800005245,0.372772216796875,-0.4520263671875,0.311065673828125,-0.748260498046875,-0.1220703125,0.0,-0.3662109375,0.443359375,-0.8004150390625,0.3970947265625,-293.0,149.0,-148.0,101698.0,-3.1000001430511475,0,0
2.6577965000033146,0.372772216796875,-0.4520263671875,0.311065673828125,-0.748260498046875,0.18310546875,-0.18310546875,-0.18310546875,0.443115234375,-0.79931640625,0.398193359375,-293.0,149.0,-148.0,101698.0,-3.1000001430511475,0,0
2.720041000007768,0.372772216796875,-0.4520263671875,0.311065673828125,-0.748260498046875,0.18310546875,0.1220703125,0.18310546875,0.44384765625,-0.8035888671875,0.4005126953125,-293.0,149.0,-148.0,101698.0,-3.1020002365112305,0,0
2.7201098000077764,0.372772216796875,-0.4520263671875,0.311065673828125,-0.748260498046875,-0.06103515625,0.06103515625,-0.1220703125,0.44384765625,-0.80224609375,0.3975830078125,-293.0,149.0,-148.0,101698.0,-3.1020002365112305,0,0
2.720291800011182,0.372772216796875,-0.4520263671875,0.311065673828125,-0.748260498046875,0.0,0.06103515625,0.06103515625,0.4449462890625,-0.800537109375,0.397216796875,-293.0,149.0,-148.0,101698.0,-3.1020002365112305,0,0
2.720425700012129,0.372772216796875,-0.4520263671875,0.311065673828125,-0.748291015625,-0.18310546875,-0.1220703125,0.0,0.44580078125,-0.799560546875,0.39892578125,-293.0,149.0,-148.0,101698.0,-3.1020002365112305,0,0
2.720520100003341,0.372772216796875,-0.4520263671875,0.31103515625,-0.748291015625,0.0,-0.06103515625,0.1220703125,0.4462890625,-0.8011474609375,0.3985595703125,-293.0,149.0,-148.0,101698.0,-3.1020002365112305,0,0
2.7206116000015754,0.372772216796875,-0.4520263671875,0.31103515625,-0.748291015625,0.0,-0.06103515625,0.1220703125,0.4462890625,-0.8011474609375,0.3985595703125,-293.0,149.0,-148.0,101698.0,-3.1020002365112305,0,0
2.720667700006743,0.372772216796875,-0.4520263671875,0.31103515625,-0.748291015625,0.06103515625,0.18310546875,0.0,0.4456787109375,-0.802734375,0.39794921875,-293.0,149.0,-148.0,101698.0,-3.1020002365112305,0,0
2.720735800001421,0.372772216796875,-0.4520263671875,0.31103515625,-0.748291015625,0.1220703125,0.0,-0.1220703125,0.4429931640625,-0.8011474609375,0.399169921875,-293.0,149.0,-148.0,101698.0,-3.1020002365112305,0,0
2.7207923000096343,0.372772216796875,-0.4520263671875,0.31103515625,-0.748291015625,-0.1220703125,0.18310546875,0.0,0.4439697265625,-0.80322265625,0.398681640625,-293.0,149.0,-148.0,101698.0,-3.1020002365112305,0,0
2.720860500005074,0.372772216796875,-0.451995849609375,0.31103515625,-0.748291015625,-0.18310546875,-0.1220703125,0.06103515625,0.4443359375,-0.804443359375,0.3984375,-295.0,150.0,-150.0,101698.0,-3.1020002365112305,0,0
2.7209309000027133,0.372650146484375,-0.45196533203125,0.31109619140625,-0.74835205078125,0.244140625,0.0,-0.18310546875,0.4464111328125,-0.803955078125,0.3997802734375,-295.0,150.0,-150.0,101698.0,-3.1020002365112305,0,0
2.720989000008558,0.372650146484375,-0.45196533203125,0.31109619140625,-0.748321533203125,-0.06103515625,-0.1220703125,-0.1220703125,0.444091796875,-0.802001953125,0.396484375,-295.0,150.0,-150.0,101698.0,-3.1020002365112305,0,0
2.7794744000129867,0.3726806640625,-0.45196533203125,0.31109619140625,-0.74835205078125,0.0,-0.06103515625,-0.18310546875,0.443115234375,-0.802978515625,0.3992919921875,-295.0,150.0,-150.0,101698.0,-3.1020002365112305,0,0
2.7795382000040263,0.3726806640625,-0.45196533203125,0.31109619140625,-0.748321533203125,0.18310546875,-0.18310546875,0.0,0.444580078125,-0.8033447265625,0.3983154296875,-295.0,150.0,-150.0,101698.0,-3.1020002365112305,0,0
2.779597900007502,0.3726806640625,-0.45196533203125,0.31109619140625,-0.748321533203125,-0.244140625,-0.18310546875,0.06103515625,0.445068359375,-0.804443359375,0.399169921875,-295.0,150.0,-150.0,101698.0,-3.1020002365112305,0,0
2.7796541999996407,0.3726806640625,-0.451934814453125,0.31109619140625,-0.748321533203125,-0.06103515625,-0.244140625,-0.06103515625,0.4442138671875,-0.804443359375,0.3988037109375,-295.0,150.0,-150.0,101698.0,-3.1020002365112305,0,0
2.781588900004863,0.3726806640625,-0.451934814453125,0.31109619140625,-0.74835205078125,0.06103515625,-0.1220703125,0.0,0.444580078125,-0.8028564453125,0.39892578125,-295.0,150.0,-150.0,101698.0,-3.1020002365112305,0,0
2.781649100012146,0.3726806640625,-0.451934814453125,0.311126708984375,-0.748321533203125,-0.1220703125,-0.18310546875,-0.06103515625,0.4449462890625,-0.804443359375,0.3978271484375,-295.0,150.0,-150.0,101698.0,-3.1020002365112305,0,0
2.781708400012576,0.3726806640625,-0.451934814453125,0.311126708984375,-0.748321533203125,-0.1220703125,0.0,0.06103515625,0.44287109375,-0.803955078125,0.398193359375,-295.0,150.0,-150.0,101698.0,-3.1020002365112305,0,0
2.781767899999977,0.3726806640625,-0.451934814453125,0.311126708984375,-0.74835205078125,0.06103515625,0.0,-0.18310546875,0.4434814453125,-0.8016357421875,0.39892578125,-295.0,150.0,-150.0,101698.0,-3.1020002365112305,0,0
2.781867900004727,0.3726806640625,-0.451934814453125,0.311126708984375,-0.74835205078125,0.06103515625,0.06103515625,-0.06103515625,0.444580078125,-0.8017578125,0.398193359375,-295.0,150.0,-150.0,101698.0,-3.1020002365112305,0,0
2.781934900005581,0.3726806640625,-0.451934814453125,0.311126708984375,-0.74835205078125,0.1220703125,0.06103515625,0.0,0.4434814453125,-0.8017578125,0.3975830078125,-295.0,150.0,-150.0,101698.0,-3.1020002365112305,0,0
2.7819956000021193,0.3726806640625,-0.451934814453125,0.311126708984375,-0.74835205078125,0.1220703125,0.06103515625,0.0,0.4434814453125,-0.8017578125,0.3975830078125,-295.0,150.0,-150.0,101698.0,-3.1020002365112305,0,0
2.8490371000079904,0.3726806640625,-0.451934814453125,0.31109619140625,-0.74835205078125,0.06103515625,0.0,-0.18310546875,0.445068359375,-0.8006591796875,0.3988037109375,-295.0,150.0,-150.0,101698.0,-3.1020002365112305,0,0
2.849101100000553,0.3726806640625,-0.451934814453125,0.31109619140625,-0.74835205078125,0.06103515625,-0.06103515625,-0.06103515625,0.445556640625,-0.8016357421875,0.4002685546875,-295.0,150.0,-150.0,101698.0,-3.1020002365112305,0,0
2.8491594000079203,0.3726806640625,-0.451934814453125,0.31109619140625,-0.74835205078125,-0.18310546875,0.0,-0.18310546875,0.4453125,-0.8017578125,0.398681640625,-295.0,150.0,-150.0,101698.0,-3.1020002365112305,0,0
2.849214200003189,0.3726806640625,-0.451934814453125,0.31109619140625,-0.74835205078125,0.06103515625,0.0,-0.1220703125,0.44677734375,-0.8016357421875,0.3980712890625,-295.0,150.0,-150.0,101698.0,-3.1020002365112305,0,0
2.849269700003788,0.3726806640625,-0.451934814453125,0.31109619140625,-0.74835205078125,0.06103515625,0.0,-0.1220703125,0.44677734375,-0.8016357421875,0.3980712890625,-294.0,149.0,-151.0,101697.0,-3.1000001430511475,0,0
2.849323500005994,0.372467041015625,-0.45184326171875,0.311187744140625,-0.74847412109375,0.0,-0.244140625,0.06103515625,0.4462890625,-0.800537109375,0.3984375,-294.0,149.0,-151.0,101697.0,-3.1000001430511475,0,0
2.849392300006002,0.372467041015625,-0.45184326171875,0.311187744140625,-0.74847412109375,0.30517578125,0.244140625,-0.1220703125,0.4453125,-0.80322265625,0.398681640625,-294.0,149.0,-151.0,101697.0,-3.1000001430511475,0,0
2.8494845000095665,0.37249755859375,-0.45184326171875,0.311187744140625,-0.74847412109375,0.06103515625,-0.06103515625,0.1220703125,0.444580078125,-0.8033447265625,0.4002685546875,-294.0,149.0,-151.0,101697.0,-3.1000001430511475,0,0
2.849580000009155,0.37249755859375,-0.45184326171875,0.311187744140625,-0.74847412109375,0.06103515625,-0.06103515625,0.1220703125,0.444580078125,-0.8033447265625,0.4002685546875,-294.0,149.0,-151.0,101697.0,-3.1000001430511475,0,0
2.849637800012715,0.37249755859375,-0.45184326171875,0.311187744140625,-0.74847412109375,0.244140625,0.0,0.0,0.4444580078125,-0.802978515625,0.3985595703125,-294.0,149.0,-151.0,101697.0,-3.1000001430511475,0,0
2.8496905000065453,0.37249755859375,-0.45184326171875,0.311187744140625,-0.74847412109375,-0.06103515625,-0.06103515625,-0.06103515625,0.445068359375,-0.8033447265625,0.3983154296875,-294.0,149.0,-151.0,101697.0,-3.1000001430511475,0,0
2.8497452000010526,0.37249755859375,-0.451812744140625,0.311187744140625,-0.74847412109375,0.06103515625,0.0,0.18310546875,0.4456787109375,-0.8037109375,0.398681640625,-294.0,149.0,-151.0,101697.0,-3.1000001430511475,0,0
2.910755600008997,0.37249755859375,-0.45184326171875,0.311187744140625,-0.74847412109375,0.1220703125,-0.06103515625,0.0,0.4459228515625,-0.804443359375,0.3974609375,-294.0,149.0,-151.0,101697.0,-3.1000001430511475,0,0
2.910821199999191,0.37249755859375,-0.451812744140625,0.311187744140625,-0.74847412109375,-0.1220703125,-0.30517578125,-0.1220703125,0.4454345703125,-0.80126953125,0.3975830078125,-294.0,149.0,-151.0,101697.0,-3.1000001430511475,0,0
2.91087590000825,0.37249755859375,-0.451812744140625,0.311187744140625,-0.74847412109375,0.18310546875,0.06103515625,0.1220703125,0.4437255859375,-0.80419921875,0.3994140625,-294.0,149.0,-151.0,101697.0,-3.1000001430511475,0,0
2.9109307000035187,0.37249755859375,-0.451812744140625,0.311187744140625,-0.74847412109375,0.1220703125,-0.06103515625,-0.3662109375,0.4468994140625,-0.8021240234375,0.4005126953125,-294.0,149.0,-151.0,101697.0,-3.1000001430511475,0,0
2.9109840000019176,0.37249755859375,-0.451812744140625,0.311187744140625,-0.74847412109375,0.1220703125,-0.06103515625,-0.3662109375,0.4468994140625,-0.8021240234375,0.4005126953125,-294.0,149.0,-151.0,101697.0,-3.1000001430511475,0,0
2.911704500002088,0.37249755859375,-0.451812744140625,0.311187744140625,-0.74847412109375,0.244140625,0.06103515625,0.18310546875,0.44384765625,-0.8009033203125,0.3984375,-294.0,149.0,-151.0,101697.0,-3.1000001430511475,0,0
2.911762900010217,0.37249755859375,-0.451812744140625,0.311187744140625,-0.74847412109375,-0.18310546875,-0.06103515625,0.06103515625,0.4443359375,-0.80322265625,0.3974609375,-294.0,149.0,-151.0,101697.0,-3.1000001430511475,0,0
2.91181730000244,0.37249755859375,-0.451812744140625,0.311187744140625,-0.74847412109375,0.0,0.1220703125,-0.18310546875,0.4434814453125,-0.80322265625,0.3984375,-294.0,149.0,-151.0,101697.0,-3.1000001430511475,0,0
2.911871500007692,0.37249755859375,-0.451812744140625,0.31121826171875,-0.74847412109375,0.06103515625,-0.1220703125,0.0,0.4420166015625,-0.8046875,0.399658203125,-294.0,149.0,-151.0,101697.0,-3.1000001430511475,0,0
