Time stamp(sec),quaternion_0,quaternion_1,quaternion_2,quaternion_3,roll_angular_rate,pitch_angular_rate,yaw_angular_rate,acc_X,acc_Y,acc_Z,mag_X,mag_Y,mag_Z,pressure,altitude
1940.655019,-0.8272705078125,0.0284423828125,0.04718017578125,0.559051513671875,0.0,0.3662109375,0.18310546875,0.1102294921875,0.0059814453125,0.9990234375,-261.0,103.0,-8.0,101942.0,-5.127000331878662,0,0
1940.661052,-0.8272705078125,0.0284423828125,0.04718017578125,0.559051513671875,0.0,0.3662109375,0.18310546875,0.1102294921875,0.0059814453125,0.9990234375,-261.0,103.0,-8.0,101942.0,-5.127000331878662,0,0
1940.667995,-0.8272705078125,0.0284423828125,0.04718017578125,0.559051513671875,-0.06103515625,0.1220703125,-0.1220703125,0.1116943359375,0.004150390625,0.996826171875,-261.0,103.0,-8.0,101942.0,-5.127000331878662,0,0
1940.67502,-0.8272705078125,0.0284423828125,0.04718017578125,0.559051513671875,0.18310546875,0.30517578125,0.06103515625,0.110595703125,0.003173828125,0.9991455078125,-261.0,103.0,-8.0,101942.0,-5.127000331878662,0,0
1940.681999,-0.8272705078125,0.028472900390625,0.04718017578125,0.559051513671875,0.18310546875,0.06103515625,-0.244140625,0.10986328125,0.0042724609375,0.9998779296875,-261.0,103.0,-8.0,101942.0,-5.127000331878662,0,0
1940.689016,-0.8272705078125,0.028472900390625,0.04718017578125,0.559051513671875,-0.244140625,0.18310546875,0.06103515625,0.1103515625,0.00732421875,1.0001220703125,-261.0,103.0,-8.0,101942.0,-5.127000331878662,0,0
1940.695997,-0.8272705078125,0.0284423828125,0.04718017578125,0.559051513671875,-0.06103515625,0.18310546875,0.06103515625,0.1103515625,0.0064697265625,0.999267578125,-261.0,103.0,-8.0,101942.0,-5.127000331878662,0,0
1940.702997,-0.8272705078125,0.0284423828125,0.04718017578125,0.559051513671875,0.0,0.18310546875,-0.06103515625,0.10791015625,0.006103515625,0.999267578125,-261.0,103.0,-8.0,101942.0,-5.127000331878662,0,0
1940.710022,-0.8272705078125,0.0284423828125,0.04718017578125,0.559051513671875,-0.1220703125,0.1220703125,0.1220703125,0.1094970703125,0.00537109375,0.999755859375,-260.0,102.0,-8.0,101942.0,-5.127000331878662,0,0
1940.717001,-0.8272705078125,0.0284423828125,0.04718017578125,0.559051513671875,0.0,0.30517578125,0.06103515625,0.10986328125,0.004638671875,0.9998779296875,-260.0,102.0,-8.0,101942.0,-5.127000331878662,0,0
1940.724015,-0.8272705078125,0.0284423828125,0.04718017578125,0.559051513671875,0.06103515625,0.244140625,-0.06103515625,0.1131591796875,0.0067138671875,0.9970703125,-260.0,102.0,-8.0,101942.0,-5.127000331878662,0,0
1940.737995,-0.8272705078125,0.0284423828125,0.04718017578125,0.559051513671875,0.244140625,0.1220703125,-0.06103515625,0.111572265625,0.00439453125,0.99853515625,-260.0,102.0,-8.0,101942.0,-5.127000331878662,0,0
1940.74502,-0.8272705078125,0.0284423828125,0.04718017578125,0.559051513671875,0.06103515625,0.244140625,-0.1220703125,0.1092529296875,0.0069580078125,0.998291015625,-260.0,102.0,-8.0,101942.0,-5.127000331878662,0,0
1940.751053,-0.8272705078125,0.0284423828125,0.04718017578125,0.559051513671875,0.06103515625,0.244140625,-0.1220703125,0.1092529296875,0.0069580078125,0.998291015625,-260.0,102.0,-8.0,101942.0,-5.127000331878662,0,0
1940.758,-0.8272705078125,0.0284423828125,0.04718017578125,0.559051513671875,0.18310546875,0.6103515625,0.1220703125,0.1094970703125,0.008056640625,0.9969482421875,-260.0,102.0,-8.0,101942.0,-5.127000331878662,0,0
1940.76502,-0.8272705078125,0.0284423828125,0.04718017578125,0.559051513671875,0.30517578125,0.48828125,0.06103515625,0.11083984375,0.005859375,0.9984130859375,-260.0,102.0,-8.0,101942.0,-5.127000331878662,0,0
1940.771999,-0.8272705078125,0.0284423828125,0.04718017578125,0.559051513671875,0.0,0.3662109375,0.1220703125,0.1103515625,0.00634765625,0.9984130859375,-260.0,102.0,-8.0,101942.0,-5.127000331878662,0,0
1940.779016,-0.8272705078125,0.0284423828125,0.047210693359375,0.559051513671875,0.06103515625,0.30517578125,0.06103515625,0.111328125,0.0076904296875,1.000732421875,-260.0,102.0,-8.0,101942.0,-5.127000331878662,0,0
1940.785998,-0.8272705078125,0.0284423828125,0.04718017578125,0.559051513671875,0.0,0.30517578125,0.1220703125,0.10888671875,0.007568359375,1.0001220703125,-260.0,102.0,-8.0,101942.0,-5.127000331878662,0,0
1940.792997,-0.8272705078125,0.0284423828125,0.04718017578125,0.559051513671875,0.1220703125,0.42724609375,-0.30517578125,0.1103515625,0.005126953125,0.9989013671875,-260.0,102.0,-8.0,101942.0,-5.127000331878662,0,0
1940.800022,-0.8272705078125,0.0284423828125,0.04718017578125,0.559051513671875,-0.244140625,0.42724609375,0.18310546875,0.1104736328125,0.0069580078125,1.0,-260.0,102.0,-8.0,101942.0,-5.12600040435791,0,0
1940.807001,-0.8272705078125,0.0284423828125,0.047210693359375,0.559051513671875,0.18310546875,0.30517578125,-0.06103515625,0.112060546875,0.005126953125,0.99951171875,-260.0,102.0,-9.0,101942.0,-5.12600040435791,0,0
1940.814015,-0.8272705078125,0.0284423828125,0.047210693359375,0.559051513671875,0.06103515625,0.244140625,0.06103515625,0.1103515625,0.0057373046875,0.999755859375,-260.0,102.0,-9.0,101942.0,-5.12600040435791,0,0
1940.821,-0.8272705078125,0.0284423828125,0.047210693359375,0.559051513671875,0.0,0.42724609375,-0.1220703125,0.110595703125,0.0052490234375,0.9974365234375,-260.0,102.0,-9.0,101942.0,-5.12600040435791,0,0
1940.827999,-0.8272705078125,0.0284423828125,0.047210693359375,0.559051513671875,-0.18310546875,0.18310546875,0.18310546875,0.1090087890625,0.0054931640625,0.9976806640625,-260.0,102.0,-9.0,101942.0,-5.12600040435791,0,0
1940.83502,-0.8272705078125,0.0284423828125,0.047210693359375,0.559051513671875,-0.06103515625,0.244140625,-0.06103515625,0.1107177734375,0.0057373046875,0.9991455078125,-260.0,102.0,-9.0,101942.0,-5.12600040435791,0,0
1940.842003,-0.8272705078125,0.028411865234375,0.04718017578125,0.559051513671875,0.06103515625,0.244140625,0.06103515625,0.110107421875,0.00732421875,0.997802734375,-260.0,102.0,-9.0,101942.0,-5.12600040435791,0,0
1940.848036,-0.8272705078125,0.028411865234375,0.04718017578125,0.559051513671875,0.06103515625,0.244140625,0.06103515625,0.110107421875,0.00732421875,0.997802734375,-260.0,102.0,-9.0,101942.0,-5.12600040435791,0,0
1940.85502,-0.8272705078125,0.028411865234375,0.04718017578125,0.559051513671875,0.30517578125,0.244140625,0.0,0.109130859375,0.0047607421875,0.9981689453125,-260.0,102.0,-9.0,101942.0,-5.12600040435791,0,0
1940.861999,-0.8272705078125,0.028411865234375,0.04718017578125,0.559051513671875,0.06103515625,0.244140625,0.18310546875,0.1099853515625,0.005615234375,0.99853515625,-260.0,102.0,-9.0,101942.0,-5.12600040435791,0,0
1940.869016,-0.8272705078125,0.028411865234375,0.04718017578125,0.559051513671875,-0.18310546875,0.42724609375,-0.06103515625,0.10791015625,0.0057373046875,0.997314453125,-260.0,102.0,-9.0,101942.0,-5.12600040435791,0,0
1940.875998,-0.8272705078125,0.028411865234375,0.04718017578125,0.559051513671875,0.1220703125,0.48828125,-0.06103515625,0.109619140625,0.00732421875,0.9974365234375,-260.0,102.0,-9.0,101942.0,-5.12600040435791,0,0
1940.882997,-0.8272705078125,0.028411865234375,0.047149658203125,0.559051513671875,0.0,0.06103515625,0.18310546875,0.109619140625,0.00439453125,1.0001220703125,-260.0,102.0,-9.0,101942.0,-5.12600040435791,0,0
1940.890022,-0.8272705078125,0.0284423828125,0.047149658203125,0.559051513671875,0.18310546875,0.244140625,0.1220703125,0.111083984375,0.0030517578125,0.999267578125,-260.0,102.0,-9.0,101942.0,-5.12600040435791,0,0
1940.897001,-0.8272705078125,0.0284423828125,0.047149658203125,0.559051513671875,0.244140625,0.1220703125,-0.1220703125,0.1092529296875,0.0042724609375,0.999755859375,-260.0,102.0,-9.0,101942.0,-5.12600040435791,0,0
1940.917995,-0.8272705078125,0.0284423828125,0.047149658203125,0.559051513671875,-0.18310546875,0.1220703125,-0.18310546875,0.11181640625,0.0059814453125,0.997314453125,-261.0,102.0,-9.0,101942.0,-5.127000331878662,0,0
1940.925019,-0.8272705078125,0.028411865234375,0.047149658203125,0.559051513671875,0.244140625,0.1220703125,-0.18310546875,0.1123046875,0.005615234375,0.998779296875,-261.0,102.0,-9.0,101942.0,-5.127000331878662,0,0
1940.932003,-0.8272705078125,0.028411865234375,0.047149658203125,0.559051513671875,-0.06103515625,0.244140625,-0.18310546875,0.1090087890625,0.0062255859375,0.9976806640625,-261.0,102.0,-9.0,101942.0,-5.127000331878662,0,0
1940.938036,-0.8272705078125,0.028411865234375,0.047149658203125,0.559051513671875,-0.06103515625,0.244140625,-0.18310546875,0.1090087890625,0.0062255859375,0.9976806640625,-261.0,102.0,-9.0,101942.0,-5.127000331878662,0,0
1940.94502,-0.8272705078125,0.028411865234375,0.047149658203125,0.559051513671875,0.0,0.1220703125,0.0,0.109619140625,0.0048828125,1.0,-261.0,102.0,-9.0,101942.0,-5.127000331878662,0,0
1940.951999,-0.8272705078125,0.028411865234375,0.04718017578125,0.559051513671875,-0.06103515625,0.1220703125,0.18310546875,0.1119384765625,0.005615234375,0.9986572265625,-261.0,102.0,-9.0,101942.0,-5.127000331878662,0,0
1940.959016,-0.8272705078125,0.028411865234375,0.04718017578125,0.559051513671875,0.06103515625,0.42724609375,-0.18310546875,0.1116943359375,0.00537109375,1.0,-261.0,102.0,-9.0,101942.0,-5.127000331878662,0,0
1940.965998,-0.8272705078125,0.028411865234375,0.04718017578125,0.559051513671875,-0.244140625,0.30517578125,0.1220703125,0.11083984375,0.0064697265625,0.9986572265625,-261.0,102.0,-9.0,101942.0,-5.127000331878662,0,0
1940.972997,-0.8272705078125,0.028411865234375,0.047149658203125,0.559051513671875,-0.244140625,0.244140625,0.18310546875,0.1082763671875,0.0042724609375,0.9989013671875,-261.0,102.0,-9.0,101942.0,-5.127000331878662,0,0
1940.980022,-0.8272705078125,0.028411865234375,0.04718017578125,0.559051513671875,-0.30517578125,0.30517578125,-0.1220703125,0.1116943359375,0.0054931640625,0.999267578125,-261.0,102.0,-9.0,101942.0,-5.127000331878662,0,0
1941.000996,-0.8272705078125,0.028411865234375,0.04718017578125,0.559051513671875,0.18310546875,0.18310546875,-0.244140625,0.1104736328125,0.0068359375,1.00048828125,-261.0,102.0,-9.0,101942.0,-5.127000331878662,0,0
1941.007995,-0.8272705078125,0.028411865234375,0.04718017578125,0.559051513671875,0.06103515625,0.244140625,-0.18310546875,0.1102294921875,0.0054931640625,0.9993896484375,-261.0,103.0,-8.0,101942.0,-5.127000331878662,0,0
1941.015019,-0.82733154296875,0.028411865234375,0.04718017578125,0.558990478515625,-0.1220703125,0.06103515625,0.0,0.1082763671875,0.0057373046875,0.999267578125,-261.0,103.0,-8.0,101942.0,-5.127000331878662,0,0
1941.022003,-0.82733154296875,0.028411865234375,0.04718017578125,0.558990478515625,-0.06103515625,0.244140625,-0.06103515625,0.11083984375,0.008056640625,0.9976806640625,-261.0,103.0,-8.0,101942.0,-5.127000331878662,0,0
1941.029018,-0.82733154296875,0.028411865234375,0.047149658203125,0.558990478515625,0.06103515625,0.42724609375,0.1220703125,0.110107421875,0.00439453125,0.997802734375,-261.0,103.0,-8.0,101942.0,-5.127000331878662,0,0
1941.035047,-0.82733154296875,0.028411865234375,0.047149658203125,0.558990478515625,0.06103515625,0.42724609375,0.1220703125,0.110107421875,0.00439453125,0.997802734375,-261.0,103.0,-8.0,101942.0,-5.127000331878662,0,0
1941.041999,-0.82733154296875,0.028411865234375,0.047149658203125,0.558990478515625,0.1220703125,0.3662109375,0.06103515625,0.1090087890625,0.001953125,0.9998779296875,-261.0,103.0,-8.0,101942.0,-5.127000331878662,0,0
1941.049016,-0.82733154296875,0.028411865234375,0.047149658203125,0.558990478515625,-0.1220703125,0.18310546875,-0.18310546875,0.1104736328125,0.0050048828125,1.0001220703125,-261.0,103.0,-8.0,101942.0,-5.127000331878662,0,0
1941.055998,-0.82733154296875,0.028411865234375,0.047149658203125,0.558990478515625,0.18310546875,0.1220703125,-0.06103515625,0.10986328125,0.0054931640625,0.9984130859375,-261.0,103.0,-8.0,101942.0,-5.127000331878662,0,0
1941.062997,-0.82733154296875,0.028411865234375,0.047149658203125,0.558990478515625,-0.1220703125,0.244140625,0.06103515625,0.111328125,0.005126953125,0.997314453125,-261.0,103.0,-8.0,101942.0,-5.127000331878662,0,0
1941.070022,-0.82733154296875,0.028411865234375,0.047149658203125,0.558990478515625,-0.244140625,0.244140625,0.1220703125,0.1080322265625,0.0062255859375,1.0008544921875,-261.0,103.0,-8.0,101942.0,-5.127000331878662,0,0
1941.077001,-0.82733154296875,0.028411865234375,0.047149658203125,0.558990478515625,0.06103515625,0.1220703125,0.18310546875,0.1099853515625,0.007080078125,0.999267578125,-261.0,103.0,-8.0,101942.0,-5.127000331878662,0,0
1941.084015,-0.82733154296875,0.02838134765625,0.047149658203125,0.558990478515625,-0.06103515625,0.244140625,0.06103515625,0.1094970703125,0.0052490234375,0.997802734375,-261.0,103.0,-8.0,101942.0,-5.127000331878662,0,0
1941.091,-0.82733154296875,0.02838134765625,0.047149658203125,0.558990478515625,0.0,0.30517578125,-0.06103515625,0.1097412109375,0.006103515625,0.9979248046875,-261.0,103.0,-8.0,101942.0,-5.127000331878662,0,0
1941.097999,-0.82733154296875,0.02838134765625,0.047149658203125,0.558990478515625,-0.06103515625,0.244140625,0.0,0.10986328125,0.0057373046875,0.998291015625,-261.0,103.0,-8.0,101942.0,-5.127000331878662,0,0
1941.10502,-0.82733154296875,0.02838134765625,0.047149658203125,0.558990478515625,-0.06103515625,0.1220703125,-0.06103515625,0.1092529296875,0.0057373046875,0.9981689453125,-261.0,102.0,-6.0,101942.0,-5.127000331878662,0,0
1941.112003,-0.82733154296875,0.02838134765625,0.047119140625,0.558990478515625,0.0,0.18310546875,-0.1220703125,0.1094970703125,0.0047607421875,0.9989013671875,-261.0,102.0,-6.0,101942.0,-5.127000331878662,0,0
1941.119018,-0.82733154296875,0.028411865234375,0.047149658203125,0.558990478515625,0.0,0.42724609375,0.0,0.1116943359375,0.0037841796875,0.9986572265625,-261.0,102.0,-6.0,101942.0,-5.127000331878662,0,0
1941.125051,-0.82733154296875,0.028411865234375,0.047149658203125,0.558990478515625,0.0,0.42724609375,0.0,0.1116943359375,0.0037841796875,0.9986572265625,-261.0,102.0,-6.0,101942.0,-5.127000331878662,0,0
1941.131999,-0.82733154296875,0.028411865234375,0.047149658203125,0.558990478515625,0.0,0.244140625,0.244140625,0.1104736328125,0.0062255859375,0.99951171875,-261.0,102.0,-6.0,101942.0,-5.127000331878662,0,0
1941.139016,-0.82733154296875,0.028411865234375,0.047149658203125,0.558990478515625,0.18310546875,0.244140625,-0.06103515625,0.1103515625,0.006103515625,0.9969482421875,-261.0,102.0,-6.0,101942.0,-5.127000331878662,0,0
1941.145998,-0.82733154296875,0.028411865234375,0.047149658203125,0.558990478515625,-0.06103515625,0.42724609375,0.1220703125,0.1102294921875,0.008056640625,0.9984130859375,-261.0,102.0,-6.0,101942.0,-5.127000331878662,0,0
1941.152997,-0.82733154296875,0.028411865234375,0.047149658203125,0.558990478515625,-0.06103515625,0.48828125,0.06103515625,0.1097412109375,0.0048828125,0.9981689453125,-261.0,102.0,-6.0,101942.0,-5.12600040435791,0,0
1941.174015,-0.82733154296875,0.02838134765625,0.047149658203125,0.558990478515625,0.0,0.244140625,0.06103515625,0.1097412109375,0.008056640625,0.9984130859375,-261.0,102.0,-6.0,101942.0,-5.12600040435791,0,0
1941.180995,-0.82733154296875,0.02838134765625,0.047149658203125,0.558990478515625,0.0,0.30517578125,0.30517578125,0.1094970703125,0.00830078125,0.9976806640625,-261.0,102.0,-6.0,101942.0,-5.12600040435791,0,0
1941.187995,-0.82733154296875,0.028411865234375,0.047149658203125,0.558990478515625,-0.1220703125,0.18310546875,-0.06103515625,0.1114501953125,0.0045166015625,1.0,-261.0,102.0,-6.0,101942.0,-5.12600040435791,0,0
1941.195019,-0.82733154296875,0.028411865234375,0.047149658203125,0.558990478515625,0.0,0.06103515625,-0.06103515625,0.1107177734375,0.0059814453125,1.000244140625,-261.0,102.0,-6.0,101942.0,-5.12600040435791,0,0
1941.202003,-0.82733154296875,0.02838134765625,0.047149658203125,0.558990478515625,0.0,0.1220703125,0.18310546875,0.1075439453125,0.0037841796875,1.0013427734375,-261.0,102.0,-6.0,101942.0,-5.12600040435791,0,0
1941.209018,-0.8272705078125,0.028411865234375,0.047149658203125,0.559051513671875,-0.1220703125,0.1220703125,-0.06103515625,0.1119384765625,0.0062255859375,0.9996337890625,-261.0,101.0,-6.0,101942.0,-5.12600040435791,0,0
1941.215997,-0.8272705078125,0.028411865234375,0.047149658203125,0.559051513671875,-0.1220703125,0.244140625,-0.1220703125,0.1092529296875,0.003662109375,0.9979248046875,-261.0,101.0,-6.0,101942.0,-5.12600040435791,0,0
1941.222025,-0.8272705078125,0.028411865234375,0.047149658203125,0.559051513671875,-0.1220703125,0.244140625,-0.1220703125,0.1092529296875,0.003662109375,0.9979248046875,-261.0,101.0,-6.0,101942.0,-5.12600040435791,0,0
1941.229016,-0.8272705078125,0.028411865234375,0.047149658203125,0.559051513671875,-0.1220703125,0.3662109375,-0.1220703125,0.110107421875,0.0093994140625,1.0,-261.0,101.0,-6.0,101942.0,-5.12600040435791,0,0
1941.235997,-0.8272705078125,0.02838134765625,0.047149658203125,0.559051513671875,0.1220703125,0.244140625,0.1220703125,0.1099853515625,0.0074462890625,0.9991455078125,-261.0,101.0,-6.0,101942.0,-5.12600040435791,0,0
1941.242997,-0.8272705078125,0.02838134765625,0.047149658203125,0.559051513671875,0.0,0.30517578125,0.06103515625,0.1112060546875,0.006591796875,1.00048828125,-261.0,101.0,-6.0,101942.0,-5.12600040435791,0,0
1941.264015,-0.8272705078125,0.02838134765625,0.047149658203125,0.559051513671875,-0.1220703125,0.42724609375,-0.1220703125,0.10791015625,0.0068359375,0.9991455078125,-261.0,101.0,-6.0,101942.0,-5.125000476837158,0,0
1941.270995,-0.8272705078125,0.02838134765625,0.047149658203125,0.559051513671875,0.0,0.42724609375,-0.06103515625,0.1104736328125,0.0072021484375,0.9998779296875,-261.0,101.0,-6.0,101942.0,-5.125000476837158,0,0
1941.277995,-0.8272705078125,0.02838134765625,0.047149658203125,0.559051513671875,0.244140625,0.18310546875,0.1220703125,0.1109619140625,0.0035400390625,0.9998779296875,-261.0,101.0,-6.0,101942.0,-5.125000476837158,0,0
1941.285019,-0.8272705078125,0.02838134765625,0.047149658203125,0.559051513671875,0.0,0.18310546875,0.1220703125,0.1107177734375,0.005126953125,1.0001220703125,-261.0,101.0,-6.0,101942.0,-5.125000476837158,0,0
1941.292003,-0.8272705078125,0.02838134765625,0.047149658203125,0.559051513671875,0.0,0.1220703125,0.18310546875,0.110107421875,0.0057373046875,0.99755859375,-261.0,101.0,-6.0,101942.0,-5.125000476837158,0,0
1941.299018,-0.8272705078125,0.02838134765625,0.047149658203125,0.559051513671875,0.0,0.48828125,-0.18310546875,0.1075439453125,0.0059814453125,0.9993896484375,-261.0,101.0,-6.0,101942.0,-5.125000476837158,0,0
1941.305997,-0.8272705078125,0.02838134765625,0.047149658203125,0.559051513671875,0.244140625,0.3662109375,0.0,0.1094970703125,0.006103515625,0.997802734375,-261.0,102.0,-5.0,101942.0,-5.125000476837158,0,0
1941.312025,-0.8272705078125,0.02838134765625,0.047149658203125,0.559051513671875,0.244140625,0.3662109375,0.0,0.1094970703125,0.006103515625,0.997802734375,-261.0,102.0,-5.0,101942.0,-5.125000476837158,0,0
1941.319016,-0.8272705078125,0.02838134765625,0.047149658203125,0.559051513671875,0.30517578125,0.244140625,-0.06103515625,0.1109619140625,0.003662109375,0.9990234375,-261.0,102.0,-5.0,101942.0,-5.125000476837158,0,0
1941.325998,-0.8272705078125,0.02838134765625,0.047149658203125,0.559051513671875,-0.06103515625,0.244140625,0.1220703125,0.1107177734375,0.0048828125,0.997314453125,-261.0,102.0,-5.0,101942.0,-5.125000476837158,0,0
1941.332997,-0.8272705078125,0.02838134765625,0.047149658203125,0.559051513671875,-0.18310546875,0.3662109375,-0.1220703125,0.10888671875,0.0042724609375,0.9991455078125,-261.0,102.0,-5.0,101942.0,-5.125000476837158,0,0
1941.340022,-0.8272705078125,0.02838134765625,0.047149658203125,0.559051513671875,-0.18310546875,0.18310546875,-0.18310546875,0.1104736328125,0.0078125,0.998046875,-261.0,102.0,-5.0,101942.0,-5.125000476837158,0,0
1941.347001,-0.8272705078125,0.02838134765625,0.047149658203125,0.559051513671875,0.06103515625,0.06103515625,0.0,0.1103515625,0.006103515625,0.9979248046875,-261.0,102.0,-5.0,101942.0,-5.125000476837158,0,0
1941.354015,-0.8272705078125,0.02838134765625,0.047149658203125,0.559051513671875,-0.06103515625,0.30517578125,-0.06103515625,0.109130859375,0.0072021484375,0.996826171875,-261.0,102.0,-5.0,101942.0,-5.12600040435791,0,0
1941.361,-0.8272705078125,0.02838134765625,0.047149658203125,0.559051513671875,-0.06103515625,0.1220703125,0.1220703125,0.10888671875,0.005126953125,0.998291015625,-261.0,102.0,-5.0,101942.0,-5.12600040435791,0,0
1941.367999,-0.8272705078125,0.02838134765625,0.047149658203125,0.559051513671875,0.1220703125,0.3662109375,0.1220703125,0.11083984375,0.0042724609375,0.9996337890625,-261.0,102.0,-5.0,101942.0,-5.12600040435791,0,0
1941.37502,-0.8272705078125,0.02838134765625,0.047149658203125,0.559051513671875,-0.06103515625,0.42724609375,-0.1220703125,0.113525390625,0.0068359375,0.9989013671875,-261.0,102.0,-5.0,101942.0,-5.12600040435791,0,0
1941.382003,-0.8272705078125,0.02838134765625,0.047149658203125,0.559051513671875,-0.06103515625,0.18310546875,-0.1220703125,0.1087646484375,0.0076904296875,1.00048828125,-261.0,102.0,-5.0,101942.0,-5.12600040435791,0,0
1941.389019,-0.8272705078125,0.02838134765625,0.047149658203125,0.559051513671875,0.0,0.18310546875,0.0,0.1094970703125,0.0054931640625,0.999267578125,-261.0,102.0,-5.0,101942.0,-5.12600040435791,0,0
1941.395997,-0.8272705078125,0.02838134765625,0.047149658203125,0.559051513671875,0.0,0.18310546875,-0.1220703125,0.1104736328125,0.005615234375,0.9989013671875,-261.0,102.0,-5.0,101942.0,-5.12600040435791,0,0
1941.40203,-0.8272705078125,0.02838134765625,0.047149658203125,0.559051513671875,0.0,0.18310546875,-0.1220703125,0.1104736328125,0.005615234375,0.9989013671875,-261.0,102.0,-5.0,101942.0,-5.12600040435791,0,0
1941.409016,-0.8272705078125,0.02838134765625,0.047149658203125,0.559051513671875,0.06103515625,0.244140625,0.0,0.1092529296875,0.0064697265625,0.998779296875,-261.0,103.0,-5.0,101942.0,-5.12600040435791,0,0
1941.415998,-0.82733154296875,0.028350830078125,0.047149658203125,0.558990478515625,0.0,0.30517578125,-0.06103515625,0.111328125,0.0059814453125,0.99951171875,-261.0,103.0,-5.0,101942.0,-5.12600040435791,0,0
1941.437001,-0.82733154296875,0.02838134765625,0.047149658203125,0.558990478515625,0.244140625,0.18310546875,0.244140625,0.1104736328125,0.005859375,0.998779296875,-261.0,103.0,-5.0,101942.0,-5.12600040435791,0,0
1941.444015,-0.82733154296875,0.02838134765625,0.047149658203125,0.558990478515625,-0.1220703125,0.30517578125,0.06103515625,0.1085205078125,0.0067138671875,0.9998779296875,-261.0,103.0,-5.0,101942.0,-5.12600040435791,0,0
1941.450996,-0.82733154296875,0.02838134765625,0.047149658203125,0.558990478515625,-0.18310546875,0.18310546875,0.244140625,0.111083984375,0.0047607421875,0.99951171875,-261.0,103.0,-5.0,101942.0,-5.12600040435791,0,0
1941.457995,-0.82733154296875,0.02838134765625,0.047149658203125,0.558990478515625,0.0,0.3662109375,0.06103515625,0.11328125,0.007080078125,0.9989013671875,-261.0,103.0,-5.0,101942.0,-5.127000331878662,0,0
1941.465019,-0.82733154296875,0.02838134765625,0.04718017578125,0.558990478515625,0.18310546875,0.244140625,0.06103515625,0.108642578125,0.007080078125,1.0009765625,-261.0,103.0,-5.0,101942.0,-5.127000331878662,0,0
1941.472003,-0.82733154296875,0.02838134765625,0.04718017578125,0.558990478515625,-0.06103515625,0.3662109375,0.06103515625,0.1102294921875,0.0057373046875,0.9976806640625,-261.0,103.0,-5.0,101942.0,-5.127000331878662,0,0
1941.479019,-0.82733154296875,0.02838134765625,0.04718017578125,0.558990478515625,-0.1220703125,0.30517578125,-0.1220703125,0.110595703125,0.004638671875,1.000244140625,-261.0,103.0,-5.0,101942.0,-5.127000331878662,0,0
1941.485997,-0.82733154296875,0.02838134765625,0.04718017578125,0.558990478515625,-0.1220703125,0.06103515625,0.0,0.111328125,0.0059814453125,0.998046875,-261.0,103.0,-5.0,101942.0,-5.127000331878662,0,0
1941.492996,-0.82733154296875,0.02838134765625,0.04718017578125,0.558990478515625,0.06103515625,0.3662109375,-0.18310546875,0.1116943359375,0.006591796875,0.9986572265625,-261.0,103.0,-5.0,101942.0,-5.127000331878662,0,0
1941.499029,-0.82733154296875,0.02838134765625,0.04718017578125,0.558990478515625,0.06103515625,0.3662109375,-0.18310546875,0.1116943359375,0.006591796875,0.9986572265625,-261.0,103.0,-5.0,101942.0,-5.127000331878662,0,0
1941.505998,-0.82733154296875,0.02838134765625,0.04718017578125,0.558990478515625,-0.1220703125,0.48828125,-0.06103515625,0.1090087890625,0.00390625,0.9996337890625,-260.0,102.0,-6.0,101942.0,-5.127000331878662,0,0
1941.527001,-0.82733154296875,0.02838134765625,0.047149658203125,0.558990478515625,-0.06103515625,0.244140625,0.06103515625,0.1104736328125,0.0059814453125,1.0008544921875,-260.0,102.0,-6.0,101942.0,-5.127000331878662,0,0
1941.534015,-0.82733154296875,0.02838134765625,0.047149658203125,0.558990478515625,0.1220703125,0.18310546875,-0.06103515625,0.110107421875,0.0052490234375,0.9979248046875,-260.0,102.0,-6.0,101942.0,-5.127000331878662,0,0
1941.540996,-0.82733154296875,0.02838134765625,0.047149658203125,0.558990478515625,-0.1220703125,0.1220703125,0.06103515625,0.109619140625,0.0047607421875,0.997802734375,-260.0,102.0,-6.0,101942.0,-5.127000331878662,0,0
1941.547995,-0.82733154296875,0.02838134765625,0.047149658203125,0.558990478515625,-0.1220703125,0.244140625,0.1220703125,0.1099853515625,0.0047607421875,0.9979248046875,-260.0,102.0,-6.0,101942.0,-5.127000331878662,0,0
1941.555019,-0.82733154296875,0.02838134765625,0.047149658203125,0.558990478515625,0.1220703125,0.18310546875,-0.18310546875,0.109130859375,0.0050048828125,1.00048828125,-260.0,102.0,-6.0,101942.0,-5.127000331878662,0,0
1941.562003,-0.82733154296875,0.02838134765625,0.047149658203125,0.558990478515625,0.18310546875,0.30517578125,0.244140625,0.1077880859375,0.006103515625,0.998291015625,-260.0,102.0,-6.0,101942.0,-5.127000331878662,0,0
1941.569018,-0.82733154296875,0.028350830078125,0.047149658203125,0.558990478515625,-0.42724609375,0.1220703125,0.06103515625,0.110107421875,0.0072021484375,0.99951171875,-260.0,102.0,-6.0,101942.0,-5.127000331878662,0,0
1941.575997,-0.82733154296875,0.028350830078125,0.047149658203125,0.558990478515625,-0.18310546875,0.3662109375,0.244140625,0.1104736328125,0.0069580078125,0.997802734375,-260.0,102.0,-6.0,101942.0,-5.127000331878662,0,0
1941.582996,-0.82733154296875,0.028350830078125,0.047149658203125,0.558990478515625,-0.18310546875,0.30517578125,-0.06103515625,0.1124267578125,0.0081787109375,0.99951171875,-260.0,102.0,-6.0,101942.0,-5.127000331878662,0,0
1941.589029,-0.82733154296875,0.028350830078125,0.047149658203125,0.558990478515625,-0.18310546875,0.30517578125,-0.06103515625,0.1124267578125,0.0081787109375,0.99951171875,-260.0,102.0,-6.0,101942.0,-5.127000331878662,0,0
1941.595997,-0.82733154296875,0.028350830078125,0.047149658203125,0.558990478515625,0.0,0.244140625,0.30517578125,0.1090087890625,0.0025634765625,0.998046875,-260.0,102.0,-6.0,101942.0,-5.127000331878662,0,0
1941.602997,-0.82733154296875,0.028350830078125,0.047149658203125,0.558990478515625,-0.1220703125,0.18310546875,-0.1220703125,0.1082763671875,0.0037841796875,0.9989013671875,-260.0,102.0,-6.0,101942.0,-5.127000331878662,0,0
1941.610022,-0.827362060546875,0.028350830078125,0.047149658203125,0.558929443359375,0.06103515625,0.42724609375,0.0,0.1097412109375,0.0057373046875,0.9993896484375,-261.0,103.0,-6.0,101942.0,-5.127000331878662,0,0
1941.617001,-0.827362060546875,0.028350830078125,0.047149658203125,0.558929443359375,0.0,0.42724609375,-0.1220703125,0.111572265625,0.0069580078125,0.9984130859375,-261.0,103.0,-6.0,101942.0,-5.127000331878662,0,0
1941.624015,-0.827362060546875,0.028350830078125,0.047149658203125,0.558929443359375,0.06103515625,-0.1220703125,0.0,0.1107177734375,0.00390625,0.9991455078125,-261.0,103.0,-6.0,101942.0,-5.127000331878662,0,0
1941.630996,-0.827362060546875,0.028350830078125,0.047149658203125,0.558929443359375,-0.1220703125,0.42724609375,0.06103515625,0.1126708984375,0.0050048828125,1.001220703125,-261.0,103.0,-6.0,101942.0,-5.127000331878662,0,0
1941.637999,-0.827362060546875,0.028350830078125,0.047149658203125,0.558929443359375,0.0,0.54931640625,0.18310546875,0.1083984375,0.004638671875,0.9998779296875,-261.0,103.0,-6.0,101942.0,-5.127000331878662,0,0
1941.64502,-0.827362060546875,0.02838134765625,0.047119140625,0.558929443359375,0.0,0.1220703125,0.1220703125,0.1083984375,0.004638671875,1.0013427734375,-261.0,103.0,-6.0,101942.0,-5.127000331878662,0,0
1941.652003,-0.827362060546875,0.02838134765625,0.047119140625,0.558929443359375,0.1220703125,0.1220703125,-0.1220703125,0.1116943359375,0.0045166015625,0.99951171875,-261.0,103.0,-6.0,101942.0,-5.127000331878662,0,0
1941.659018,-0.827362060546875,0.02838134765625,0.047149658203125,0.558929443359375,0.18310546875,0.3662109375,0.06103515625,0.109619140625,0.0076904296875,0.9993896484375,-261.0,103.0,-6.0,101942.0,-5.128000259399414,0,0
1941.665997,-0.827362060546875,0.028350830078125,0.047149658203125,0.558929443359375,0.1220703125,0.3662109375,0.18310546875,0.111083984375,0.005126953125,1.0001220703125,-261.0,103.0,-6.0,101942.0,-5.128000259399414,0,0
1941.672996,-0.827362060546875,0.028350830078125,0.047149658203125,0.558929443359375,-0.06103515625,0.18310546875,0.06103515625,0.109619140625,0.008056640625,0.9990234375,-261.0,103.0,-6.0,101942.0,-5.128000259399414,0,0
1941.680017,-0.827362060546875,0.028350830078125,0.047149658203125,0.558929443359375,-0.06103515625,0.244140625,0.06103515625,0.1099853515625,0.0062255859375,0.9976806640625,-261.0,103.0,-6.0,101942.0,-5.128000259399414,0,0
1941.700022,-0.827362060546875,0.028350830078125,0.047149658203125,0.558929443359375,0.0,0.18310546875,-0.06103515625,0.111083984375,0.0076904296875,0.998779296875,-261.0,103.0,-6.0,101942.0,-5.128000259399414,0,0
1941.707001,-0.827362060546875,0.028350830078125,0.047149658203125,0.558929443359375,-0.1220703125,0.18310546875,-0.06103515625,0.107666015625,0.0047607421875,0.998779296875,-263.0,103.0,-5.0,101942.0,-5.128000259399414,0,0
1941.714015,-0.827362060546875,0.028350830078125,0.047149658203125,0.558929443359375,0.06103515625,0.42724609375,-0.18310546875,0.111083984375,0.005859375,0.999755859375,-263.0,103.0,-5.0,101942.0,-5.128000259399414,0,0
1941.721,-0.827362060546875,0.028350830078125,0.047149658203125,0.558929443359375,0.06103515625,0.30517578125,-0.18310546875,0.1124267578125,0.0067138671875,0.9974365234375,-263.0,103.0,-5.0,101942.0,-5.128000259399414,0,0
1941.727999,-0.827362060546875,0.02838134765625,0.047149658203125,0.558929443359375,0.0,0.06103515625,0.30517578125,0.11083984375,0.003173828125,0.9971923828125,-263.0,103.0,-5.0,101942.0,-5.128000259399414,0,0
1941.73502,-0.827362060546875,0.02838134765625,0.047149658203125,0.558929443359375,-0.18310546875,0.30517578125,0.06103515625,0.1099853515625,0.0052490234375,0.9976806640625,-263.0,103.0,-5.0,101942.0,-5.128000259399414,0,0
1941.742003,-0.827362060546875,0.02838134765625,0.047149658203125,0.558929443359375,-0.06103515625,0.244140625,0.1220703125,0.112060546875,0.0059814453125,0.9986572265625,-263.0,103.0,-5.0,101942.0,-5.128000259399414,0,0
1941.749018,-0.827362060546875,0.02838134765625,0.047149658203125,0.558929443359375,0.0,0.244140625,0.18310546875,0.1107177734375,0.006103515625,0.9979248046875,-263.0,103.0,-5.0,101942.0,-5.128000259399414,0,0
1941.755997,-0.827362060546875,0.02838134765625,0.047149658203125,0.558929443359375,0.18310546875,0.18310546875,0.18310546875,0.1107177734375,0.0047607421875,1.00048828125,-263.0,103.0,-5.0,101942.0,-5.128000259399414,0,0
1941.762996,-0.827362060546875,0.02838134765625,0.047149658203125,0.558929443359375,-0.06103515625,0.3662109375,-0.18310546875,0.110107421875,0.0050048828125,1.000244140625,-263.0,103.0,-5.0,101942.0,-5.128000259399414,0,0
1941.770016,-0.827362060546875,0.02838134765625,0.047149658203125,0.558929443359375,-0.1220703125,0.18310546875,0.06103515625,0.1080322265625,0.0062255859375,0.99853515625,-263.0,103.0,-5.0,101942.0,-5.128000259399414,0,0
1941.790022,-0.827362060546875,0.02838134765625,0.047149658203125,0.55889892578125,0.0,0.0,0.1220703125,0.111083984375,0.00439453125,0.997314453125,-263.0,103.0,-5.0,101942.0,-5.128000259399414,0,0
1941.797001,-0.827362060546875,0.02838134765625,0.047149658203125,0.558929443359375,-0.06103515625,0.30517578125,-0.1220703125,0.109619140625,0.00537109375,0.9986572265625,-263.0,103.0,-5.0,101942.0,-5.128000259399414,0,0
1941.804015,-0.827362060546875,0.02838134765625,0.047149658203125,0.55889892578125,-0.244140625,0.18310546875,-0.06103515625,0.1114501953125,0.0057373046875,0.9986572265625,-264.0,101.0,-5.0,101942.0,-5.128000259399414,0,0
1941.810995,-0.8272705078125,0.02838134765625,0.047149658203125,0.559051513671875,-0.30517578125,0.6103515625,0.0,0.110107421875,0.0047607421875,1.0003662109375,-264.0,101.0,-5.0,101942.0,-5.128000259399414,0,0
1941.817995,-0.8272705078125,0.02838134765625,0.047149658203125,0.559051513671875,-0.06103515625,0.244140625,0.1220703125,0.11083984375,0.0068359375,0.9986572265625,-264.0,101.0,-5.0,101942.0,-5.128000259399414,0,0
1941.825019,-0.8272705078125,0.02838134765625,0.047149658203125,0.559051513671875,0.0,0.42724609375,0.06103515625,0.1112060546875,0.0054931640625,0.9998779296875,-264.0,101.0,-5.0,101942.0,-5.128000259399414,0,0
1941.832003,-0.8272705078125,0.02838134765625,0.047149658203125,0.559051513671875,0.1220703125,0.42724609375,-0.18310546875,0.113037109375,0.007080078125,0.9993896484375,-264.0,101.0,-5.0,101942.0,-5.128000259399414,0,0
1941.839019,-0.8272705078125,0.02838134765625,0.047149658203125,0.559051513671875,0.1220703125,0.30517578125,-0.18310546875,0.1104736328125,0.005615234375,0.9969482421875,-264.0,101.0,-5.0,101942.0,-5.128000259399414,0,0
1941.845997,-0.8272705078125,0.02838134765625,0.047149658203125,0.559051513671875,0.0,0.244140625,0.06103515625,0.1109619140625,0.0076904296875,0.99755859375,-264.0,101.0,-5.0,101942.0,-5.128000259399414,0,0
1941.852996,-0.8272705078125,0.02838134765625,0.047149658203125,0.559051513671875,0.1220703125,0.1220703125,0.1220703125,0.1112060546875,0.006103515625,0.9976806640625,-264.0,101.0,-5.0,101942.0,-5.127000331878662,0,0
1941.873033,-0.8272705078125,0.02838134765625,0.047149658203125,0.559051513671875,0.244140625,0.3662109375,0.0,0.109619140625,0.0042724609375,0.997802734375,-264.0,101.0,-5.0,101942.0,-5.127000331878662,0,0
1941.880022,-0.8272705078125,0.02838134765625,0.047149658203125,0.559051513671875,-0.1220703125,0.244140625,0.18310546875,0.110595703125,0.00537109375,1.000732421875,-264.0,101.0,-5.0,101942.0,-5.127000331878662,0,0
1941.887001,-0.8272705078125,0.02838134765625,0.047149658203125,0.559051513671875,0.1220703125,0.42724609375,-0.30517578125,0.1097412109375,0.0054931640625,0.9979248046875,-264.0,101.0,-5.0,101942.0,-5.127000331878662,0,0
1941.894015,-0.8272705078125,0.02838134765625,0.047149658203125,0.559051513671875,-0.06103515625,0.3662109375,0.30517578125,0.11181640625,0.0050048828125,1.00048828125,-264.0,101.0,-5.0,101942.0,-5.127000331878662,0,0
1941.900996,-0.8272705078125,0.028411865234375,0.047149658203125,0.559051513671875,-0.1220703125,0.18310546875,0.06103515625,0.1134033203125,0.0048828125,0.998779296875,-264.0,101.0,-5.0,101942.0,-5.127000331878662,0,0
1941.907995,-0.827178955078125,0.028411865234375,0.047149658203125,0.5592041015625,-0.1220703125,0.30517578125,-0.3662109375,0.1085205078125,0.004638671875,0.99755859375,-263.0,101.0,-6.0,101942.0,-5.127000331878662,0,0
1941.915019,-0.827178955078125,0.028411865234375,0.047149658203125,0.5592041015625,-0.18310546875,0.30517578125,0.30517578125,0.10888671875,0.007080078125,0.999267578125,-263.0,101.0,-6.0,101942.0,-5.127000331878662,0,0
1941.922003,-0.827178955078125,0.028411865234375,0.047149658203125,0.5592041015625,0.06103515625,0.06103515625,0.18310546875,0.10986328125,0.005615234375,1.000732421875,-263.0,101.0,-6.0,101942.0,-5.127000331878662,0,0
1941.929018,-0.827178955078125,0.028411865234375,0.047149658203125,0.5592041015625,-0.1220703125,0.1220703125,0.0,0.10986328125,0.00537109375,0.9986572265625,-263.0,101.0,-6.0,101942.0,-5.127000331878662,0,0
1941.935997,-0.827178955078125,0.028411865234375,0.047149658203125,0.5592041015625,0.0,0.244140625,0.06103515625,0.111572265625,0.00537109375,1.0006103515625,-263.0,101.0,-6.0,101942.0,-5.127000331878662,0,0
1941.942996,-0.827178955078125,0.028411865234375,0.047149658203125,0.5592041015625,0.1220703125,0.42724609375,0.06103515625,0.111572265625,0.00537109375,0.996826171875,-263.0,101.0,-6.0,101942.0,-5.127000331878662,0,0
1941.963034,-0.827178955078125,0.028411865234375,0.047149658203125,0.5592041015625,-0.30517578125,0.30517578125,0.244140625,0.1104736328125,0.00634765625,0.997802734375,-263.0,101.0,-6.0,101942.0,-5.127000331878662,0,0
1941.970022,-0.827178955078125,0.028411865234375,0.047119140625,0.5592041015625,0.1220703125,0.42724609375,0.06103515625,0.1097412109375,0.004150390625,0.998046875,-263.0,101.0,-6.0,101942.0,-5.127000331878662,0,0
1941.977001,-0.827178955078125,0.028411865234375,0.047119140625,0.5592041015625,0.0,0.244140625,0.1220703125,0.109130859375,0.0064697265625,0.999267578125,-263.0,101.0,-6.0,101942.0,-5.127000331878662,0,0
1941.984015,-0.827178955078125,0.028411865234375,0.047119140625,0.5592041015625,0.0,0.18310546875,-0.06103515625,0.111328125,0.0048828125,0.998779296875,-263.0,101.0,-6.0,101942.0,-5.127000331878662,0,0
1941.991,-0.827178955078125,0.028411865234375,0.047119140625,0.5592041015625,-0.18310546875,0.244140625,0.30517578125,0.109375,0.00634765625,0.996337890625,-263.0,101.0,-6.0,101942.0,-5.127000331878662,0,0
1941.997999,-0.827178955078125,0.028411865234375,0.047119140625,0.5592041015625,-0.06103515625,0.30517578125,0.06103515625,0.111328125,0.005126953125,1.0001220703125,-263.0,101.0,-6.0,101942.0,-5.127000331878662,0,0
1942.00502,-0.827178955078125,0.028411865234375,0.047149658203125,0.5592041015625,0.1220703125,-0.06103515625,0.0,0.1116943359375,0.00634765625,0.9989013671875,-263.0,101.0,-7.0,101942.0,-5.127000331878662,0,0
1942.012003,-0.827056884765625,0.028411865234375,0.047149658203125,0.559356689453125,-0.18310546875,0.244140625,0.1220703125,0.1119384765625,0.00439453125,0.998291015625,-263.0,101.0,-7.0,101942.0,-5.127000331878662,0,0
1942.019018,-0.827056884765625,0.028411865234375,0.047149658203125,0.559356689453125,-0.06103515625,0.06103515625,0.06103515625,0.1103515625,0.006103515625,0.99951171875,-263.0,101.0,-7.0,101942.0,-5.127000331878662,0,0
1942.025997,-0.827056884765625,0.028411865234375,0.047119140625,0.559356689453125,0.3662109375,0.06103515625,0.1220703125,0.10693359375,0.0029296875,0.9989013671875,-263.0,101.0,-7.0,101942.0,-5.127000331878662,0,0
1942.032996,-0.827056884765625,0.028411865234375,0.047119140625,0.559356689453125,-0.06103515625,0.30517578125,-0.1220703125,0.111328125,0.007568359375,0.9979248046875,-263.0,101.0,-7.0,101942.0,-5.127000331878662,0,0
1942.054018,-0.827056884765625,0.028411865234375,0.047119140625,0.559356689453125,0.0,0.42724609375,0.0,0.112060546875,0.006103515625,0.9981689453125,-263.0,101.0,-7.0,101942.0,-5.128000259399414,0,0
1942.060053,-0.827056884765625,0.028411865234375,0.047119140625,0.559356689453125,0.0,0.42724609375,0.0,0.112060546875,0.006103515625,0.9981689453125,-263.0,101.0,-7.0,101942.0,-5.128000259399414,0,0
1942.067001,-0.827056884765625,0.028411865234375,0.047119140625,0.559356689453125,-0.06103515625,0.06103515625,0.0,0.1103515625,0.0048828125,0.9986572265625,-263.0,101.0,-7.0,101942.0,-5.128000259399414,0,0
1942.074015,-0.827056884765625,0.028411865234375,0.047119140625,0.559356689453125,-0.1220703125,0.48828125,0.0,0.1087646484375,0.007080078125,1.001220703125,-263.0,101.0,-7.0,101942.0,-5.128000259399414,0,0
1942.080995,-0.827056884765625,0.028411865234375,0.047119140625,0.559356689453125,-0.06103515625,0.18310546875,0.1220703125,0.109130859375,0.005859375,0.9979248046875,-263.0,101.0,-7.0,101942.0,-5.128000259399414,0,0
1942.087995,-0.827056884765625,0.028411865234375,0.047119140625,0.559356689453125,-0.06103515625,0.18310546875,-0.1220703125,0.111572265625,0.006591796875,0.9989013671875,-263.0,101.0,-7.0,101942.0,-5.128000259399414,0,0
1942.095019,-0.827056884765625,0.02838134765625,0.047119140625,0.559356689453125,0.244140625,0.42724609375,0.06103515625,0.1107177734375,0.007568359375,0.9959716796875,-263.0,101.0,-7.0,101942.0,-5.128000259399414,0,0
1942.102003,-0.827056884765625,0.02838134765625,0.047149658203125,0.559356689453125,0.06103515625,0.30517578125,-0.18310546875,0.109375,0.0069580078125,0.998291015625,-263.0,102.0,-7.0,101942.0,-5.128000259399414,0,0
1942.109019,-0.827056884765625,0.02838134765625,0.047119140625,0.559356689453125,0.42724609375,0.30517578125,0.0,0.1070556640625,0.00634765625,0.9964599609375,-263.0,102.0,-7.0,101942.0,-5.128000259399414,0,0
1942.115997,-0.827056884765625,0.02838134765625,0.047149658203125,0.559356689453125,0.0,0.18310546875,-0.1220703125,0.11181640625,0.0081787109375,1.000244140625,-263.0,102.0,-7.0,101942.0,-5.128000259399414,0,0
1942.122996,-0.827056884765625,0.02838134765625,0.047149658203125,0.559356689453125,0.1220703125,0.1220703125,0.18310546875,0.1124267578125,0.0047607421875,0.99853515625,-263.0,102.0,-7.0,101942.0,-5.128000259399414,0,0
1942.130016,-0.827056884765625,0.02838134765625,0.047149658203125,0.559356689453125,0.18310546875,0.244140625,-0.1220703125,0.1082763671875,0.0086669921875,0.999267578125,-263.0,102.0,-7.0,101942.0,-5.128000259399414,0,0
1942.137001,-0.827056884765625,0.02838134765625,0.047149658203125,0.559356689453125,0.06103515625,0.244140625,0.0,0.1102294921875,0.0062255859375,0.996826171875,-263.0,102.0,-7.0,101942.0,-5.128000259399414,0,0
1942.144018,-0.827056884765625,0.02838134765625,0.047149658203125,0.559356689453125,0.0,0.244140625,-0.244140625,0.1097412109375,0.0072021484375,0.9998779296875,-263.0,102.0,-7.0,101942.0,-5.128000259399414,0,0
1942.150049,-0.827056884765625,0.02838134765625,0.047149658203125,0.559356689453125,0.0,0.244140625,-0.244140625,0.1097412109375,0.0072021484375,0.9998779296875,-263.0,102.0,-7.0,101942.0,-5.128000259399414,0,0
1942.157001,-0.827056884765625,0.02838134765625,0.047149658203125,0.559356689453125,-0.06103515625,0.244140625,0.18310546875,0.1103515625,0.0076904296875,0.9981689453125,-263.0,102.0,-7.0,101942.0,-5.129000186920166,0,0
1942.164015,-0.827056884765625,0.028350830078125,0.047149658203125,0.559356689453125,0.1220703125,0.244140625,0.0,0.1107177734375,0.0091552734375,0.9984130859375,-263.0,102.0,-7.0,101942.0,-5.129000186920166,0,0
1942.170996,-0.827056884765625,0.028350830078125,0.047149658203125,0.559356689453125,-0.1220703125,0.06103515625,0.1220703125,0.109619140625,0.0076904296875,0.999755859375,-263.0,102.0,-7.0,101942.0,-5.129000186920166,0,0
1942.177995,-0.827056884765625,0.028350830078125,0.047149658203125,0.559356689453125,0.1220703125,0.48828125,-0.06103515625,0.109130859375,0.008056640625,0.9971923828125,-263.0,102.0,-7.0,101942.0,-5.129000186920166,0,0
1942.185019,-0.827056884765625,0.028350830078125,0.047149658203125,0.559356689453125,-0.1220703125,0.244140625,0.1220703125,0.1104736328125,0.004638671875,0.99658203125,-263.0,102.0,-7.0,101942.0,-5.129000186920166,0,0
1942.192003,-0.827056884765625,0.028350830078125,0.047149658203125,0.559356689453125,-0.06103515625,0.244140625,-0.1220703125,0.1124267578125,0.0029296875,0.999755859375,-263.0,102.0,-7.0,101942.0,-5.129000186920166,0,0
1942.199018,-0.827056884765625,0.028350830078125,0.047149658203125,0.559356689453125,0.0,0.244140625,-0.18310546875,0.111328125,0.0050048828125,0.9991455078125,-263.0,102.0,-7.0,101942.0,-5.129000186920166,0,0
1942.205997,-0.827056884765625,0.028350830078125,0.047149658203125,0.559356689453125,-0.06103515625,0.244140625,0.06103515625,0.1090087890625,0.007080078125,0.9993896484375,-263.0,103.0,-6.0,101942.0,-5.129000186920166,0,0
1942.227001,-0.827056884765625,0.0283203125,0.047149658203125,0.559356689453125,0.1220703125,0.3662109375,-0.1220703125,0.1099853515625,0.0059814453125,0.9991455078125,-263.0,103.0,-6.0,101942.0,-5.129000186920166,0,0
1942.234018,-0.827056884765625,0.0283203125,0.047149658203125,0.559356689453125,0.1220703125,0.30517578125,0.244140625,0.109130859375,0.00634765625,0.9976806640625,-263.0,103.0,-6.0,101942.0,-5.129000186920166,0,0
1942.240999,-0.827056884765625,0.0283203125,0.047149658203125,0.559356689453125,0.18310546875,0.30517578125,-0.06103515625,0.1112060546875,0.007080078125,0.9984130859375,-263.0,103.0,-6.0,101942.0,-5.129000186920166,0,0
1942.247032,-0.827056884765625,0.0283203125,0.047149658203125,0.559356689453125,0.18310546875,0.30517578125,-0.06103515625,0.1112060546875,0.007080078125,0.9984130859375,-263.0,103.0,-6.0,101942.0,-5.129000186920166,0,0
1942.254015,-0.827056884765625,0.0283203125,0.047149658203125,0.559356689453125,0.06103515625,0.30517578125,0.30517578125,0.1104736328125,0.0057373046875,0.998046875,-263.0,103.0,-6.0,101942.0,-5.128000259399414,0,0
1942.261,-0.827056884765625,0.0283203125,0.047149658203125,0.559356689453125,0.1220703125,0.30517578125,-0.06103515625,0.1094970703125,0.00390625,0.998779296875,-263.0,103.0,-6.0,101942.0,-5.128000259399414,0,0
1942.267999,-0.827056884765625,0.0283203125,0.047149658203125,0.559356689453125,0.06103515625,0.18310546875,0.06103515625,0.1097412109375,0.0059814453125,0.9979248046875,-263.0,103.0,-6.0,101942.0,-5.128000259399414,0,0
1942.27502,-0.827056884765625,0.0283203125,0.047149658203125,0.559356689453125,0.0,0.1220703125,0.06103515625,0.110107421875,0.0052490234375,0.9979248046875,-263.0,103.0,-6.0,101942.0,-5.128000259399414,0,0
1942.282003,-0.827056884765625,0.0283203125,0.047149658203125,0.559356689453125,-0.06103515625,0.244140625,0.18310546875,0.1097412109375,0.00634765625,0.9993896484375,-263.0,103.0,-6.0,101942.0,-5.128000259399414,0,0
1942.289018,-0.827056884765625,0.0283203125,0.047149658203125,0.559356689453125,-0.06103515625,0.42724609375,0.244140625,0.110107421875,0.0068359375,0.998046875,-263.0,103.0,-6.0,101942.0,-5.128000259399414,0,0
1942.310017,-0.827056884765625,0.028350830078125,0.047149658203125,0.559356689453125,-0.1220703125,0.30517578125,0.1220703125,0.1124267578125,0.0052490234375,0.9970703125,-263.0,103.0,-8.0,101942.0,-5.128000259399414,0,0
1942.317001,-0.827056884765625,0.028350830078125,0.047149658203125,0.559356689453125,0.0,0.30517578125,-0.06103515625,0.111083984375,0.005615234375,0.9986572265625,-263.0,103.0,-8.0,101942.0,-5.128000259399414,0,0
1942.324018,-0.827056884765625,0.028350830078125,0.047149658203125,0.559356689453125,-0.1220703125,0.1220703125,0.0,0.1102294921875,0.0072021484375,0.998291015625,-263.0,103.0,-8.0,101942.0,-5.128000259399414,0,0
1942.330999,-0.827056884765625,0.028350830078125,0.047149658203125,0.559356689453125,-0.1220703125,0.244140625,0.06103515625,0.110107421875,0.005859375,0.998291015625,-263.0,103.0,-8.0,101942.0,-5.128000259399414,0,0
1942.337032,-0.827056884765625,0.028350830078125,0.047149658203125,0.559356689453125,-0.1220703125,0.244140625,0.06103515625,0.110107421875,0.005859375,0.998291015625,-263.0,103.0,-8.0,101942.0,-5.128000259399414,0,0
1942.344015,-0.827056884765625,0.028350830078125,0.047149658203125,0.559356689453125,-0.06103515625,0.42724609375,-0.1220703125,0.1109619140625,0.0057373046875,0.9969482421875,-263.0,103.0,-8.0,101942.0,-5.128000259399414,0,0
1942.350995,-0.827056884765625,0.028350830078125,0.047149658203125,0.559356689453125,-0.06103515625,0.244140625,0.0,0.111328125,0.0050048828125,0.9974365234375,-263.0,103.0,-8.0,101942.0,-5.128000259399414,0,0
1942.357995,-0.827056884765625,0.028350830078125,0.047149658203125,0.559356689453125,-0.06103515625,0.30517578125,0.06103515625,0.10986328125,0.00634765625,0.99951171875,-263.0,103.0,-8.0,101942.0,-5.128000259399414,0,0
1942.365019,-0.827056884765625,0.028350830078125,0.047149658203125,0.559356689453125,0.1220703125,0.30517578125,0.0,0.10888671875,0.005126953125,0.998291015625,-263.0,103.0,-8.0,101942.0,-5.128000259399414,0,0
1942.372003,-0.827056884765625,0.028350830078125,0.047149658203125,0.559356689453125,0.06103515625,0.54931640625,0.0,0.1099853515625,0.0048828125,0.9996337890625,-263.0,103.0,-8.0,101942.0,-5.128000259399414,0,0
1942.379018,-0.827056884765625,0.028350830078125,0.047149658203125,0.559356689453125,0.06103515625,0.30517578125,0.06103515625,0.1090087890625,0.0062255859375,0.997314453125,-263.0,103.0,-8.0,101942.0,-5.128000259399414,0,0
1942.385997,-0.827056884765625,0.028350830078125,0.047149658203125,0.559356689453125,-0.244140625,0.18310546875,0.0,0.109375,0.00634765625,0.998291015625,-263.0,103.0,-8.0,101942.0,-5.128000259399414,0,0
1942.392996,-0.827056884765625,0.028350830078125,0.047149658203125,0.559356689453125,0.06103515625,0.1220703125,-0.06103515625,0.11083984375,0.0057373046875,0.99853515625,-263.0,103.0,-8.0,101942.0,-5.128000259399414,0,0
1942.400016,-0.827056884765625,0.028350830078125,0.047149658203125,0.559356689453125,0.0,0.244140625,0.0,0.1097412109375,0.005859375,0.9990234375,-263.0,103.0,-8.0,101942.0,-5.128000259399414,0,0
1942.407001,-0.827056884765625,0.028350830078125,0.047149658203125,0.559356689453125,0.06103515625,0.42724609375,0.0,0.1121826171875,0.00537109375,0.9971923828125,-262.0,103.0,-9.0,101942.0,-5.128000259399414,0,0
1942.414018,-0.827056884765625,0.028350830078125,0.047149658203125,0.559356689453125,0.06103515625,0.18310546875,0.0,0.112060546875,0.0076904296875,0.9989013671875,-262.0,103.0,-9.0,101942.0,-5.128000259399414,0,0
1942.420995,-0.827056884765625,0.028350830078125,0.047149658203125,0.559356689453125,0.0,0.18310546875,0.30517578125,0.109619140625,0.006103515625,0.9998779296875,-262.0,103.0,-9.0,101942.0,-5.128000259399414,0,0
1942.427994,-0.827056884765625,0.028350830078125,0.047149658203125,0.559356689453125,0.06103515625,0.18310546875,-0.06103515625,0.111083984375,0.006103515625,1.0001220703125,-262.0,103.0,-9.0,101942.0,-5.128000259399414,0,0
1942.434026,-0.827056884765625,0.028350830078125,0.047149658203125,0.559356689453125,0.06103515625,0.18310546875,-0.06103515625,0.111083984375,0.006103515625,1.0001220703125,-262.0,103.0,-9.0,101942.0,-5.128000259399414,0,0
1942.440996,-0.827056884765625,0.028350830078125,0.047149658203125,0.559356689453125,0.1220703125,0.244140625,0.1220703125,0.1094970703125,0.0040283203125,0.9979248046875,-262.0,103.0,-9.0,101942.0,-5.128000259399414,0,0
1942.447995,-0.827056884765625,0.028350830078125,0.047149658203125,0.559356689453125,0.0,0.30517578125,0.1220703125,0.1085205078125,0.00439453125,0.9996337890625,-262.0,103.0,-9.0,101942.0,-5.128000259399414,0,0
1942.455019,-0.827056884765625,0.028350830078125,0.047149658203125,0.559356689453125,0.0,0.3662109375,0.0,0.1102294921875,0.004150390625,0.99658203125,-262.0,103.0,-9.0,101942.0,-5.128000259399414,0,0
1942.462003,-0.827056884765625,0.02838134765625,0.047149658203125,0.559356689453125,0.06103515625,0.30517578125,0.244140625,0.111572265625,0.0048828125,0.9976806640625,-262.0,103.0,-9.0,101942.0,-5.128000259399414,0,0
1942.482996,-0.827056884765625,0.02838134765625,0.047149658203125,0.559356689453125,-0.1220703125,0.30517578125,-0.18310546875,0.1097412109375,0.0042724609375,0.9998779296875,-262.0,103.0,-9.0,101942.0,-5.128000259399414,0,0
1942.490016,-0.827056884765625,0.02838134765625,0.047149658203125,0.559356689453125,0.1220703125,0.3662109375,-0.18310546875,0.1083984375,0.0047607421875,1.0008544921875,-262.0,103.0,-9.0,101942.0,-5.128000259399414,0,0
1942.497001,-0.827056884765625,0.02838134765625,0.047149658203125,0.559356689453125,0.244140625,0.30517578125,-0.1220703125,0.1087646484375,0.004150390625,0.9991455078125,-262.0,103.0,-9.0,101942.0,-5.128000259399414,0,0
1942.504018,-0.827056884765625,0.02838134765625,0.047149658203125,0.559356689453125,-0.06103515625,0.3662109375,0.1220703125,0.11083984375,0.006103515625,0.9993896484375,-262.0,104.0,-8.0,101942.0,-5.127000331878662,0,0
1942.510995,-0.827178955078125,0.02838134765625,0.047149658203125,0.5592041015625,0.0,0.244140625,-0.18310546875,0.1123046875,0.0050048828125,0.9990234375,-262.0,104.0,-8.0,101942.0,-5.127000331878662,0,0
1942.517994,-0.827178955078125,0.02838134765625,0.047149658203125,0.5592041015625,0.0,0.48828125,0.1220703125,0.1103515625,0.006103515625,0.9991455078125,-262.0,104.0,-8.0,101942.0,-5.127000331878662,0,0
1942.524026,-0.827178955078125,0.02838134765625,0.047149658203125,0.5592041015625,0.0,0.48828125,0.1220703125,0.1103515625,0.006103515625,0.9991455078125,-262.0,104.0,-8.0,101942.0,-5.127000331878662,0,0
1942.530996,-0.827178955078125,0.02838134765625,0.047149658203125,0.5592041015625,-0.06103515625,0.1220703125,0.18310546875,0.111083984375,0.0059814453125,0.9970703125,-262.0,104.0,-8.0,101942.0,-5.127000331878662,0,0
1942.537999,-0.827178955078125,0.02838134765625,0.047149658203125,0.5592041015625,0.06103515625,0.42724609375,0.06103515625,0.109130859375,0.0048828125,0.999267578125,-262.0,104.0,-8.0,101942.0,-5.127000331878662,0,0
1942.54502,-0.827178955078125,0.02838134765625,0.047149658203125,0.5592041015625,0.18310546875,0.30517578125,0.1220703125,0.1104736328125,0.00634765625,0.9996337890625,-262.0,104.0,-8.0,101942.0,-5.127000331878662,0,0
1942.552003,-0.827178955078125,0.02838134765625,0.047149658203125,0.5592041015625,0.1220703125,0.30517578125,0.1220703125,0.109130859375,0.0059814453125,0.999267578125,-262.0,104.0,-8.0,101942.0,-5.127000331878662,0,0
1942.572996,-0.827178955078125,0.02838134765625,0.047149658203125,0.5592041015625,-0.1220703125,0.06103515625,-0.06103515625,0.1090087890625,0.00537109375,0.998779296875,-262.0,104.0,-8.0,101942.0,-5.127000331878662,0,0
1942.580017,-0.827178955078125,0.028350830078125,0.047149658203125,0.5592041015625,0.18310546875,0.42724609375,-0.06103515625,0.108154296875,0.0079345703125,0.9989013671875,-262.0,104.0,-8.0,101942.0,-5.127000331878662,0,0
1942.587001,-0.827178955078125,0.028350830078125,0.047149658203125,0.5592041015625,-0.06103515625,0.30517578125,-0.1220703125,0.1104736328125,0.006591796875,0.999755859375,-262.0,104.0,-8.0,101942.0,-5.127000331878662,0,0
1942.594018,-0.827178955078125,0.02838134765625,0.047149658203125,0.5592041015625,-0.06103515625,0.18310546875,0.0,0.1119384765625,0.0059814453125,0.99951171875,-262.0,104.0,-8.0,101942.0,-5.127000331878662,0,0
1942.600999,-0.827178955078125,0.02838134765625,0.047149658203125,0.5592041015625,0.0,0.244140625,0.0,0.109375,0.0042724609375,0.9986572265625,-262.0,104.0,-8.0,101942.0,-5.128000259399414,0,0
1942.607999,-0.82720947265625,0.028350830078125,0.047149658203125,0.55914306640625,-0.42724609375,0.244140625,0.0,0.1097412109375,0.0074462890625,0.99853515625,-261.0,104.0,-8.0,101942.0,-5.128000259399414,0,0
1942.61502,-0.82720947265625,0.028350830078125,0.047149658203125,0.55914306640625,0.06103515625,0.244140625,0.0,0.1082763671875,0.0067138671875,0.9986572265625,-261.0,104.0,-8.0,101942.0,-5.128000259399414,0,0
1942.621056,-0.82720947265625,0.028350830078125,0.047149658203125,0.55914306640625,0.06103515625,0.244140625,0.0,0.1082763671875,0.0067138671875,0.9986572265625,-261.0,104.0,-8.0,101942.0,-5.128000259399414,0,0
1942.627999,-0.82720947265625,0.028350830078125,0.047149658203125,0.55914306640625,0.244140625,0.18310546875,-0.244140625,0.1083984375,0.0054931640625,0.998291015625,-261.0,104.0,-8.0,101942.0,-5.128000259399414,0,0
1942.635019,-0.82720947265625,0.028350830078125,0.047149658203125,0.55914306640625,0.0,0.18310546875,0.06103515625,0.1094970703125,0.00537109375,0.9976806640625,-261.0,104.0,-8.0,101942.0,-5.128000259399414,0,0
1942.642003,-0.82720947265625,0.028350830078125,0.047149658203125,0.55914306640625,0.0,0.18310546875,0.06103515625,0.1107177734375,0.0054931640625,0.9991455078125,-261.0,104.0,-8.0,101942.0,-5.128000259399414,0,0
1942.649018,-0.82720947265625,0.028350830078125,0.047149658203125,0.55914306640625,0.18310546875,0.54931640625,-0.244140625,0.1124267578125,0.0062255859375,1.0003662109375,-261.0,104.0,-8.0,101942.0,-5.128000259399414,0,0
1942.655997,-0.82720947265625,0.02838134765625,0.047149658203125,0.55914306640625,0.06103515625,0.30517578125,0.1220703125,0.111083984375,0.003173828125,0.999267578125,-261.0,104.0,-8.0,101942.0,-5.128000259399414,0,0
1942.662996,-0.82720947265625,0.02838134765625,0.047149658203125,0.55914306640625,0.1220703125,0.30517578125,-0.1220703125,0.1121826171875,0.0057373046875,0.9976806640625,-261.0,104.0,-8.0,101942.0,-5.128000259399414,0,0
1942.670016,-0.82720947265625,0.02838134765625,0.047149658203125,0.55914306640625,-0.1220703125,0.30517578125,0.1220703125,0.1109619140625,0.0045166015625,0.9970703125,-261.0,104.0,-8.0,101942.0,-5.128000259399414,0,0
1942.677001,-0.82720947265625,0.028411865234375,0.047149658203125,0.55914306640625,0.0,0.1220703125,-0.30517578125,0.110595703125,0.0040283203125,0.9984130859375,-261.0,104.0,-8.0,101942.0,-5.128000259399414,0,0
1942.684018,-0.82720947265625,0.028411865234375,0.047149658203125,0.55914306640625,-0.1220703125,0.42724609375,0.06103515625,0.1107177734375,0.00634765625,0.9991455078125,-261.0,104.0,-8.0,101942.0,-5.128000259399414,0,0
1942.690995,-0.82720947265625,0.02838134765625,0.047149658203125,0.55914306640625,-0.244140625,0.1220703125,0.18310546875,0.107666015625,0.006103515625,0.99755859375,-261.0,104.0,-8.0,101942.0,-5.128000259399414,0,0
1942.697994,-0.82720947265625,0.02838134765625,0.047149658203125,0.55914306640625,0.06103515625,0.244140625,0.30517578125,0.111328125,0.005126953125,0.9979248046875,-261.0,104.0,-8.0,101942.0,-5.128000259399414,0,0
1942.705019,-0.82720947265625,0.02838134765625,0.047149658203125,0.55914306640625,0.48828125,0.0,0.1220703125,0.1104736328125,0.0062255859375,0.9996337890625,-261.0,105.0,-9.0,101942.0,-5.129000186920166,0,0
1942.711051,-0.82720947265625,0.02838134765625,0.047149658203125,0.55914306640625,0.48828125,0.0,0.1220703125,0.1104736328125,0.0062255859375,0.9996337890625,-261.0,105.0,-9.0,101942.0,-5.129000186920166,0,0
1942.717995,-0.8272705078125,0.02838134765625,0.047149658203125,0.559051513671875,-0.18310546875,0.30517578125,0.18310546875,0.1090087890625,0.0057373046875,0.9984130859375,-261.0,105.0,-9.0,101942.0,-5.129000186920166,0,0
1942.725019,-0.8272705078125,0.02838134765625,0.047149658203125,0.559051513671875,0.30517578125,0.244140625,0.06103515625,0.1102294921875,0.00830078125,0.998291015625,-261.0,105.0,-9.0,101942.0,-5.129000186920166,0,0
1942.745997,-0.8272705078125,0.02838134765625,0.047149658203125,0.559051513671875,-0.1220703125,0.0,0.1220703125,0.1103515625,0.0057373046875,0.99853515625,-261.0,105.0,-9.0,101942.0,-5.129000186920166,0,0
1942.752996,-0.8272705078125,0.02838134765625,0.047149658203125,0.559051513671875,-0.06103515625,0.1220703125,0.0,0.1087646484375,0.0059814453125,0.9962158203125,-261.0,105.0,-9.0,101942.0,-5.129000186920166,0,0
1942.760016,-0.8272705078125,0.02838134765625,0.047149658203125,0.559051513671875,0.0,0.18310546875,0.06103515625,0.1112060546875,0.0054931640625,0.998046875,-261.0,105.0,-9.0,101942.0,-5.129000186920166,0,0
1942.767001,-0.8272705078125,0.02838134765625,0.047149658203125,0.559051513671875,-0.1220703125,0.244140625,0.0,0.1099853515625,0.0040283203125,1.00048828125,-261.0,105.0,-9.0,101942.0,-5.129000186920166,0,0
1942.774018,-0.8272705078125,0.02838134765625,0.047149658203125,0.559051513671875,0.1220703125,0.3662109375,0.30517578125,0.1114501953125,0.0052490234375,0.9998779296875,-261.0,105.0,-9.0,101942.0,-5.129000186920166,0,0
1942.780995,-0.8272705078125,0.02838134765625,0.047149658203125,0.559051513671875,0.18310546875,0.1220703125,0.06103515625,0.10986328125,0.0067138671875,0.9998779296875,-261.0,105.0,-9.0,101942.0,-5.129000186920166,0,0
1942.787994,-0.8272705078125,0.02838134765625,0.047149658203125,0.559051513671875,0.0,0.3662109375,-0.06103515625,0.110595703125,0.006103515625,0.999755859375,-261.0,105.0,-9.0,101942.0,-5.129000186920166,0,0
1942.795019,-0.8272705078125,0.02838134765625,0.047149658203125,0.559051513671875,0.06103515625,0.3662109375,0.244140625,0.107177734375,0.0059814453125,1.000244140625,-261.0,105.0,-9.0,101942.0,-5.129000186920166,0,0
1942.801998,-0.8272705078125,0.02838134765625,0.047149658203125,0.559051513671875,0.06103515625,0.18310546875,0.0,0.10986328125,0.005126953125,0.9991455078125,-260.0,105.0,-9.0,101942.0,-5.128000259399414,0,0
1942.80803,-0.8272705078125,0.02838134765625,0.047149658203125,0.559051513671875,0.06103515625,0.18310546875,0.0,0.10986328125,0.005126953125,0.9991455078125,-260.0,105.0,-9.0,101942.0,-5.128000259399414,0,0
1942.815019,-0.827362060546875,0.028350830078125,0.047149658203125,0.55889892578125,-0.244140625,0.18310546875,-0.1220703125,0.111328125,0.0048828125,0.99853515625,-260.0,105.0,-9.0,101942.0,-5.128000259399414,0,0
1942.835997,-0.827362060546875,0.028350830078125,0.047119140625,0.55889892578125,-0.18310546875,0.18310546875,0.1220703125,0.1072998046875,0.0050048828125,0.9991455078125,-260.0,105.0,-9.0,101942.0,-5.128000259399414,0,0
1942.842996,-0.827362060546875,0.02838134765625,0.047119140625,0.55889892578125,-0.06103515625,0.42724609375,-0.18310546875,0.109130859375,0.003173828125,0.9990234375,-260.0,105.0,-9.0,101942.0,-5.128000259399414,0,0
1942.850017,-0.827362060546875,0.02838134765625,0.047119140625,0.55889892578125,-0.06103515625,0.18310546875,-0.18310546875,0.109130859375,0.0067138671875,0.9981689453125,-260.0,105.0,-9.0,101942.0,-5.128000259399414,0,0
1942.857001,-0.827362060546875,0.02838134765625,0.047119140625,0.55889892578125,0.06103515625,0.244140625,-0.1220703125,0.1102294921875,0.0059814453125,0.9989013671875,-260.0,105.0,-9.0,101942.0,-5.128000259399414,0,0
1942.864018,-0.827362060546875,0.02838134765625,0.047119140625,0.55889892578125,0.0,0.1220703125,0.06103515625,0.110595703125,0.00634765625,0.9991455078125,-260.0,105.0,-9.0,101942.0,-5.128000259399414,0,0
1942.870999,-0.827362060546875,0.028350830078125,0.047119140625,0.55889892578125,0.0,0.1220703125,-0.06103515625,0.1094970703125,0.0076904296875,1.0010986328125,-260.0,105.0,-9.0,101942.0,-5.128000259399414,0,0
1942.877999,-0.827362060546875,0.028350830078125,0.047119140625,0.55889892578125,0.0,0.244140625,-0.1220703125,0.1090087890625,0.00537109375,0.9979248046875,-260.0,105.0,-9.0,101942.0,-5.128000259399414,0,0
1942.88502,-0.827362060546875,0.028350830078125,0.047119140625,0.55889892578125,0.0,0.06103515625,-0.06103515625,0.1090087890625,0.003662109375,0.9990234375,-260.0,105.0,-9.0,101942.0,-5.128000259399414,0,0
1942.891998,-0.827362060546875,0.028350830078125,0.047119140625,0.55889892578125,0.06103515625,0.1220703125,-0.1220703125,0.11181640625,0.007568359375,1.0008544921875,-260.0,105.0,-9.0,101942.0,-5.128000259399414,0,0
1942.898031,-0.827362060546875,0.028350830078125,0.047119140625,0.55889892578125,0.06103515625,0.1220703125,-0.1220703125,0.11181640625,0.007568359375,1.0008544921875,-260.0,105.0,-9.0,101942.0,-5.128000259399414,0,0
1942.90502,-0.8275146484375,0.028350830078125,0.047119140625,0.558685302734375,0.06103515625,-0.06103515625,0.18310546875,0.1080322265625,0.0054931640625,0.999267578125,-261.0,106.0,-7.0,101942.0,-5.128000259399414,0,0
1942.912003,-0.8275146484375,0.028350830078125,0.047119140625,0.558685302734375,0.0,0.06103515625,-0.1220703125,0.1083984375,0.0067138671875,0.997802734375,-261.0,106.0,-7.0,101942.0,-5.128000259399414,0,0
1942.919018,-0.8275146484375,0.0283203125,0.047119140625,0.558685302734375,0.1220703125,0.18310546875,-0.1220703125,0.109619140625,0.0086669921875,0.99658203125,-261.0,106.0,-7.0,101942.0,-5.128000259399414,0,0
1942.925997,-0.8275146484375,0.0283203125,0.047119140625,0.558685302734375,-0.244140625,0.30517578125,-0.06103515625,0.1092529296875,0.00439453125,1.0010986328125,-261.0,106.0,-7.0,101942.0,-5.128000259399414,0,0
1942.932996,-0.8275146484375,0.0283203125,0.047119140625,0.558685302734375,-0.18310546875,0.48828125,-0.18310546875,0.1114501953125,0.0050048828125,1.0,-261.0,106.0,-7.0,101942.0,-5.128000259399414,0,0
1942.940016,-0.8275146484375,0.0283203125,0.047119140625,0.558685302734375,0.0,0.18310546875,0.1220703125,0.1107177734375,0.007080078125,0.998046875,-261.0,106.0,-7.0,101942.0,-5.128000259399414,0,0
1942.947001,-0.8275146484375,0.0283203125,0.047119140625,0.558685302734375,0.0,0.1220703125,-0.06103515625,0.1102294921875,0.006591796875,0.99853515625,-261.0,106.0,-7.0,101942.0,-5.128000259399414,0,0
1942.954018,-0.8275146484375,0.0283203125,0.047119140625,0.558685302734375,-0.244140625,0.18310546875,0.0,0.110107421875,0.00390625,0.9981689453125,-261.0,106.0,-7.0,101942.0,-5.128000259399414,0,0
1942.960995,-0.8275146484375,0.028350830078125,0.047119140625,0.558685302734375,-0.1220703125,0.42724609375,0.06103515625,0.1102294921875,0.005615234375,1.0010986328125,-261.0,106.0,-7.0,101942.0,-5.128000259399414,0,0
1942.967994,-0.8275146484375,0.0283203125,0.047119140625,0.558685302734375,0.06103515625,0.3662109375,0.06103515625,0.106201171875,0.0084228515625,0.9991455078125,-261.0,106.0,-7.0,101942.0,-5.128000259399414,0,0
1942.975019,-0.8275146484375,0.0283203125,0.047119140625,0.558685302734375,0.06103515625,0.244140625,0.1220703125,0.1109619140625,0.0040283203125,0.999267578125,-261.0,106.0,-7.0,101942.0,-5.128000259399414,0,0
1942.981998,-0.8275146484375,0.0283203125,0.047119140625,0.558685302734375,-0.1220703125,0.30517578125,0.1220703125,0.1097412109375,0.006591796875,0.998291015625,-261.0,106.0,-7.0,101942.0,-5.128000259399414,0,0
1942.989018,-0.8275146484375,0.0283203125,0.047119140625,0.558685302734375,0.18310546875,0.1220703125,-0.18310546875,0.1087646484375,0.0062255859375,1.0008544921875,-261.0,106.0,-7.0,101942.0,-5.128000259399414,0,0
1943.009018,-0.827667236328125,0.0283203125,0.047119140625,0.5584716796875,-0.1220703125,0.3662109375,-0.18310546875,0.109375,0.004638671875,0.9996337890625,-261.0,106.0,-6.0,101942.0,-5.129000186920166,0,0
1943.015997,-0.827667236328125,0.0283203125,0.047119140625,0.5584716796875,0.1220703125,0.1220703125,0.0,0.109130859375,0.0052490234375,0.997314453125,-261.0,106.0,-6.0,101942.0,-5.129000186920166,0,0
1943.022996,-0.827667236328125,0.0283203125,0.047119140625,0.5584716796875,-0.06103515625,0.244140625,0.0,0.1099853515625,0.006103515625,0.9989013671875,-261.0,106.0,-6.0,101942.0,-5.129000186920166,0,0
1943.030016,-0.827667236328125,0.028289794921875,0.047119140625,0.5584716796875,-0.18310546875,0.06103515625,-0.06103515625,0.1092529296875,0.005859375,0.999267578125,-261.0,106.0,-6.0,101942.0,-5.129000186920166,0,0
1943.037001,-0.827667236328125,0.0283203125,0.047119140625,0.5584716796875,0.0,0.30517578125,-0.1220703125,0.1126708984375,0.006103515625,0.99951171875,-261.0,106.0,-6.0,101942.0,-5.129000186920166,0,0
1943.044018,-0.827667236328125,0.0283203125,0.047119140625,0.5584716796875,0.0,0.18310546875,0.06103515625,0.1121826171875,0.004638671875,0.999267578125,-261.0,106.0,-6.0,101942.0,-5.129000186920166,0,0
1943.050995,-0.827667236328125,0.0283203125,0.047119140625,0.5584716796875,-0.06103515625,0.3662109375,0.18310546875,0.1114501953125,0.0068359375,1.0001220703125,-261.0,106.0,-6.0,101942.0,-5.129000186920166,0,0
1943.057994,-0.827667236328125,0.0283203125,0.047149658203125,0.5584716796875,-0.30517578125,0.06103515625,-0.244140625,0.112060546875,0.00439453125,0.998779296875,-261.0,106.0,-6.0,101942.0,-5.129000186920166,0,0
1943.065019,-0.827667236328125,0.0283203125,0.047149658203125,0.5584716796875,-0.06103515625,0.244140625,0.1220703125,0.109130859375,0.00634765625,1.0008544921875,-261.0,106.0,-6.0,101942.0,-5.129000186920166,0,0
1943.071998,-0.827667236328125,0.0283203125,0.047149658203125,0.5584716796875,-0.06103515625,0.06103515625,0.06103515625,0.1102294921875,0.006591796875,0.9996337890625,-261.0,106.0,-6.0,101942.0,-5.129000186920166,0,0
1943.079018,-0.827667236328125,0.0283203125,0.047149658203125,0.5584716796875,0.1220703125,0.18310546875,0.1220703125,0.10888671875,0.0048828125,1.0003662109375,-261.0,106.0,-6.0,101942.0,-5.129000186920166,0,0
1943.099018,-0.827667236328125,0.0283203125,0.047149658203125,0.5584716796875,0.18310546875,0.1220703125,-0.1220703125,0.1082763671875,0.005126953125,0.9986572265625,-261.0,106.0,-6.0,101942.0,-5.129000186920166,0,0
1943.105997,-0.827880859375,0.028289794921875,0.047149658203125,0.55816650390625,0.18310546875,0.48828125,0.0,0.1090087890625,0.005126953125,0.998046875,-260.0,106.0,-7.0,101942.0,-5.129000186920166,0,0
1943.112996,-0.827880859375,0.028289794921875,0.047119140625,0.55816650390625,0.06103515625,0.18310546875,-0.06103515625,0.1090087890625,0.0057373046875,0.9990234375,-260.0,106.0,-7.0,101942.0,-5.129000186920166,0,0
1943.120016,-0.827880859375,0.028289794921875,0.047149658203125,0.55816650390625,0.0,0.18310546875,0.1220703125,0.111083984375,0.0050048828125,1.000244140625,-260.0,106.0,-7.0,101942.0,-5.129000186920166,0,0
1943.127001,-0.827880859375,0.028289794921875,0.047149658203125,0.55816650390625,0.0,0.18310546875,0.0,0.1092529296875,0.006591796875,0.9979248046875,-260.0,106.0,-7.0,101942.0,-5.129000186920166,0,0
1943.134018,-0.827880859375,0.028289794921875,0.047149658203125,0.55816650390625,0.1220703125,0.244140625,0.0,0.110107421875,0.00634765625,0.9981689453125,-260.0,106.0,-7.0,101942.0,-5.129000186920166,0,0
1943.140999,-0.827880859375,0.028289794921875,0.047149658203125,0.55816650390625,-0.1220703125,0.244140625,0.1220703125,0.1104736328125,0.0048828125,0.9990234375,-260.0,106.0,-7.0,101942.0,-5.129000186920166,0,0
1943.147999,-0.827880859375,0.028289794921875,0.047149658203125,0.55816650390625,0.06103515625,0.3662109375,-0.18310546875,0.109130859375,0.00390625,0.9996337890625,-260.0,106.0,-7.0,101942.0,-5.129000186920166,0,0
1943.15502,-0.827880859375,0.028289794921875,0.047149658203125,0.55816650390625,-0.1220703125,0.18310546875,-0.06103515625,0.1097412109375,0.0057373046875,0.9989013671875,-260.0,106.0,-7.0,101942.0,-5.129000186920166,0,0
1943.161998,-0.827880859375,0.028289794921875,0.047149658203125,0.55816650390625,0.06103515625,0.244140625,-0.06103515625,0.1112060546875,0.0069580078125,0.9989013671875,-260.0,106.0,-7.0,101942.0,-5.129000186920166,0,0
1943.169018,-0.827880859375,0.028289794921875,0.047149658203125,0.55816650390625,0.0,0.1220703125,0.06103515625,0.109375,0.0042724609375,0.998779296875,-260.0,106.0,-7.0,101942.0,-5.129000186920166,0,0
1943.17505,-0.827880859375,0.028289794921875,0.047149658203125,0.55816650390625,0.0,0.1220703125,0.06103515625,0.109375,0.0042724609375,0.998779296875,-260.0,106.0,-7.0,101942.0,-5.129000186920166,0,0
1943.182003,-0.827880859375,0.028289794921875,0.047149658203125,0.55816650390625,0.06103515625,0.3662109375,-0.1220703125,0.1104736328125,0.0042724609375,0.9989013671875,-260.0,106.0,-7.0,101942.0,-5.129000186920166,0,0
1943.189018,-0.827880859375,0.028289794921875,0.047119140625,0.55816650390625,-0.06103515625,0.42724609375,0.0,0.110107421875,0.005615234375,0.9991455078125,-260.0,106.0,-7.0,101942.0,-5.129000186920166,0,0
1943.195997,-0.827880859375,0.028289794921875,0.047119140625,0.55816650390625,-0.18310546875,0.244140625,0.0,0.109619140625,0.0054931640625,0.999755859375,-260.0,106.0,-7.0,101942.0,-5.129000186920166,0,0
1943.202996,-0.827880859375,0.0283203125,0.047119140625,0.55816650390625,-0.18310546875,0.30517578125,0.0,0.109130859375,0.00390625,0.998291015625,-260.0,106.0,-7.0,101942.0,-5.129000186920166,0,0
1943.210017,-0.827972412109375,0.0283203125,0.047119140625,0.558013916015625,-0.244140625,0.06103515625,-0.1220703125,0.1104736328125,0.0032958984375,0.9998779296875,-260.0,104.0,-7.0,101942.0,-5.129000186920166,0,0
1943.217001,-0.827972412109375,0.0283203125,0.047119140625,0.558013916015625,0.18310546875,0.42724609375,0.1220703125,0.109619140625,0.0035400390625,0.997802734375,-260.0,104.0,-7.0,101942.0,-5.129000186920166,0,0
1943.224019,-0.827972412109375,0.0283203125,0.047119140625,0.558013916015625,-0.06103515625,0.244140625,0.06103515625,0.10986328125,0.004638671875,1.000732421875,-260.0,104.0,-7.0,101942.0,-5.129000186920166,0,0
1943.230999,-0.827972412109375,0.0283203125,0.047119140625,0.558013916015625,0.0,0.18310546875,-0.06103515625,0.108642578125,0.0054931640625,0.998779296875,-260.0,104.0,-7.0,101942.0,-5.129000186920166,0,0
1943.237994,-0.827972412109375,0.0283203125,0.047119140625,0.558013916015625,-0.18310546875,0.3662109375,0.0,0.1094970703125,0.00537109375,0.999755859375,-260.0,104.0,-7.0,101942.0,-5.129000186920166,0,0
1943.245019,-0.827972412109375,0.0283203125,0.047119140625,0.558013916015625,0.06103515625,0.1220703125,-0.244140625,0.111328125,0.00732421875,0.9986572265625,-260.0,104.0,-7.0,101942.0,-5.129000186920166,0,0
1943.251998,-0.827972412109375,0.0283203125,0.047119140625,0.558013916015625,-0.1220703125,0.30517578125,0.1220703125,0.10986328125,0.005615234375,0.9984130859375,-260.0,104.0,-7.0,101942.0,-5.129000186920166,0,0
1943.272029,-0.827972412109375,0.0283203125,0.047119140625,0.558013916015625,0.0,0.18310546875,-0.06103515625,0.109130859375,0.0047607421875,0.9974365234375,-260.0,104.0,-7.0,101942.0,-5.129000186920166,0,0
1943.279018,-0.827972412109375,0.0283203125,0.047119140625,0.558013916015625,0.1220703125,0.1220703125,0.1220703125,0.1092529296875,0.00439453125,0.9989013671875,-260.0,104.0,-7.0,101942.0,-5.129000186920166,0,0
1943.285997,-0.827972412109375,0.0283203125,0.047119140625,0.558013916015625,0.244140625,0.244140625,0.244140625,0.1094970703125,0.0047607421875,0.9993896484375,-260.0,104.0,-7.0,101942.0,-5.129000186920166,0,0
1943.292996,-0.827972412109375,0.0283203125,0.047119140625,0.558013916015625,0.06103515625,0.30517578125,0.0,0.1094970703125,0.0054931640625,0.9986572265625,-260.0,104.0,-7.0,101942.0,-5.129000186920166,0,0
1943.300016,-0.827972412109375,0.0283203125,0.047119140625,0.558013916015625,0.0,0.244140625,-0.1220703125,0.111083984375,0.0045166015625,0.99755859375,-260.0,104.0,-6.0,101942.0,-5.128000259399414,0,0
1943.307001,-0.828033447265625,0.0283203125,0.047119140625,0.557952880859375,-0.18310546875,0.30517578125,0.1220703125,0.11181640625,0.0042724609375,0.9984130859375,-260.0,104.0,-6.0,101942.0,-5.128000259399414,0,0
1943.314018,-0.828033447265625,0.0283203125,0.047088623046875,0.557952880859375,0.06103515625,0.1220703125,0.0,0.108154296875,0.0057373046875,0.9981689453125,-260.0,104.0,-6.0,101942.0,-5.128000259399414,0,0
1943.320995,-0.828033447265625,0.0283203125,0.047088623046875,0.557952880859375,-0.06103515625,0.30517578125,-0.06103515625,0.1102294921875,0.00732421875,1.0006103515625,-260.0,104.0,-6.0,101942.0,-5.128000259399414,0,0
1943.327994,-0.828033447265625,0.0283203125,0.047088623046875,0.557952880859375,-0.1220703125,0.244140625,0.0,0.1102294921875,0.0050048828125,0.99951171875,-260.0,104.0,-6.0,101942.0,-5.128000259399414,0,0
1943.335019,-0.828033447265625,0.0283203125,0.047088623046875,0.557952880859375,-0.1220703125,0.1220703125,0.18310546875,0.11083984375,0.00830078125,1.0006103515625,-260.0,104.0,-6.0,101942.0,-5.128000259399414,0,0
1943.341998,-0.828033447265625,0.0283203125,0.047088623046875,0.557952880859375,-0.244140625,0.30517578125,0.0,0.111083984375,0.007080078125,0.9993896484375,-260.0,104.0,-6.0,101942.0,-5.128000259399414,0,0
1943.362029,-0.828033447265625,0.0283203125,0.047119140625,0.557952880859375,0.0,0.244140625,0.0,0.111083984375,0.006591796875,0.99951171875,-260.0,104.0,-6.0,101942.0,-5.128000259399414,0,0
1943.369018,-0.828033447265625,0.0283203125,0.047119140625,0.557952880859375,-0.1220703125,0.18310546875,-0.18310546875,0.1116943359375,0.0035400390625,0.9993896484375,-260.0,104.0,-6.0,101942.0,-5.128000259399414,0,0
1943.375997,-0.828033447265625,0.0283203125,0.047119140625,0.557952880859375,-0.06103515625,0.244140625,0.06103515625,0.1109619140625,0.00634765625,0.99755859375,-260.0,104.0,-6.0,101942.0,-5.128000259399414,0,0
1943.382996,-0.828033447265625,0.0283203125,0.047119140625,0.557952880859375,-0.06103515625,0.54931640625,0.0,0.108154296875,0.004150390625,0.9991455078125,-260.0,104.0,-6.0,101942.0,-5.128000259399414,0,0
1943.390016,-0.828033447265625,0.0283203125,0.047119140625,0.557952880859375,0.06103515625,0.244140625,0.0,0.1109619140625,0.005126953125,0.9990234375,-260.0,104.0,-6.0,101942.0,-5.128000259399414,0,0
1943.397001,-0.828033447265625,0.0283203125,0.047119140625,0.557952880859375,-0.18310546875,0.1220703125,0.06103515625,0.110107421875,0.006103515625,0.9989013671875,-260.0,104.0,-6.0,101942.0,-5.128000259399414,0,0
1943.404018,-0.828033447265625,0.0283203125,0.047088623046875,0.557952880859375,0.244140625,0.0,0.0,0.1090087890625,0.0059814453125,0.9981689453125,-261.0,102.0,-6.0,101942.0,-5.128000259399414,0,0
1943.410995,-0.827972412109375,0.0283203125,0.047088623046875,0.558013916015625,0.18310546875,0.06103515625,-0.18310546875,0.1092529296875,0.00439453125,1.0,-261.0,102.0,-6.0,101942.0,-5.128000259399414,0,0
1943.417994,-0.827972412109375,0.0283203125,0.047088623046875,0.558013916015625,-0.06103515625,0.30517578125,0.0,0.110595703125,0.0064697265625,0.99853515625,-261.0,102.0,-6.0,101942.0,-5.128000259399414,0,0
1943.425019,-0.827972412109375,0.0283203125,0.047088623046875,0.558013916015625,0.06103515625,0.18310546875,0.06103515625,0.1124267578125,0.00732421875,0.9993896484375,-261.0,102.0,-6.0,101942.0,-5.128000259399414,0,0
1943.431998,-0.827972412109375,0.0283203125,0.047119140625,0.558013916015625,0.244140625,0.18310546875,0.1220703125,0.1112060546875,0.0062255859375,1.0001220703125,-261.0,102.0,-6.0,101942.0,-5.128000259399414,0,0
1943.439018,-0.827972412109375,0.0283203125,0.047119140625,0.558013916015625,-0.244140625,0.3662109375,0.1220703125,0.1094970703125,0.0074462890625,0.9990234375,-261.0,102.0,-6.0,101942.0,-5.128000259399414,0,0
1943.445996,-0.827972412109375,0.028289794921875,0.047119140625,0.558013916015625,0.06103515625,0.244140625,0.1220703125,0.1083984375,0.0067138671875,0.998291015625,-261.0,102.0,-6.0,101942.0,-5.128000259399414,0,0
1943.452996,-0.827972412109375,0.0283203125,0.047088623046875,0.558013916015625,-0.18310546875,0.244140625,0.06103515625,0.110107421875,0.00439453125,0.9984130859375,-261.0,102.0,-6.0,101942.0,-5.128000259399414,0,0
1943.459029,-0.827972412109375,0.0283203125,0.047088623046875,0.558013916015625,-0.18310546875,0.244140625,0.06103515625,0.110107421875,0.00439453125,0.9984130859375,-261.0,102.0,-6.0,101942.0,-5.128000259399414,0,0
1943.465997,-0.827972412109375,0.0283203125,0.047119140625,0.558013916015625,0.06103515625,0.244140625,0.06103515625,0.110595703125,0.005859375,0.999267578125,-261.0,102.0,-6.0,101942.0,-5.128000259399414,0,0
1943.472996,-0.827972412109375,0.028289794921875,0.047119140625,0.558013916015625,0.18310546875,0.3662109375,-0.06103515625,0.1080322265625,0.0084228515625,0.9998779296875,-261.0,102.0,-6.0,101942.0,-5.128000259399414,0,0
1943.480017,-0.827972412109375,0.028289794921875,0.047119140625,0.558013916015625,0.18310546875,0.30517578125,-0.06103515625,0.11083984375,0.0068359375,1.0009765625,-261.0,102.0,-6.0,101942.0,-5.128000259399414,0,0
1943.487001,-0.827972412109375,0.0283203125,0.047119140625,0.558013916015625,0.06103515625,0.3662109375,0.06103515625,0.1104736328125,0.00390625,0.999755859375,-261.0,102.0,-6.0,101942.0,-5.128000259399414,0,0
1943.494019,-0.827972412109375,0.0283203125,0.047119140625,0.558013916015625,-0.18310546875,0.18310546875,0.244140625,0.111572265625,0.00732421875,0.9979248046875,-261.0,102.0,-6.0,101942.0,-5.128000259399414,0,0
1943.500999,-0.827972412109375,0.0283203125,0.047119140625,0.558013916015625,0.1220703125,0.244140625,0.1220703125,0.1097412109375,0.006591796875,0.9993896484375,-261.0,102.0,-6.0,101942.0,-5.129000186920166,0,0
1943.507999,-0.827911376953125,0.0283203125,0.047119140625,0.55810546875,0.0,0.42724609375,-0.06103515625,0.109375,0.0045166015625,0.9993896484375,-261.0,102.0,-6.0,101942.0,-5.129000186920166,0,0
1943.51502,-0.827911376953125,0.0283203125,0.047119140625,0.55810546875,0.06103515625,0.3662109375,-0.1220703125,0.1083984375,0.00537109375,0.9986572265625,-261.0,102.0,-6.0,101942.0,-5.129000186920166,0,0
1943.535996,-0.827911376953125,0.028289794921875,0.047088623046875,0.55810546875,-0.1220703125,0.30517578125,-0.06103515625,0.1077880859375,0.0054931640625,0.99951171875,-261.0,102.0,-6.0,101942.0,-5.129000186920166,0,0
1943.542996,-0.827911376953125,0.028289794921875,0.047088623046875,0.55810546875,0.0,0.30517578125,-0.244140625,0.1112060546875,0.0050048828125,0.998779296875,-261.0,102.0,-6.0,101942.0,-5.129000186920166,0,0
1943.549028,-0.827911376953125,0.028289794921875,0.047088623046875,0.55810546875,0.0,0.30517578125,-0.244140625,0.1112060546875,0.0050048828125,0.998779296875,-261.0,102.0,-6.0,101942.0,-5.129000186920166,0,0
1943.555997,-0.827911376953125,0.028289794921875,0.047088623046875,0.55810546875,0.18310546875,0.18310546875,0.1220703125,0.1097412109375,0.00439453125,1.0020751953125,-261.0,102.0,-6.0,101942.0,-5.129000186920166,0,0
1943.562996,-0.827911376953125,0.028289794921875,0.047088623046875,0.55810546875,-0.06103515625,0.3662109375,0.0,0.1097412109375,0.006591796875,0.99951171875,-261.0,102.0,-6.0,101942.0,-5.129000186920166,0,0
1943.570016,-0.827911376953125,0.028289794921875,0.047119140625,0.55810546875,-0.18310546875,0.18310546875,0.06103515625,0.1126708984375,0.00634765625,0.998779296875,-261.0,102.0,-6.0,101942.0,-5.129000186920166,0,0
1943.577001,-0.827911376953125,0.028289794921875,0.047088623046875,0.55810546875,-0.18310546875,0.42724609375,0.18310546875,0.1116943359375,0.002685546875,0.9974365234375,-261.0,102.0,-6.0,101942.0,-5.129000186920166,0,0
1943.584018,-0.827911376953125,0.028289794921875,0.047088623046875,0.55810546875,0.06103515625,0.244140625,-0.18310546875,0.110107421875,0.006591796875,0.997802734375,-261.0,102.0,-6.0,101942.0,-5.129000186920166,0,0
1943.590995,-0.827911376953125,0.028289794921875,0.047088623046875,0.55810546875,-0.244140625,0.244140625,0.30517578125,0.110107421875,0.004638671875,0.9979248046875,-261.0,102.0,-6.0,101942.0,-5.129000186920166,0,0
1943.597994,-0.827911376953125,0.028289794921875,0.047088623046875,0.55810546875,-0.1220703125,0.06103515625,-0.18310546875,0.111328125,0.0072021484375,0.9996337890625,-261.0,102.0,-6.0,101942.0,-5.129000186920166,0,0
1943.619018,-0.827880859375,0.028289794921875,0.047088623046875,0.55816650390625,-0.244140625,0.06103515625,0.30517578125,0.109619140625,0.004150390625,0.99755859375,-260.0,101.0,-6.0,101942.0,-5.130000114440918,0,0
1943.625996,-0.827880859375,0.02825927734375,0.047088623046875,0.55816650390625,0.06103515625,0.18310546875,-0.30517578125,0.107421875,0.005615234375,1.0,-260.0,101.0,-6.0,101942.0,-5.130000114440918,0,0
1943.632996,-0.827880859375,0.02825927734375,0.047088623046875,0.55816650390625,-0.30517578125,0.3662109375,-0.06103515625,0.11181640625,0.0072021484375,0.9989013671875,-260.0,101.0,-6.0,101942.0,-5.130000114440918,0,0
1943.640021,-0.827880859375,0.02825927734375,0.047088623046875,0.55816650390625,0.06103515625,0.42724609375,0.06103515625,0.1082763671875,0.00634765625,1.000244140625,-260.0,101.0,-6.0,101942.0,-5.130000114440918,0,0
1943.646049,-0.827880859375,0.02825927734375,0.047088623046875,0.55816650390625,0.06103515625,0.42724609375,0.06103515625,0.1082763671875,0.00634765625,1.000244140625,-260.0,101.0,-6.0,101942.0,-5.130000114440918,0,0
1943.652996,-0.827880859375,0.02825927734375,0.047088623046875,0.55816650390625,0.0,0.30517578125,0.1220703125,0.1126708984375,0.00537109375,0.9986572265625,-260.0,101.0,-6.0,101942.0,-5.130000114440918,0,0
1943.660016,-0.827880859375,0.02825927734375,0.047088623046875,0.55816650390625,0.0,0.1220703125,0.1220703125,0.1099853515625,0.005859375,0.9993896484375,-260.0,101.0,-6.0,101942.0,-5.130000114440918,0,0
1943.667001,-0.827880859375,0.02825927734375,0.047088623046875,0.55816650390625,0.0,0.0,0.1220703125,0.1103515625,0.0062255859375,1.00048828125,-260.0,101.0,-6.0,101942.0,-5.130000114440918,0,0
1943.674018,-0.827880859375,0.02825927734375,0.047088623046875,0.55816650390625,0.1220703125,0.42724609375,0.0,0.110107421875,0.0057373046875,1.0001220703125,-260.0,101.0,-6.0,101942.0,-5.130000114440918,0,0
1943.680995,-0.827880859375,0.02825927734375,0.047088623046875,0.55816650390625,-0.06103515625,0.48828125,-0.06103515625,0.110595703125,0.0081787109375,1.001220703125,-260.0,101.0,-6.0,101942.0,-5.130000114440918,0,0
1943.687994,-0.827880859375,0.02825927734375,0.047088623046875,0.55816650390625,0.0,0.244140625,-0.244140625,0.1104736328125,0.0048828125,0.9990234375,-260.0,101.0,-6.0,101942.0,-5.130000114440918,0,0
1943.695019,-0.827880859375,0.02825927734375,0.047088623046875,0.55816650390625,0.1220703125,0.3662109375,0.1220703125,0.10986328125,0.006103515625,0.999267578125,-260.0,101.0,-6.0,101942.0,-5.130000114440918,0,0
1943.701998,-0.827880859375,0.02825927734375,0.047088623046875,0.55816650390625,-0.06103515625,0.30517578125,-0.48828125,0.109130859375,0.0045166015625,1.0006103515625,-259.0,101.0,-7.0,101942.0,-5.129000186920166,0,0
1943.709018,-0.82781982421875,0.02825927734375,0.04705810546875,0.558258056640625,-0.18310546875,0.1220703125,-0.06103515625,0.1103515625,0.0054931640625,1.0010986328125,-259.0,101.0,-7.0,101942.0,-5.129000186920166,0,0
1943.715996,-0.82781982421875,0.02825927734375,0.04705810546875,0.558258056640625,0.06103515625,0.18310546875,0.0,0.1104736328125,0.0048828125,0.9986572265625,-259.0,101.0,-7.0,101942.0,-5.129000186920166,0,0
1943.722996,-0.82781982421875,0.02825927734375,0.04705810546875,0.558258056640625,0.0,0.18310546875,0.0,0.109375,0.005859375,1.00048828125,-259.0,101.0,-7.0,101942.0,-5.129000186920166,0,0
1943.730021,-0.82781982421875,0.02825927734375,0.04705810546875,0.558258056640625,0.0,0.244140625,-0.1220703125,0.10888671875,0.0064697265625,1.0008544921875,-259.0,101.0,-7.0,101942.0,-5.129000186920166,0,0
1943.736053,-0.82781982421875,0.02825927734375,0.04705810546875,0.558258056640625,0.0,0.244140625,-0.1220703125,0.10888671875,0.0064697265625,1.0008544921875,-259.0,101.0,-7.0,101942.0,-5.129000186920166,0,0
1943.742996,-0.82781982421875,0.02825927734375,0.04705810546875,0.558258056640625,-0.06103515625,0.3662109375,-0.1220703125,0.109130859375,0.007080078125,1.0006103515625,-259.0,101.0,-7.0,101942.0,-5.129000186920166,0,0
1943.750017,-0.82781982421875,0.02825927734375,0.04705810546875,0.558258056640625,-0.1220703125,0.30517578125,-0.1220703125,0.1099853515625,0.0076904296875,1.0001220703125,-259.0,101.0,-7.0,101942.0,-5.129000186920166,0,0
1943.757001,-0.82781982421875,0.02825927734375,0.04705810546875,0.558258056640625,-0.06103515625,0.3662109375,0.244140625,0.1094970703125,0.00732421875,1.0001220703125,-259.0,101.0,-7.0,101942.0,-5.129000186920166,0,0
1943.764018,-0.82781982421875,0.02825927734375,0.047088623046875,0.558258056640625,0.0,0.06103515625,0.1220703125,0.111328125,0.0064697265625,1.0003662109375,-259.0,101.0,-7.0,101942.0,-5.129000186920166,0,0
1943.770999,-0.82781982421875,0.02825927734375,0.047088623046875,0.558258056640625,0.244140625,0.0,-0.06103515625,0.1102294921875,0.0059814453125,0.99853515625,-259.0,101.0,-7.0,101942.0,-5.129000186920166,0,0
1943.791998,-0.82781982421875,0.02825927734375,0.047088623046875,0.558258056640625,0.1220703125,0.1220703125,-0.1220703125,0.110595703125,0.004150390625,0.9979248046875,-259.0,101.0,-7.0,101942.0,-5.129000186920166,0,0
1943.799018,-0.82781982421875,0.02825927734375,0.047088623046875,0.558258056640625,0.06103515625,0.244140625,0.06103515625,0.1107177734375,0.00634765625,0.99951171875,-259.0,101.0,-7.0,101942.0,-5.129000186920166,0,0
1943.805996,-0.827728271484375,0.028289794921875,0.047088623046875,0.55841064453125,0.30517578125,0.0,-0.18310546875,0.1121826171875,0.0059814453125,0.998046875,-261.0,101.0,-7.0,101942.0,-5.129000186920166,0,0
1943.812996,-0.827728271484375,0.028289794921875,0.04705810546875,0.55841064453125,0.18310546875,0.244140625,0.18310546875,0.1083984375,0.0050048828125,1.000732421875,-261.0,101.0,-7.0,101942.0,-5.129000186920166,0,0
1943.820021,-0.827728271484375,0.028289794921875,0.04705810546875,0.55841064453125,-0.06103515625,0.1220703125,0.18310546875,0.108154296875,0.0025634765625,0.9986572265625,-261.0,101.0,-7.0,101942.0,-5.129000186920166,0,0
1943.827001,-0.827728271484375,0.028289794921875,0.04705810546875,0.55841064453125,0.0,0.18310546875,-0.1220703125,0.1094970703125,0.0048828125,0.9976806640625,-261.0,101.0,-7.0,101942.0,-5.129000186920166,0,0
1943.833033,-0.827728271484375,0.028289794921875,0.04705810546875,0.55841064453125,0.0,0.18310546875,-0.1220703125,0.1094970703125,0.0048828125,0.9976806640625,-261.0,101.0,-7.0,101942.0,-5.129000186920166,0,0
1943.840016,-0.827728271484375,0.028289794921875,0.04705810546875,0.55841064453125,-0.30517578125,0.3662109375,-0.06103515625,0.109619140625,0.0062255859375,0.9996337890625,-261.0,101.0,-7.0,101942.0,-5.129000186920166,0,0
1943.847001,-0.827728271484375,0.028289794921875,0.04705810546875,0.55841064453125,-0.18310546875,0.30517578125,-0.244140625,0.110595703125,0.0076904296875,0.999267578125,-261.0,101.0,-7.0,101942.0,-5.129000186920166,0,0
1943.854018,-0.827728271484375,0.028289794921875,0.04705810546875,0.55841064453125,-0.18310546875,0.48828125,-0.1220703125,0.11083984375,0.0057373046875,0.9993896484375,-261.0,101.0,-7.0,101942.0,-5.130000114440918,0,0
1943.860995,-0.827728271484375,0.028289794921875,0.04705810546875,0.55841064453125,0.0,0.30517578125,-0.3662109375,0.1112060546875,0.00537109375,0.9984130859375,-261.0,101.0,-7.0,101942.0,-5.130000114440918,0,0
1943.881998,-0.827728271484375,0.028289794921875,0.04705810546875,0.55841064453125,-0.18310546875,0.244140625,-0.06103515625,0.109619140625,0.0057373046875,0.9998779296875,-261.0,101.0,-7.0,101942.0,-5.130000114440918,0,0
1943.889018,-0.827728271484375,0.028289794921875,0.04705810546875,0.55841064453125,-0.06103515625,0.48828125,-0.06103515625,0.111328125,0.007568359375,0.998779296875,-261.0,101.0,-7.0,101942.0,-5.130000114440918,0,0
1943.895996,-0.827728271484375,0.028289794921875,0.04705810546875,0.55841064453125,0.0,0.42724609375,0.18310546875,0.111328125,0.0047607421875,0.9990234375,-261.0,101.0,-7.0,101942.0,-5.130000114440918,0,0
1943.902996,-0.82757568359375,0.028289794921875,0.04705810546875,0.558624267578125,0.244140625,0.30517578125,0.06103515625,0.109375,0.00390625,1.0003662109375,-260.0,99.0,-9.0,101942.0,-5.130000114440918,0,0
1943.910021,-0.82757568359375,0.028289794921875,0.04705810546875,0.558624267578125,-0.06103515625,0.244140625,0.06103515625,0.11083984375,0.005615234375,0.9990234375,-260.0,99.0,-9.0,101942.0,-5.130000114440918,0,0
1943.917001,-0.82757568359375,0.0283203125,0.04705810546875,0.558624267578125,-0.1220703125,0.42724609375,-0.06103515625,0.1107177734375,0.0069580078125,0.9989013671875,-260.0,99.0,-9.0,101942.0,-5.130000114440918,0,0
1943.923032,-0.82757568359375,0.0283203125,0.04705810546875,0.558624267578125,-0.1220703125,0.42724609375,-0.06103515625,0.1107177734375,0.0069580078125,0.9989013671875,-260.0,99.0,-9.0,101942.0,-5.130000114440918,0,0
1943.930016,-0.82757568359375,0.0283203125,0.04705810546875,0.558624267578125,-0.1220703125,0.30517578125,0.18310546875,0.1107177734375,0.006103515625,0.998291015625,-260.0,99.0,-9.0,101942.0,-5.130000114440918,0,0
1943.937001,-0.82757568359375,0.028289794921875,0.04705810546875,0.558624267578125,0.18310546875,0.1220703125,0.0,0.1087646484375,0.0064697265625,1.0015869140625,-260.0,99.0,-9.0,101942.0,-5.130000114440918,0,0
1943.944018,-0.82757568359375,0.028289794921875,0.04705810546875,0.558624267578125,0.0,0.18310546875,0.06103515625,0.1090087890625,0.0057373046875,0.998291015625,-260.0,99.0,-9.0,101942.0,-5.130000114440918,0,0
1943.950995,-0.82757568359375,0.028289794921875,0.04705810546875,0.558624267578125,-0.18310546875,0.18310546875,0.0,0.111328125,0.0057373046875,0.998779296875,-260.0,99.0,-9.0,101942.0,-5.129000186920166,0,0
1943.957994,-0.82757568359375,0.0283203125,0.04705810546875,0.558624267578125,-0.06103515625,0.30517578125,-0.30517578125,0.1126708984375,0.004150390625,1.0001220703125,-260.0,99.0,-9.0,101942.0,-5.129000186920166,0,0
1943.965019,-0.82757568359375,0.028289794921875,0.04705810546875,0.558624267578125,-0.06103515625,0.18310546875,0.1220703125,0.1075439453125,0.0048828125,0.99658203125,-260.0,99.0,-9.0,101942.0,-5.129000186920166,0,0
1943.971998,-0.82757568359375,0.028289794921875,0.04705810546875,0.558624267578125,0.06103515625,0.3662109375,0.244140625,0.107177734375,0.0032958984375,0.9989013671875,-260.0,99.0,-9.0,101942.0,-5.129000186920166,0,0
1943.979018,-0.82757568359375,0.028289794921875,0.04705810546875,0.558624267578125,-0.06103515625,0.18310546875,-0.06103515625,0.110107421875,0.00537109375,0.9990234375,-260.0,99.0,-9.0,101942.0,-5.129000186920166,0,0
1943.985996,-0.82757568359375,0.028289794921875,0.047027587890625,0.558624267578125,-0.06103515625,0.244140625,-0.244140625,0.107666015625,0.0064697265625,0.9989013671875,-260.0,99.0,-9.0,101942.0,-5.129000186920166,0,0
1943.992996,-0.82757568359375,0.028289794921875,0.04705810546875,0.558624267578125,0.06103515625,0.48828125,0.0,0.1112060546875,0.0074462890625,0.9986572265625,-260.0,99.0,-9.0,101942.0,-5.129000186920166,0,0
1944.000021,-0.82757568359375,0.028289794921875,0.04705810546875,0.558624267578125,0.0,0.30517578125,0.0,0.11181640625,0.007568359375,1.0009765625,-260.0,99.0,-9.0,101942.0,-5.129000186920166,0,0
1944.007001,-0.827484130859375,0.028289794921875,0.04705810546875,0.55877685546875,0.30517578125,0.3662109375,0.1220703125,0.1099853515625,0.00732421875,1.000244140625,-260.0,100.0,-10.0,101942.0,-5.129000186920166,0,0
1944.014015,-0.827484130859375,0.028289794921875,0.04705810546875,0.55877685546875,0.1220703125,0.54931640625,-0.30517578125,0.1123046875,0.0076904296875,0.9996337890625,-260.0,100.0,-10.0,101942.0,-5.129000186920166,0,0
1944.020047,-0.827484130859375,0.028289794921875,0.04705810546875,0.55877685546875,0.1220703125,0.54931640625,-0.30517578125,0.1123046875,0.0076904296875,0.9996337890625,-260.0,100.0,-10.0,101942.0,-5.129000186920166,0,0
1944.027001,-0.827484130859375,0.028289794921875,0.047027587890625,0.55877685546875,0.06103515625,0.3662109375,-0.18310546875,0.1094970703125,0.00634765625,1.0008544921875,-260.0,100.0,-10.0,101942.0,-5.129000186920166,0,0
1944.034018,-0.827484130859375,0.028289794921875,0.047027587890625,0.55877685546875,0.18310546875,0.18310546875,0.0,0.1094970703125,0.00537109375,1.000244140625,-260.0,100.0,-10.0,101942.0,-5.129000186920166,0,0
1944.061998,-0.827484130859375,0.02825927734375,0.04705810546875,0.55877685546875,0.1220703125,0.30517578125,0.0,0.1123046875,0.007080078125,1.000732421875,-260.0,100.0,-10.0,101942.0,-5.129000186920166,0,0
1944.069018,-0.827484130859375,0.02825927734375,0.04705810546875,0.55877685546875,0.0,0.30517578125,0.0,0.11083984375,0.0059814453125,1.0008544921875,-260.0,100.0,-10.0,101942.0,-5.129000186920166,0,0
1944.075996,-0.827484130859375,0.02825927734375,0.04705810546875,0.55877685546875,-0.06103515625,0.1220703125,0.0,0.1103515625,0.0072021484375,0.9993896484375,-260.0,100.0,-10.0,101942.0,-5.129000186920166,0,0
1944.082996,-0.827484130859375,0.02825927734375,0.047027587890625,0.55877685546875,0.244140625,0.18310546875,-0.06103515625,0.1102294921875,0.00341796875,0.99853515625,-260.0,100.0,-10.0,101942.0,-5.129000186920166,0,0
1944.090021,-0.827484130859375,0.028289794921875,0.047027587890625,0.55877685546875,-0.06103515625,0.244140625,0.0,0.108642578125,0.00439453125,1.0008544921875,-260.0,100.0,-10.0,101942.0,-5.129000186920166,0,0
1944.097001,-0.827484130859375,0.02825927734375,0.047027587890625,0.55877685546875,0.06103515625,0.1220703125,0.1220703125,0.1104736328125,0.007080078125,1.000732421875,-260.0,100.0,-10.0,101942.0,-5.129000186920166,0,0
1944.104015,-0.827362060546875,0.028289794921875,0.047027587890625,0.558929443359375,0.06103515625,0.3662109375,0.06103515625,0.112060546875,0.0068359375,0.9998779296875,-259.0,99.0,-10.0,101942.0,-5.129000186920166,0,0
1944.110047,-0.827362060546875,0.028289794921875,0.047027587890625,0.558929443359375,0.06103515625,0.3662109375,0.06103515625,0.112060546875,0.0068359375,0.9998779296875,-259.0,99.0,-10.0,101942.0,-5.129000186920166,0,0
1944.117001,-0.827362060546875,0.028289794921875,0.047027587890625,0.558929443359375,0.06103515625,0.06103515625,0.1220703125,0.1126708984375,0.0078125,1.001220703125,-259.0,99.0,-10.0,101942.0,-5.129000186920166,0,0
1944.124018,-0.827362060546875,0.02825927734375,0.04705810546875,0.558929443359375,-0.06103515625,0.18310546875,0.1220703125,0.1102294921875,0.007568359375,0.99755859375,-259.0,99.0,-10.0,101942.0,-5.129000186920166,0,0
1944.145019,-0.827362060546875,0.02825927734375,0.047027587890625,0.558929443359375,0.0,0.48828125,0.244140625,0.1114501953125,0.006103515625,0.9990234375,-259.0,99.0,-10.0,101942.0,-5.129000186920166,0,0
1944.151998,-0.827362060546875,0.02825927734375,0.047027587890625,0.558929443359375,-0.06103515625,0.244140625,-0.06103515625,0.111572265625,0.0072021484375,0.999267578125,-259.0,99.0,-10.0,101942.0,-5.129000186920166,0,0
1944.159018,-0.827362060546875,0.02825927734375,0.047027587890625,0.558929443359375,-0.1220703125,0.1220703125,0.244140625,0.107666015625,0.007080078125,1.0009765625,-259.0,99.0,-10.0,101942.0,-5.129000186920166,0,0
1944.165996,-0.827362060546875,0.02825927734375,0.047027587890625,0.558929443359375,-0.1220703125,0.3662109375,0.06103515625,0.109619140625,0.005859375,1.0006103515625,-259.0,99.0,-10.0,101942.0,-5.129000186920166,0,0
1944.172996,-0.827362060546875,0.02825927734375,0.047027587890625,0.558929443359375,0.0,0.1220703125,-0.1220703125,0.110595703125,0.0059814453125,0.9984130859375,-259.0,99.0,-10.0,101942.0,-5.129000186920166,0,0
1944.180021,-0.827362060546875,0.02825927734375,0.047027587890625,0.558929443359375,-0.06103515625,0.30517578125,0.1220703125,0.109375,0.00439453125,0.998291015625,-259.0,99.0,-10.0,101942.0,-5.129000186920166,0,0
1944.187001,-0.827362060546875,0.02825927734375,0.047027587890625,0.558929443359375,0.06103515625,0.30517578125,0.0,0.110107421875,0.007568359375,0.9989013671875,-259.0,99.0,-10.0,101942.0,-5.129000186920166,0,0
1944.194015,-0.827362060546875,0.02825927734375,0.047027587890625,0.558929443359375,-0.18310546875,-0.06103515625,-0.1220703125,0.1104736328125,0.0054931640625,0.9996337890625,-259.0,99.0,-10.0,101942.0,-5.129000186920166,0,0
1944.200994,-0.82733154296875,0.02825927734375,0.047027587890625,0.558990478515625,-0.18310546875,0.244140625,0.18310546875,0.1085205078125,0.00732421875,0.999755859375,-260.0,101.0,-9.0,101942.0,-5.129000186920166,0,0
1944.207026,-0.82733154296875,0.02825927734375,0.047027587890625,0.558990478515625,-0.18310546875,0.244140625,0.18310546875,0.1085205078125,0.00732421875,0.999755859375,-260.0,101.0,-9.0,101942.0,-5.129000186920166,0,0
1944.214018,-0.82733154296875,0.02825927734375,0.047027587890625,0.558990478515625,-0.06103515625,0.30517578125,0.0,0.1119384765625,0.007080078125,1.000732421875,-260.0,101.0,-9.0,101942.0,-5.129000186920166,0,0
1944.220995,-0.82733154296875,0.02825927734375,0.047027587890625,0.558990478515625,-0.18310546875,0.18310546875,0.1220703125,0.11083984375,0.004150390625,1.0,-260.0,101.0,-9.0,101942.0,-5.129000186920166,0,0
1944.227994,-0.82733154296875,0.02825927734375,0.047027587890625,0.558990478515625,0.0,0.30517578125,0.30517578125,0.1099853515625,0.0064697265625,0.999267578125,-260.0,101.0,-9.0,101942.0,-5.129000186920166,0,0
1944.235019,-0.82733154296875,0.02825927734375,0.047027587890625,0.558990478515625,0.06103515625,0.30517578125,0.1220703125,0.108154296875,0.006591796875,1.00048828125,-260.0,101.0,-9.0,101942.0,-5.129000186920166,0,0
1944.241998,-0.82733154296875,0.02825927734375,0.0469970703125,0.558990478515625,-0.1220703125,0.3662109375,0.0,0.1068115234375,0.005859375,1.00048828125,-260.0,101.0,-9.0,101942.0,-5.129000186920166,0,0
1944.249018,-0.82733154296875,0.02825927734375,0.047027587890625,0.558990478515625,-0.30517578125,0.06103515625,0.1220703125,0.112548828125,0.0068359375,0.9976806640625,-260.0,101.0,-9.0,101942.0,-5.129000186920166,0,0
1944.255996,-0.82733154296875,0.02825927734375,0.0469970703125,0.558990478515625,-0.06103515625,0.18310546875,0.18310546875,0.10986328125,0.0064697265625,0.9993896484375,-260.0,101.0,-9.0,101942.0,-5.129000186920166,0,0
1944.262996,-0.82733154296875,0.02825927734375,0.0469970703125,0.558990478515625,0.06103515625,0.244140625,0.244140625,0.1099853515625,0.0048828125,1.0003662109375,-260.0,101.0,-9.0,101942.0,-5.129000186920166,0,0
1944.270021,-0.82733154296875,0.02825927734375,0.0469970703125,0.558990478515625,0.1220703125,0.30517578125,-0.06103515625,0.111328125,0.0045166015625,1.0,-260.0,101.0,-9.0,101942.0,-5.129000186920166,0,0
1944.277001,-0.82733154296875,0.02825927734375,0.0469970703125,0.558990478515625,0.06103515625,0.30517578125,0.06103515625,0.1097412109375,0.0047607421875,0.9984130859375,-260.0,101.0,-9.0,101942.0,-5.129000186920166,0,0
1944.284015,-0.82733154296875,0.02825927734375,0.0469970703125,0.558990478515625,-0.18310546875,0.18310546875,0.18310546875,0.1103515625,0.0074462890625,1.000244140625,-260.0,101.0,-9.0,101942.0,-5.129000186920166,0,0
1944.290994,-0.82733154296875,0.02825927734375,0.0469970703125,0.558990478515625,0.30517578125,0.30517578125,0.18310546875,0.1116943359375,0.0059814453125,0.9986572265625,-260.0,101.0,-9.0,101942.0,-5.129000186920166,0,0
1944.297026,-0.82733154296875,0.02825927734375,0.0469970703125,0.558990478515625,0.30517578125,0.30517578125,0.18310546875,0.1116943359375,0.0059814453125,0.9986572265625,-260.0,101.0,-9.0,101942.0,-5.129000186920166,0,0
1944.317994,-0.8272705078125,0.02825927734375,0.0469970703125,0.55908203125,0.30517578125,0.1220703125,-0.1220703125,0.1123046875,0.0054931640625,0.9981689453125,-261.0,101.0,-9.0,101942.0,-5.129000186920166,0,0
1944.325019,-0.8272705078125,0.02825927734375,0.0469970703125,0.55908203125,0.18310546875,0.3662109375,-0.1220703125,0.1083984375,0.0086669921875,0.99951171875,-261.0,101.0,-9.0,101942.0,-5.129000186920166,0,0
1944.331998,-0.8272705078125,0.02825927734375,0.0469970703125,0.55908203125,0.18310546875,0.3662109375,-0.06103515625,0.10986328125,0.00634765625,0.9981689453125,-261.0,101.0,-9.0,101942.0,-5.129000186920166,0,0
1944.339018,-0.8272705078125,0.02825927734375,0.0469970703125,0.55908203125,0.06103515625,0.30517578125,0.06103515625,0.1107177734375,0.0069580078125,1.0,-261.0,101.0,-9.0,101942.0,-5.129000186920166,0,0
1944.345996,-0.8272705078125,0.02825927734375,0.047027587890625,0.55908203125,0.0,0.30517578125,0.06103515625,0.1119384765625,0.005126953125,0.998291015625,-261.0,101.0,-9.0,101942.0,-5.129000186920166,0,0
1944.352996,-0.8272705078125,0.02825927734375,0.047027587890625,0.55908203125,0.18310546875,0.06103515625,-0.1220703125,0.1102294921875,0.0086669921875,1.0001220703125,-261.0,101.0,-9.0,101942.0,-5.127000331878662,0,0
1944.360021,-0.8272705078125,0.02825927734375,0.047027587890625,0.55908203125,-0.1220703125,0.244140625,0.0,0.1121826171875,0.0042724609375,0.9998779296875,-261.0,101.0,-9.0,101942.0,-5.127000331878662,0,0
1944.367001,-0.8272705078125,0.02825927734375,0.047027587890625,0.55908203125,-0.06103515625,0.18310546875,-0.244140625,0.1107177734375,0.007568359375,0.9979248046875,-261.0,101.0,-9.0,101942.0,-5.127000331878662,0,0
1944.374015,-0.8272705078125,0.02825927734375,0.047027587890625,0.55908203125,0.06103515625,0.06103515625,0.1220703125,0.1104736328125,0.00537109375,0.997802734375,-261.0,101.0,-9.0,101942.0,-5.127000331878662,0,0
1944.380999,-0.8272705078125,0.02825927734375,0.047027587890625,0.55908203125,-0.1220703125,0.1220703125,0.06103515625,0.1083984375,0.0054931640625,0.997802734375,-261.0,101.0,-9.0,101942.0,-5.127000331878662,0,0
1944.387998,-0.8272705078125,0.02825927734375,0.0469970703125,0.55908203125,0.0,0.244140625,-0.1220703125,0.109619140625,0.0040283203125,1.0,-261.0,101.0,-9.0,101942.0,-5.127000331878662,0,0
1944.407999,-0.8272705078125,0.028289794921875,0.047027587890625,0.55908203125,-0.1220703125,0.18310546875,0.0,0.1104736328125,0.005126953125,0.9998779296875,-261.0,102.0,-9.0,101942.0,-5.127000331878662,0,0
1944.41502,-0.8272705078125,0.028289794921875,0.047027587890625,0.55908203125,0.0,0.1220703125,0.0,0.109619140625,0.005126953125,0.9998779296875,-261.0,102.0,-9.0,101942.0,-5.127000331878662,0,0
1944.421998,-0.8272705078125,0.028289794921875,0.047027587890625,0.55908203125,0.1220703125,0.30517578125,0.244140625,0.111572265625,0.0045166015625,0.9984130859375,-261.0,102.0,-9.0,101942.0,-5.127000331878662,0,0
1944.429018,-0.8272705078125,0.028289794921875,0.047027587890625,0.55908203125,0.3662109375,0.244140625,0.1220703125,0.109375,0.0078125,0.998291015625,-261.0,102.0,-9.0,101942.0,-5.127000331878662,0,0
1944.435996,-0.8272705078125,0.028289794921875,0.047027587890625,0.55908203125,0.18310546875,0.244140625,-0.06103515625,0.10888671875,0.004638671875,1.0006103515625,-261.0,102.0,-9.0,101942.0,-5.127000331878662,0,0
1944.442996,-0.8272705078125,0.028289794921875,0.047027587890625,0.55908203125,0.1220703125,0.42724609375,0.06103515625,0.10986328125,0.0059814453125,0.9984130859375,-261.0,102.0,-9.0,101942.0,-5.127000331878662,0,0
1944.450021,-0.8272705078125,0.02825927734375,0.047027587890625,0.55908203125,0.244140625,0.244140625,-0.06103515625,0.108154296875,0.00634765625,0.999267578125,-261.0,102.0,-9.0,101942.0,-5.127000331878662,0,0
1944.457001,-0.8272705078125,0.02825927734375,0.0469970703125,0.55908203125,0.1220703125,0.30517578125,0.0,0.110595703125,0.007080078125,1.0,-261.0,102.0,-9.0,101942.0,-5.127000331878662,0,0
1944.464015,-0.8272705078125,0.028289794921875,0.0469970703125,0.55908203125,-0.06103515625,0.244140625,0.06103515625,0.108154296875,0.002197265625,0.998046875,-261.0,102.0,-9.0,101942.0,-5.127000331878662,0,0
1944.470994,-0.8272705078125,0.02825927734375,0.0469970703125,0.55908203125,-0.06103515625,0.1220703125,-0.1220703125,0.109130859375,0.0087890625,0.9989013671875,-261.0,102.0,-9.0,101942.0,-5.127000331878662,0,0
1944.477998,-0.8272705078125,0.02825927734375,0.0469970703125,0.55908203125,-0.18310546875,0.30517578125,0.06103515625,0.110595703125,0.0047607421875,0.998291015625,-261.0,102.0,-9.0,101942.0,-5.127000331878662,0,0
1944.484026,-0.8272705078125,0.02825927734375,0.0469970703125,0.55908203125,-0.18310546875,0.30517578125,0.06103515625,0.110595703125,0.0047607421875,0.998291015625,-261.0,102.0,-9.0,101942.0,-5.127000331878662,0,0
1944.490995,-0.8272705078125,0.02825927734375,0.0469970703125,0.55908203125,0.06103515625,0.3662109375,-0.1220703125,0.109619140625,0.004150390625,0.9993896484375,-261.0,102.0,-9.0,101942.0,-5.127000331878662,0,0
1944.497994,-0.8272705078125,0.02825927734375,0.0469970703125,0.55908203125,-0.06103515625,0.18310546875,-0.06103515625,0.109375,0.0045166015625,0.999755859375,-261.0,102.0,-9.0,101942.0,-5.127000331878662,0,0
1944.505019,-0.8272705078125,0.028289794921875,0.0469970703125,0.55908203125,-0.06103515625,0.18310546875,-0.18310546875,0.110595703125,0.004638671875,1.0010986328125,-261.0,102.0,-10.0,101942.0,-5.127000331878662,0,0
1944.511998,-0.8272705078125,0.028289794921875,0.0469970703125,0.55908203125,-0.1220703125,0.30517578125,-0.18310546875,0.1094970703125,0.0050048828125,1.0006103515625,-261.0,102.0,-10.0,101942.0,-5.127000331878662,0,0
1944.519018,-0.8272705078125,0.028289794921875,0.0469970703125,0.55908203125,-0.1220703125,0.1220703125,0.0,0.1097412109375,0.0059814453125,0.998046875,-261.0,102.0,-10.0,101942.0,-5.127000331878662,0,0
1944.525996,-0.8272705078125,0.028289794921875,0.0469970703125,0.55908203125,0.06103515625,0.18310546875,0.0,0.1107177734375,0.0068359375,0.998779296875,-261.0,102.0,-10.0,101942.0,-5.127000331878662,0,0
1944.532996,-0.8272705078125,0.028289794921875,0.0469970703125,0.55908203125,0.06103515625,0.3662109375,-0.06103515625,0.108642578125,0.0059814453125,0.999755859375,-261.0,102.0,-10.0,101942.0,-5.127000331878662,0,0
1944.540021,-0.8272705078125,0.028289794921875,0.0469970703125,0.55908203125,0.1220703125,0.18310546875,-0.18310546875,0.109619140625,0.0047607421875,0.99853515625,-261.0,102.0,-10.0,101942.0,-5.127000331878662,0,0
1944.547001,-0.8272705078125,0.028289794921875,0.0469970703125,0.55908203125,0.06103515625,0.42724609375,0.18310546875,0.109619140625,0.005859375,0.9991455078125,-261.0,102.0,-10.0,101942.0,-5.128000259399414,0,0
1944.554015,-0.8272705078125,0.028289794921875,0.0469970703125,0.55908203125,-0.18310546875,0.244140625,-0.1220703125,0.10888671875,0.005126953125,0.9989013671875,-261.0,102.0,-10.0,101942.0,-5.128000259399414,0,0
1944.560994,-0.8272705078125,0.02825927734375,0.0469970703125,0.55908203125,0.0,0.30517578125,0.06103515625,0.108642578125,0.0091552734375,1.0003662109375,-261.0,102.0,-10.0,101942.0,-5.128000259399414,0,0
1944.581046,-0.8272705078125,0.02825927734375,0.0469970703125,0.55908203125,-0.06103515625,0.18310546875,0.1220703125,0.112548828125,0.0045166015625,0.9984130859375,-261.0,102.0,-10.0,101942.0,-5.128000259399414,0,0
1944.587994,-0.8272705078125,0.02825927734375,0.0469970703125,0.55908203125,0.0,0.18310546875,0.06103515625,0.1097412109375,0.0054931640625,0.998779296875,-261.0,102.0,-10.0,101942.0,-5.128000259399414,0,0
1944.595019,-0.8272705078125,0.02825927734375,0.0469970703125,0.55908203125,0.0,0.3662109375,-0.1220703125,0.111083984375,0.0081787109375,0.998779296875,-261.0,102.0,-10.0,101942.0,-5.128000259399414,0,0
1944.601998,-0.82733154296875,0.02825927734375,0.047027587890625,0.558990478515625,-0.1220703125,0.30517578125,0.0,0.1119384765625,0.0062255859375,1.000732421875,-262.0,103.0,-10.0,101942.0,-5.128000259399414,0,0
1944.609018,-0.82733154296875,0.02825927734375,0.0469970703125,0.558990478515625,-0.06103515625,0.244140625,-0.18310546875,0.1077880859375,0.005615234375,1.0,-262.0,103.0,-10.0,101942.0,-5.128000259399414,0,0
1944.615996,-0.82733154296875,0.02825927734375,0.0469970703125,0.558990478515625,0.0,0.244140625,0.06103515625,0.109619140625,0.0054931640625,1.0001220703125,-262.0,103.0,-10.0,101942.0,-5.128000259399414,0,0
1944.622996,-0.82733154296875,0.02825927734375,0.0469970703125,0.558990478515625,-0.06103515625,0.18310546875,0.1220703125,0.1083984375,0.0045166015625,0.99853515625,-262.0,103.0,-10.0,101942.0,-5.128000259399414,0,0
1944.630021,-0.82733154296875,0.02825927734375,0.0469970703125,0.558990478515625,0.06103515625,0.18310546875,0.0,0.1090087890625,0.0035400390625,0.998291015625,-262.0,103.0,-10.0,101942.0,-5.128000259399414,0,0
1944.637001,-0.82733154296875,0.02825927734375,0.0469970703125,0.558990478515625,0.0,0.18310546875,-0.1220703125,0.1099853515625,0.00732421875,1.001220703125,-262.0,103.0,-10.0,101942.0,-5.128000259399414,0,0
1944.644015,-0.82733154296875,0.02825927734375,0.0469970703125,0.558990478515625,0.244140625,0.3662109375,0.1220703125,0.109130859375,0.005859375,0.9990234375,-262.0,103.0,-10.0,101942.0,-5.128000259399414,0,0
1944.650999,-0.82733154296875,0.02825927734375,0.0469970703125,0.558990478515625,0.18310546875,0.3662109375,-0.06103515625,0.1124267578125,0.001953125,0.99951171875,-262.0,103.0,-10.0,101942.0,-5.129000186920166,0,0
